File: FTIR/Olivia/2025_07_16_Polystyrene_Std_scan3.csv
Created as New Dataset,Sample 833 By YargerLab Date Wednesday, July 16 2025
cm-1,A
4000.00,0.0014
3997.00,0.0013
3994.00,0.0013
3991.00,0.0012
3988.00,0.0013
3985.00,0.0013
3982.00,0.0013
3979.00,0.0013
3976.00,0.0014
3973.00,0.0013
3970.00,0.0013
3967.00,0.0013
3964.00,0.0013
3961.00,0.0013
3958.00,0.0013
3955.00,0.0013
3952.00,0.0013
3949.00,0.0013
3946.00,0.0014
3943.00,0.0013
3940.00,0.0013
3937.00,0.0013
3934.00,0.0014
3931.00,0.0013
3928.00,0.0014
3925.00,0.0014
3922.00,0.0014
3919.00,0.0014
3916.00,0.0014
3913.00,0.0014
3910.00,0.0013
3907.00,0.0014
3904.00,0.0016
3901.00,0.0016
3898.00,0.0016
3895.00,0.0015
3892.00,0.0014
3889.00,0.0015
3886.00,0.0016
3883.00,0.0016
3880.00,0.0015
3877.00,0.0015
3874.00,0.0016
3871.00,0.0016
3868.00,0.0017
3865.00,0.0017
3862.00,0.0016
3859.00,0.0016
3856.00,0.0018
3853.00,0.0019
3850.00,0.0018
3847.00,0.0015
3844.00,0.0015
3841.00,0.0017
3838.00,0.0018
3835.00,0.0018
3832.00,0.0016
3829.00,0.0015
3826.00,0.0015
3823.00,0.0016
3820.00,0.0018
3817.00,0.0018
3814.00,0.0017
3811.00,0.0015
3808.00,0.0015
3805.00,0.0017
3802.00,0.0018
3799.00,0.0018
3796.00,0.0016
3793.00,0.0015
3790.00,0.0014
3787.00,0.0014
3784.00,0.0014
3781.00,0.0015
3778.00,0.0015
3775.00,0.0015
3772.00,0.0015
3769.00,0.0016
3766.00,0.0015
3763.00,0.0015
3760.00,0.0016
3757.00,0.0016
3754.00,0.0018
3751.00,0.0019
3748.00,0.0021
3745.00,0.0019
3742.00,0.0019
3739.00,0.0018
3736.00,0.0018
3733.00,0.0018
3730.00,0.0017
3727.00,0.0016
3724.00,0.0016
3721.00,0.0015
3718.00,0.0015
3715.00,0.0015
3712.00,0.0016
3709.00,0.0016
3706.00,0.0015
3703.00,0.0014
3700.00,0.0014
3697.00,0.0014
3694.00,0.0014
3691.00,0.0016
3688.00,0.0016
3685.00,0.0015
3682.00,0.0014
3679.00,0.0015
3676.00,0.0018
3673.00,0.0019
3670.00,0.0018
3667.00,0.0015
3664.00,0.0013
3661.00,0.0013
3658.00,0.0014
3655.00,0.0016
3652.00,0.0018
3649.00,0.0018
3646.00,0.0018
3643.00,0.0016
3640.00,0.0013
3637.00,0.0013
3634.00,0.0014
3631.00,0.0016
3628.00,0.0017
3625.00,0.0017
3622.00,0.0016
3619.00,0.0016
3616.00,0.0016
3613.00,0.0017
3610.00,0.0017
3607.00,0.0016
3604.00,0.0016
3601.00,0.0015
3598.00,0.0015
3595.00,0.0016
3592.00,0.0016
3589.00,0.0016
3586.00,0.0016
3583.00,0.0016
3580.00,0.0015
3577.00,0.0014
3574.00,0.0015
3571.00,0.0015
3568.00,0.0017
3565.00,0.0017
3562.00,0.0017
3559.00,0.0017
3556.00,0.0016
3553.00,0.0017
3550.00,0.0017
3547.00,0.0017
3544.00,0.0017
3541.00,0.0017
3538.00,0.0017
3535.00,0.0017
3532.00,0.0017
3529.00,0.0017
3526.00,0.0018
3523.00,0.0019
3520.00,0.0019
3517.00,0.0018
3514.00,0.0018
3511.00,0.0018
3508.00,0.0018
3505.00,0.0019
3502.00,0.0019
3499.00,0.0019
3496.00,0.0019
3493.00,0.0019
3490.00,0.0019
3487.00,0.0019
3484.00,0.0020
3481.00,0.0019
3478.00,0.0020
3475.00,0.0020
3472.00,0.0020
3469.00,0.0020
3466.00,0.0020
3463.00,0.0021
3460.00,0.0020
3457.00,0.0020
3454.00,0.0021
3451.00,0.0021
3448.00,0.0021
3445.00,0.0021
3442.00,0.0021
3439.00,0.0021
3436.00,0.0021
3433.00,0.0021
3430.00,0.0021
3427.00,0.0020
3424.00,0.0021
3421.00,0.0021
3418.00,0.0021
3415.00,0.0021
3412.00,0.0021
3409.00,0.0021
3406.00,0.0021
3403.00,0.0021
3400.00,0.0021
3397.00,0.0022
3394.00,0.0022
3391.00,0.0021
3388.00,0.0021
3385.00,0.0021
3382.00,0.0021
3379.00,0.0021
3376.00,0.0021
3373.00,0.0021
3370.00,0.0021
3367.00,0.0021
3364.00,0.0021
3361.00,0.0021
3358.00,0.0021
3355.00,0.0021
3352.00,0.0021
3349.00,0.0021
3346.00,0.0021
3343.00,0.0021
3340.00,0.0021
3337.00,0.0021
3334.00,0.0021
3331.00,0.0021
3328.00,0.0021
3325.00,0.0021
3322.00,0.0020
3319.00,0.0021
3316.00,0.0020
3313.00,0.0021
3310.00,0.0021
3307.00,0.0020
3304.00,0.0021
3301.00,0.0021
3298.00,0.0021
3295.00,0.0020
3292.00,0.0021
3289.00,0.0021
3286.00,0.0020
3283.00,0.0020
3280.00,0.0020
3277.00,0.0020
3274.00,0.0020
3271.00,0.0020
3268.00,0.0020
3265.00,0.0020
3262.00,0.0020
3259.00,0.0019
3256.00,0.0019
3253.00,0.0019
3250.00,0.0019
3247.00,0.0019
3244.00,0.0019
3241.00,0.0019
3238.00,0.0019
3235.00,0.0019
3232.00,0.0019
3229.00,0.0019
3226.00,0.0018
3223.00,0.0018
3220.00,0.0018
3217.00,0.0018
3214.00,0.0018
3211.00,0.0019
3208.00,0.0019
3205.00,0.0019
3202.00,0.0019
3199.00,0.0019
3196.00,0.0018
3193.00,0.0018
3190.00,0.0018
3187.00,0.0018
3184.00,0.0017
3181.00,0.0017
3178.00,0.0017
3175.00,0.0017
3172.00,0.0017
3169.00,0.0017
3166.00,0.0018
3163.00,0.0018
3160.00,0.0018
3157.00,0.0018
3154.00,0.0017
3151.00,0.0017
3148.00,0.0016
3145.00,0.0016
3142.00,0.0017
3139.00,0.0017
3136.00,0.0017
3133.00,0.0017
3130.00,0.0017
3127.00,0.0017
3124.00,0.0017
3121.00,0.0018
3118.00,0.0018
3115.00,0.0020
3112.00,0.0022
3109.00,0.0026
3106.00,0.0031
3103.00,0.0033
3100.00,0.0033
3097.00,0.0032
3094.00,0.0033
3091.00,0.0039
3088.00,0.0050
3085.00,0.0065
3082.00,0.0072
3079.00,0.0066
3076.00,0.0057
3073.00,0.0054
3070.00,0.0058
3067.00,0.0068
3064.00,0.0083
3061.00,0.0095
3058.00,0.0095
3055.00,0.0081
3052.00,0.0067
3049.00,0.0057
3046.00,0.0053
3043.00,0.0054
3040.00,0.0060
3037.00,0.0072
3034.00,0.0095
3031.00,0.0128
3028.00,0.0165
3025.00,0.0181
3022.00,0.0159
3019.00,0.0116
3016.00,0.0080
3013.00,0.0059
3010.00,0.0050
3007.00,0.0049
3004.00,0.0053
3001.00,0.0055
2998.00,0.0049
2995.00,0.0040
2992.00,0.0033
2989.00,0.0030
2986.00,0.0030
2983.00,0.0029
2980.00,0.0029
2977.00,0.0030
2974.00,0.0032
2971.00,0.0033
2968.00,0.0035
2965.00,0.0038
2962.00,0.0042
2959.00,0.0047
2956.00,0.0053
2953.00,0.0060
2950.00,0.0068
2947.00,0.0079
2944.00,0.0092
2941.00,0.0108
2938.00,0.0127
2935.00,0.0148
2932.00,0.0171
2929.00,0.0193
2926.00,0.0209
2923.00,0.0218
2920.00,0.0219
2917.00,0.0213
2914.00,0.0202
2911.00,0.0186
2908.00,0.0170
2905.00,0.0154
2902.00,0.0137
2899.00,0.0121
2896.00,0.0107
2893.00,0.0097
2890.00,0.0089
2887.00,0.0082
2884.00,0.0077
2881.00,0.0072
2878.00,0.0067
2875.00,0.0063
2872.00,0.0060
2869.00,0.0060
2866.00,0.0061
2863.00,0.0066
2860.00,0.0073
2857.00,0.0083
2854.00,0.0093
2851.00,0.0100
2848.00,0.0101
2845.00,0.0093
2842.00,0.0079
2839.00,0.0062
2836.00,0.0048
2833.00,0.0039
2830.00,0.0033
2827.00,0.0030
2824.00,0.0028
2821.00,0.0027
2818.00,0.0026
2815.00,0.0026
2812.00,0.0025
2809.00,0.0025
2806.00,0.0024
2803.00,0.0024
2800.00,0.0023
2797.00,0.0023
2794.00,0.0022
2791.00,0.0022
2788.00,0.0021
2785.00,0.0021
2782.00,0.0021
2779.00,0.0021
2776.00,0.0021
2773.00,0.0021
2770.00,0.0020
2767.00,0.0020
2764.00,0.0020
2761.00,0.0019
2758.00,0.0019
2755.00,0.0019
2752.00,0.0019
2749.00,0.0018
2746.00,0.0019
2743.00,0.0019
2740.00,0.0019
2737.00,0.0019
2734.00,0.0019
2731.00,0.0019
2728.00,0.0019
2725.00,0.0019
2722.00,0.0019
2719.00,0.0019
2716.00,0.0019
2713.00,0.0019
2710.00,0.0019
2707.00,0.0019
2704.00,0.0019
2701.00,0.0019
2698.00,0.0019
2695.00,0.0019
2692.00,0.0019
2689.00,0.0019
2686.00,0.0019
2683.00,0.0019
2680.00,0.0019
2677.00,0.0018
2674.00,0.0019
2671.00,0.0019
2668.00,0.0019
2665.00,0.0020
2662.00,0.0021
2659.00,0.0023
2656.00,0.0023
2653.00,0.0023
2650.00,0.0024
2647.00,0.0024
2644.00,0.0024
2641.00,0.0024
2638.00,0.0024
2635.00,0.0024
2632.00,0.0024
2629.00,0.0024
2626.00,0.0023
2623.00,0.0023
2620.00,0.0022
2617.00,0.0022
2614.00,0.0022
2611.00,0.0022
2608.00,0.0022
2605.00,0.0022
2602.00,0.0021
2599.00,0.0020
2596.00,0.0020
2593.00,0.0020
2590.00,0.0019
2587.00,0.0019
2584.00,0.0019
2581.00,0.0020
2578.00,0.0019
2575.00,0.0018
2572.00,0.0018
2569.00,0.0018
2566.00,0.0017
2563.00,0.0017
2560.00,0.0017
2557.00,0.0017
2554.00,0.0017
2551.00,0.0017
2548.00,0.0017
2545.00,0.0016
2542.00,0.0017
2539.00,0.0017
2536.00,0.0016
2533.00,0.0016
2530.00,0.0016
2527.00,0.0016
2524.00,0.0016
2521.00,0.0016
2518.00,0.0016
2515.00,0.0016
2512.00,0.0016
2509.00,0.0015
2506.00,0.0015
2503.00,0.0015
2500.00,0.0015
2497.00,0.0015
2494.00,0.0015
2491.00,0.0015
2488.00,0.0014
2485.00,0.0014
2482.00,0.0015
2479.00,0.0015
2476.00,0.0015
2473.00,0.0014
2470.00,0.0014
2467.00,0.0014
2464.00,0.0014
2461.00,0.0015
2458.00,0.0016
2455.00,0.0015
2452.00,0.0015
2449.00,0.0015
2446.00,0.0014
2443.00,0.0014
2440.00,0.0014
2437.00,0.0014
2434.00,0.0013
2431.00,0.0012
2428.00,0.0012
2425.00,0.0012
2422.00,0.0012
2419.00,0.0012
2416.00,0.0012
2413.00,0.0012
2410.00,0.0012
2407.00,0.0011
2404.00,0.0010
2401.00,0.0011
2398.00,0.0011
2395.00,0.0011
2392.00,0.0010
2389.00,0.0010
2386.00,0.0010
2383.00,0.0009
2380.00,0.0009
2377.00,0.0009
2374.00,0.0009
2371.00,0.0008
2368.00,0.0006
2365.00,0.0008
2362.00,0.0010
2359.00,0.0010
2356.00,0.0011
2353.00,0.0010
2350.00,0.0012
2347.00,0.0013
2344.00,0.0016
2341.00,0.0015
2338.00,0.0016
2335.00,0.0015
2332.00,0.0014
2329.00,0.0017
2326.00,0.0026
2323.00,0.0025
2320.00,0.0020
2317.00,0.0019
2314.00,0.0019
2311.00,0.0019
2308.00,0.0018
2305.00,0.0018
2302.00,0.0017
2299.00,0.0018
2296.00,0.0020
2293.00,0.0022
2290.00,0.0023
2287.00,0.0024
2284.00,0.0023
2281.00,0.0022
2278.00,0.0021
2275.00,0.0018
2272.00,0.0017
2269.00,0.0017
2266.00,0.0016
2263.00,0.0017
2260.00,0.0019
2257.00,0.0017
2254.00,0.0015
2251.00,0.0014
2248.00,0.0014
2245.00,0.0016
2242.00,0.0016
2239.00,0.0015
2236.00,0.0013
2233.00,0.0014
2230.00,0.0014
2227.00,0.0013
2224.00,0.0015
2221.00,0.0015
2218.00,0.0013
2215.00,0.0012
2212.00,0.0012
2209.00,0.0013
2206.00,0.0014
2203.00,0.0016
2200.00,0.0015
2197.00,0.0014
2194.00,0.0014
2191.00,0.0015
2188.00,0.0016
2185.00,0.0015
2182.00,0.0008
2179.00,0.0010
2176.00,0.0007
2173.00,0.0010
2170.00,0.0018
2167.00,0.0022
2164.00,0.0026
2161.00,0.0013
2158.00,-0.0017
2155.00,-0.0010
2152.00,-0.0008
2149.00,-0.0007
2146.00,-0.0003
2143.00,-0.0006
2140.00,-0.0005
2137.00,-0.0009
2134.00,-0.0013
2131.00,-0.0006
2128.00,-0.0003
2125.00,0.0001
2122.00,0.0002
2119.00,0.0006
2116.00,0.0008
2113.00,0.0009
2110.00,0.0011
2107.00,0.0009
2104.00,0.0009
2101.00,0.0010
2098.00,0.0008
2095.00,0.0005
2092.00,0.0006
2089.00,0.0010
2086.00,0.0011
2083.00,0.0012
2080.00,0.0012
2077.00,0.0012
2074.00,0.0011
2071.00,0.0010
2068.00,0.0007
2065.00,0.0008
2062.00,0.0009
2059.00,0.0010
2056.00,0.0008
2053.00,0.0013
2050.00,0.0017
2047.00,0.0010
2044.00,0.0009
2041.00,0.0011
2038.00,0.0011
2035.00,0.0008
2032.00,0.0005
2029.00,0.0005
2026.00,0.0005
2023.00,0.0006
2020.00,0.0005
2017.00,0.0003
2014.00,0.0001
2011.00,0.0004
2008.00,-0.0001
2005.00,-0.0004
2002.00,0.0002
1999.00,0.0005
1996.00,0.0008
1993.00,0.0009
1990.00,0.0011
1987.00,0.0015
1984.00,0.0020
1981.00,0.0026
1978.00,0.0012
1975.00,0.0004
1972.00,0.0002
1969.00,0.0005
1966.00,0.0008
1963.00,0.0010
1960.00,0.0009
1957.00,0.0011
1954.00,0.0015
1951.00,0.0018
1948.00,0.0023
1945.00,0.0026
1942.00,0.0026
1939.00,0.0024
1936.00,0.0021
1933.00,0.0017
1930.00,0.0013
1927.00,0.0009
1924.00,0.0010
1921.00,0.0010
1918.00,0.0008
1915.00,0.0009
1912.00,0.0007
1909.00,0.0008
1906.00,0.0007
1903.00,0.0007
1900.00,0.0009
1897.00,0.0012
1894.00,0.0013
1891.00,0.0016
1888.00,0.0018
1885.00,0.0021
1882.00,0.0023
1879.00,0.0023
1876.00,0.0024
1873.00,0.0026
1870.00,0.0027
1867.00,0.0026
1864.00,0.0024
1861.00,0.0020
1858.00,0.0017
1855.00,0.0014
1852.00,0.0012
1849.00,0.0011
1846.00,0.0010
1843.00,0.0010
1840.00,0.0010
1837.00,0.0011
1834.00,0.0011
1831.00,0.0012
1828.00,0.0014
1825.00,0.0016
1822.00,0.0018
1819.00,0.0019
1816.00,0.0019
1813.00,0.0023
1810.00,0.0027
1807.00,0.0030
1804.00,0.0032
1801.00,0.0032
1798.00,0.0031
1795.00,0.0028
1792.00,0.0023
1789.00,0.0020
1786.00,0.0018
1783.00,0.0017
1780.00,0.0017
1777.00,0.0018
1774.00,0.0019
1771.00,0.0019
1768.00,0.0018
1765.00,0.0020
1762.00,0.0021
1759.00,0.0023
1756.00,0.0026
1753.00,0.0029
1750.00,0.0033
1747.00,0.0034
1744.00,0.0035
1741.00,0.0036
1738.00,0.0036
1735.00,0.0034
1732.00,0.0033
1729.00,0.0031
1726.00,0.0030
1723.00,0.0029
1720.00,0.0029
1717.00,0.0028
1714.00,0.0026
1711.00,0.0026
1708.00,0.0026
1705.00,0.0026
1702.00,0.0026
1699.00,0.0027
1696.00,0.0028
1693.00,0.0029
1690.00,0.0031
1687.00,0.0034
1684.00,0.0036
1681.00,0.0037
1678.00,0.0039
1675.00,0.0041
1672.00,0.0042
1669.00,0.0043
1666.00,0.0043
1663.00,0.0043
1660.00,0.0041
1657.00,0.0040
1654.00,0.0039
1651.00,0.0037
1648.00,0.0034
1645.00,0.0032
1642.00,0.0030
1639.00,0.0030
1636.00,0.0029
1633.00,0.0029
1630.00,0.0029
1627.00,0.0029
1624.00,0.0030
1621.00,0.0032
1618.00,0.0034
1615.00,0.0038
1612.00,0.0045
1609.00,0.0066
1606.00,0.0113
1603.00,0.0174
1600.00,0.0186
1597.00,0.0136
1594.00,0.0090
1591.00,0.0068
1588.00,0.0063
1585.00,0.0079
1582.00,0.0083
1579.00,0.0060
1576.00,0.0044
1573.00,0.0035
1570.00,0.0031
1567.00,0.0029
1564.00,0.0027
1561.00,0.0028
1558.00,0.0028
1555.00,0.0029
1552.00,0.0031
1549.00,0.0034
1546.00,0.0037
1543.00,0.0039
1540.00,0.0038
1537.00,0.0036
1534.00,0.0032
1531.00,0.0029
1528.00,0.0027
1525.00,0.0026
1522.00,0.0027
1519.00,0.0027
1516.00,0.0027
1513.00,0.0029
1510.00,0.0031
1507.00,0.0035
1504.00,0.0048
1501.00,0.0069
1498.00,0.0146
1495.00,0.0359
1492.00,0.0470
1489.00,0.0289
1486.00,0.0152
1483.00,0.0097
1480.00,0.0071
1477.00,0.0061
1474.00,0.0057
1471.00,0.0056
1468.00,0.0059
1465.00,0.0065
1462.00,0.0077
1459.00,0.0109
1456.00,0.0273
1453.00,0.0451
1450.00,0.0452
1447.00,0.0345
1444.00,0.0273
1441.00,0.0214
1438.00,0.0172
1435.00,0.0123
1432.00,0.0095
1429.00,0.0075
1426.00,0.0064
1423.00,0.0058
1420.00,0.0055
1417.00,0.0050
1414.00,0.0048
1411.00,0.0046
1408.00,0.0046
1405.00,0.0046
1402.00,0.0045
1399.00,0.0045
1396.00,0.0048
1393.00,0.0053
1390.00,0.0061
1387.00,0.0072
1384.00,0.0082
1381.00,0.0092
1378.00,0.0101
1375.00,0.0109
1372.00,0.0111
1369.00,0.0111
1366.00,0.0109
1363.00,0.0106
1360.00,0.0102
1357.00,0.0098
1354.00,0.0096
1351.00,0.0094
1348.00,0.0092
1345.00,0.0089
1342.00,0.0085
1339.00,0.0081
1336.00,0.0082
1333.00,0.0088
1330.00,0.0094
1327.00,0.0095
1324.00,0.0091
1321.00,0.0089
1318.00,0.0089
1315.00,0.0092
1312.00,0.0093
1309.00,0.0091
1306.00,0.0087
1303.00,0.0083
1300.00,0.0079
1297.00,0.0078
1294.00,0.0077
1291.00,0.0076
1288.00,0.0073
1285.00,0.0071
1282.00,0.0070
1279.00,0.0068
1276.00,0.0065
1273.00,0.0060
1270.00,0.0057
1267.00,0.0054
1264.00,0.0052
1261.00,0.0051
1258.00,0.0050
1255.00,0.0051
1252.00,0.0052
1249.00,0.0053
1246.00,0.0053
1243.00,0.0053
1240.00,0.0053
1237.00,0.0053
1234.00,0.0052
1231.00,0.0052
1228.00,0.0053
1225.00,0.0054
1222.00,0.0053
1219.00,0.0053
1216.00,0.0054
1213.00,0.0056
1210.00,0.0058
1207.00,0.0062
1204.00,0.0068
1201.00,0.0074
1198.00,0.0079
1195.00,0.0080
1192.00,0.0081
1189.00,0.0083
1186.00,0.0092
1183.00,0.0106
1180.00,0.0109
1177.00,0.0091
1174.00,0.0075
1171.00,0.0069
1168.00,0.0067
1165.00,0.0069
1162.00,0.0074
1159.00,0.0089
1156.00,0.0111
1153.00,0.0110
1150.00,0.0087
1147.00,0.0068
1144.00,0.0059
1141.00,0.0054
1138.00,0.0051
1135.00,0.0049
1132.00,0.0049
1129.00,0.0050
1126.00,0.0051
1123.00,0.0053
1120.00,0.0057
1117.00,0.0063
1114.00,0.0068
1111.00,0.0070
1108.00,0.0069
1105.00,0.0069
1102.00,0.0070
1099.00,0.0072
1096.00,0.0075
1093.00,0.0078
1090.00,0.0081
1087.00,0.0086
1084.00,0.0094
1081.00,0.0105
1078.00,0.0115
1075.00,0.0130
1072.00,0.0149
1069.00,0.0158
1066.00,0.0153
1063.00,0.0137
1060.00,0.0122
1057.00,0.0111
1054.00,0.0102
1051.00,0.0097
1048.00,0.0091
1045.00,0.0088
1042.00,0.0089
1039.00,0.0096
1036.00,0.0125
1033.00,0.0188
1030.00,0.0253
1027.00,0.0267
1024.00,0.0220
1021.00,0.0176
1018.00,0.0149
1015.00,0.0131
1012.00,0.0120
1009.00,0.0114
1006.00,0.0118
1003.00,0.0123
1000.00,0.0109
997.00,0.0093
994.00,0.0089
991.00,0.0090
988.00,0.0094
985.00,0.0101
982.00,0.0108
979.00,0.0109
976.00,0.0103
973.00,0.0100
970.00,0.0104
967.00,0.0113
964.00,0.0118
961.00,0.0111
958.00,0.0096
955.00,0.0086
952.00,0.0084
949.00,0.0086
946.00,0.0090
943.00,0.0092
940.00,0.0090
937.00,0.0083
934.00,0.0074
931.00,0.0068
928.00,0.0066
925.00,0.0068
922.00,0.0072
919.00,0.0080
916.00,0.0095
913.00,0.0124
910.00,0.0159
907.00,0.0180
904.00,0.0171
901.00,0.0137
898.00,0.0101
895.00,0.0080
892.00,0.0069
889.00,0.0064
886.00,0.0059
883.00,0.0055
880.00,0.0054
877.00,0.0052
874.00,0.0050
871.00,0.0049
868.00,0.0048
865.00,0.0047
862.00,0.0047
859.00,0.0047
856.00,0.0049
853.00,0.0054
850.00,0.0064
847.00,0.0079
844.00,0.0092
841.00,0.0098
838.00,0.0089
835.00,0.0072
832.00,0.0057
829.00,0.0049
826.00,0.0046
823.00,0.0044
820.00,0.0045
817.00,0.0046
814.00,0.0047
811.00,0.0046
808.00,0.0047
805.00,0.0052
802.00,0.0054
799.00,0.0058
796.00,0.0065
793.00,0.0076
790.00,0.0090
787.00,0.0107
784.00,0.0126
781.00,0.0154
778.00,0.0194
775.00,0.0250
772.00,0.0324
769.00,0.0415
766.00,0.0507
763.00,0.0596
760.00,0.0688
757.00,0.0762
754.00,0.0781
751.00,0.0771
748.00,0.0760
745.00,0.0697
742.00,0.0554
739.00,0.0413
736.00,0.0301
733.00,0.0204
730.00,0.0140
727.00,0.0110
724.00,0.0100
721.00,0.0097
718.00,0.0103
715.00,0.0122
712.00,0.0178
709.00,0.0321
706.00,0.0614
703.00,0.1080
700.00,0.1679
697.00,0.2265
694.00,0.2367
691.00,0.1709
688.00,0.1087
685.00,0.0763
682.00,0.0585
679.00,0.0475
676.00,0.0408
673.00,0.0367
670.00,0.0335
667.00,0.0292
664.00,0.0266
661.00,0.0237
658.00,0.0209
655.00,0.0185
652.00,0.0166
649.00,0.0151
646.00,0.0140
643.00,0.0132
640.00,0.0132
637.00,0.0140
634.00,0.0150
631.00,0.0159
628.00,0.0168
625.00,0.0172
622.00,0.0182
619.00,0.0180
616.00,0.0165
613.00,0.0155
610.00,0.0147
607.00,0.0145
604.00,0.0144
601.00,0.0147
598.00,0.0152
595.00,0.0157
592.00,0.0164
589.00,0.0170
586.00,0.0177
583.00,0.0186
580.00,0.0205
577.00,0.0234
574.00,0.0263
571.00,0.0296
568.00,0.0328
565.00,0.0361
562.00,0.0389
559.00,0.0418
556.00,0.0453
553.00,0.0495
550.00,0.0542
547.00,0.0600
544.00,0.0675
541.00,0.0753
538.00,0.0793
535.00,0.0750
532.00,0.0644
529.00,0.0532
526.00,0.0435
523.00,0.0366
520.00,0.0318
517.00,0.0286
514.00,0.0262
511.00,0.0240
508.00,0.0220
505.00,0.0205
502.00,0.0186
499.00,0.0171
496.00,0.0164
493.00,0.0159
490.00,0.0154
487.00,0.0143
484.00,0.0139
481.00,0.0137
478.00,0.0137
475.00,0.0125
472.00,0.0128
469.00,0.0125
466.00,0.0119
463.00,0.0110
460.00,0.0113
457.00,0.0117
454.00,0.0108
451.00,0.0102
448.00,0.0109
445.00,0.0109
442.00,0.0104
439.00,0.0105
436.00,0.0107
433.00,0.0101
430.00,0.0094
427.00,0.0087
424.00,0.0081
421.00,0.0092
418.00,0.0081
415.00,0.0097
412.00,0.0095
409.00,0.0108
406.00,0.0103
403.00,0.0098
400.00,0.0102