File: FTIR/Olivia/2025_07_16_Polystyrene_Std_scan2.csv
Created as New Dataset,Sample 832 By YargerLab Date Wednesday, July 16 2025
cm-1,A
4000.00,0.0004
3997.00,0.0004
3994.00,0.0004
3991.00,0.0004
3988.00,0.0004
3985.00,0.0004
3982.00,0.0004
3979.00,0.0004
3976.00,0.0004
3973.00,0.0004
3970.00,0.0004
3967.00,0.0004
3964.00,0.0004
3961.00,0.0004
3958.00,0.0004
3955.00,0.0004
3952.00,0.0004
3949.00,0.0004
3946.00,0.0003
3943.00,0.0003
3940.00,0.0003
3937.00,0.0004
3934.00,0.0004
3931.00,0.0004
3928.00,0.0004
3925.00,0.0003
3922.00,0.0003
3919.00,0.0003
3916.00,0.0003
3913.00,0.0003
3910.00,0.0003
3907.00,0.0002
3904.00,0.0002
3901.00,0.0001
3898.00,0.0002
3895.00,0.0002
3892.00,0.0003
3889.00,0.0003
3886.00,0.0003
3883.00,0.0002
3880.00,0.0001
3877.00,0.0002
3874.00,0.0003
3871.00,0.0002
3868.00,0.0002
3865.00,0.0002
3862.00,0.0002
3859.00,0.0002
3856.00,0.0002
3853.00,0.0001
3850.00,0.0001
3847.00,0.0003
3844.00,0.0003
3841.00,0.0002
3838.00,0.0002
3835.00,0.0002
3832.00,0.0003
3829.00,0.0003
3826.00,0.0003
3823.00,0.0002
3820.00,0.0002
3817.00,0.0002
3814.00,0.0003
3811.00,0.0003
3808.00,0.0003
3805.00,0.0003
3802.00,0.0002
3799.00,0.0002
3796.00,0.0004
3793.00,0.0004
3790.00,0.0004
3787.00,0.0005
3784.00,0.0005
3781.00,0.0004
3778.00,0.0004
3775.00,0.0004
3772.00,0.0004
3769.00,0.0004
3766.00,0.0003
3763.00,0.0003
3760.00,0.0003
3757.00,0.0003
3754.00,0.0002
3751.00,0.0002
3748.00,0.0001
3745.00,0.0001
3742.00,0.0001
3739.00,0.0001
3736.00,0.0000
3733.00,0.0000
3730.00,0.0002
3727.00,0.0002
3724.00,0.0003
3721.00,0.0003
3718.00,0.0003
3715.00,0.0003
3712.00,0.0002
3709.00,0.0001
3706.00,0.0003
3703.00,0.0003
3700.00,0.0002
3697.00,0.0003
3694.00,0.0003
3691.00,0.0002
3688.00,0.0001
3685.00,0.0002
3682.00,0.0004
3679.00,0.0003
3676.00,0.0002
3673.00,0.0001
3670.00,0.0002
3667.00,0.0003
3664.00,0.0004
3661.00,0.0004
3658.00,0.0003
3655.00,0.0003
3652.00,0.0002
3649.00,0.0002
3646.00,0.0003
3643.00,0.0004
3640.00,0.0005
3637.00,0.0004
3634.00,0.0004
3631.00,0.0003
3628.00,0.0002
3625.00,0.0003
3622.00,0.0004
3619.00,0.0004
3616.00,0.0003
3613.00,0.0004
3610.00,0.0004
3607.00,0.0004
3604.00,0.0005
3601.00,0.0006
3598.00,0.0006
3595.00,0.0006
3592.00,0.0006
3589.00,0.0005
3586.00,0.0005
3583.00,0.0006
3580.00,0.0007
3577.00,0.0007
3574.00,0.0008
3571.00,0.0007
3568.00,0.0007
3565.00,0.0007
3562.00,0.0008
3559.00,0.0009
3556.00,0.0010
3553.00,0.0010
3550.00,0.0010
3547.00,0.0010
3544.00,0.0010
3541.00,0.0011
3538.00,0.0012
3535.00,0.0012
3532.00,0.0013
3529.00,0.0013
3526.00,0.0013
3523.00,0.0013
3520.00,0.0013
3517.00,0.0014
3514.00,0.0014
3511.00,0.0015
3508.00,0.0015
3505.00,0.0014
3502.00,0.0014
3499.00,0.0015
3496.00,0.0015
3493.00,0.0015
3490.00,0.0016
3487.00,0.0016
3484.00,0.0016
3481.00,0.0015
3478.00,0.0016
3475.00,0.0016
3472.00,0.0016
3469.00,0.0016
3466.00,0.0016
3463.00,0.0017
3460.00,0.0017
3457.00,0.0016
3454.00,0.0017
3451.00,0.0017
3448.00,0.0017
3445.00,0.0016
3442.00,0.0016
3439.00,0.0018
3436.00,0.0018
3433.00,0.0018
3430.00,0.0017
3427.00,0.0017
3424.00,0.0018
3421.00,0.0018
3418.00,0.0017
3415.00,0.0017
3412.00,0.0018
3409.00,0.0018
3406.00,0.0018
3403.00,0.0018
3400.00,0.0018
3397.00,0.0017
3394.00,0.0017
3391.00,0.0017
3388.00,0.0017
3385.00,0.0017
3382.00,0.0017
3379.00,0.0017
3376.00,0.0017
3373.00,0.0017
3370.00,0.0017
3367.00,0.0016
3364.00,0.0016
3361.00,0.0016
3358.00,0.0016
3355.00,0.0016
3352.00,0.0016
3349.00,0.0016
3346.00,0.0016
3343.00,0.0016
3340.00,0.0016
3337.00,0.0016
3334.00,0.0016
3331.00,0.0016
3328.00,0.0015
3325.00,0.0015
3322.00,0.0015
3319.00,0.0015
3316.00,0.0015
3313.00,0.0015
3310.00,0.0015
3307.00,0.0015
3304.00,0.0015
3301.00,0.0015
3298.00,0.0016
3295.00,0.0015
3292.00,0.0014
3289.00,0.0015
3286.00,0.0015
3283.00,0.0015
3280.00,0.0015
3277.00,0.0015
3274.00,0.0015
3271.00,0.0015
3268.00,0.0015
3265.00,0.0015
3262.00,0.0015
3259.00,0.0015
3256.00,0.0015
3253.00,0.0015
3250.00,0.0015
3247.00,0.0014
3244.00,0.0014
3241.00,0.0014
3238.00,0.0014
3235.00,0.0014
3232.00,0.0014
3229.00,0.0014
3226.00,0.0013
3223.00,0.0013
3220.00,0.0013
3217.00,0.0013
3214.00,0.0013
3211.00,0.0013
3208.00,0.0013
3205.00,0.0013
3202.00,0.0012
3199.00,0.0013
3196.00,0.0013
3193.00,0.0013
3190.00,0.0013
3187.00,0.0012
3184.00,0.0012
3181.00,0.0011
3178.00,0.0012
3175.00,0.0012
3172.00,0.0012
3169.00,0.0012
3166.00,0.0012
3163.00,0.0012
3160.00,0.0012
3157.00,0.0012
3154.00,0.0011
3151.00,0.0010
3148.00,0.0011
3145.00,0.0011
3142.00,0.0012
3139.00,0.0011
3136.00,0.0011
3133.00,0.0011
3130.00,0.0010
3127.00,0.0010
3124.00,0.0011
3121.00,0.0011
3118.00,0.0011
3115.00,0.0012
3112.00,0.0014
3109.00,0.0017
3106.00,0.0020
3103.00,0.0021
3100.00,0.0020
3097.00,0.0019
3094.00,0.0021
3091.00,0.0025
3088.00,0.0031
3085.00,0.0040
3082.00,0.0045
3079.00,0.0041
3076.00,0.0036
3073.00,0.0033
3070.00,0.0036
3067.00,0.0042
3064.00,0.0051
3061.00,0.0058
3058.00,0.0059
3055.00,0.0051
3052.00,0.0042
3049.00,0.0036
3046.00,0.0032
3043.00,0.0032
3040.00,0.0036
3037.00,0.0044
3034.00,0.0058
3031.00,0.0078
3028.00,0.0102
3025.00,0.0113
3022.00,0.0101
3019.00,0.0073
3016.00,0.0049
3013.00,0.0036
3010.00,0.0031
3007.00,0.0031
3004.00,0.0033
3001.00,0.0035
2998.00,0.0032
2995.00,0.0026
2992.00,0.0022
2989.00,0.0020
2986.00,0.0019
2983.00,0.0019
2980.00,0.0019
2977.00,0.0019
2974.00,0.0020
2971.00,0.0021
2968.00,0.0023
2965.00,0.0025
2962.00,0.0027
2959.00,0.0030
2956.00,0.0034
2953.00,0.0038
2950.00,0.0043
2947.00,0.0051
2944.00,0.0060
2941.00,0.0071
2938.00,0.0083
2935.00,0.0096
2932.00,0.0110
2929.00,0.0123
2926.00,0.0133
2923.00,0.0138
2920.00,0.0138
2917.00,0.0134
2914.00,0.0127
2911.00,0.0118
2908.00,0.0107
2905.00,0.0097
2902.00,0.0087
2899.00,0.0077
2896.00,0.0068
2893.00,0.0060
2890.00,0.0055
2887.00,0.0051
2884.00,0.0047
2881.00,0.0044
2878.00,0.0041
2875.00,0.0039
2872.00,0.0037
2869.00,0.0036
2866.00,0.0037
2863.00,0.0040
2860.00,0.0045
2857.00,0.0051
2854.00,0.0057
2851.00,0.0060
2848.00,0.0061
2845.00,0.0056
2842.00,0.0047
2839.00,0.0037
2836.00,0.0028
2833.00,0.0021
2830.00,0.0017
2827.00,0.0015
2824.00,0.0014
2821.00,0.0014
2818.00,0.0013
2815.00,0.0013
2812.00,0.0012
2809.00,0.0012
2806.00,0.0012
2803.00,0.0011
2800.00,0.0011
2797.00,0.0011
2794.00,0.0010
2791.00,0.0010
2788.00,0.0010
2785.00,0.0009
2782.00,0.0009
2779.00,0.0009
2776.00,0.0009
2773.00,0.0009
2770.00,0.0009
2767.00,0.0008
2764.00,0.0008
2761.00,0.0008
2758.00,0.0008
2755.00,0.0008
2752.00,0.0008
2749.00,0.0008
2746.00,0.0008
2743.00,0.0008
2740.00,0.0008
2737.00,0.0008
2734.00,0.0008
2731.00,0.0009
2728.00,0.0009
2725.00,0.0009
2722.00,0.0009
2719.00,0.0009
2716.00,0.0009
2713.00,0.0009
2710.00,0.0008
2707.00,0.0009
2704.00,0.0009
2701.00,0.0008
2698.00,0.0008
2695.00,0.0008
2692.00,0.0008
2689.00,0.0008
2686.00,0.0008
2683.00,0.0008
2680.00,0.0008
2677.00,0.0008
2674.00,0.0008
2671.00,0.0009
2668.00,0.0009
2665.00,0.0010
2662.00,0.0012
2659.00,0.0013
2656.00,0.0013
2653.00,0.0013
2650.00,0.0014
2647.00,0.0014
2644.00,0.0014
2641.00,0.0013
2638.00,0.0014
2635.00,0.0014
2632.00,0.0013
2629.00,0.0013
2626.00,0.0013
2623.00,0.0012
2620.00,0.0012
2617.00,0.0012
2614.00,0.0012
2611.00,0.0011
2608.00,0.0011
2605.00,0.0011
2602.00,0.0011
2599.00,0.0010
2596.00,0.0010
2593.00,0.0009
2590.00,0.0009
2587.00,0.0009
2584.00,0.0009
2581.00,0.0009
2578.00,0.0009
2575.00,0.0008
2572.00,0.0008
2569.00,0.0007
2566.00,0.0007
2563.00,0.0007
2560.00,0.0007
2557.00,0.0007
2554.00,0.0006
2551.00,0.0007
2548.00,0.0007
2545.00,0.0006
2542.00,0.0006
2539.00,0.0007
2536.00,0.0006
2533.00,0.0006
2530.00,0.0006
2527.00,0.0005
2524.00,0.0006
2521.00,0.0006
2518.00,0.0006
2515.00,0.0006
2512.00,0.0006
2509.00,0.0006
2506.00,0.0005
2503.00,0.0005
2500.00,0.0005
2497.00,0.0005
2494.00,0.0005
2491.00,0.0004
2488.00,0.0005
2485.00,0.0005
2482.00,0.0005
2479.00,0.0005
2476.00,0.0005
2473.00,0.0005
2470.00,0.0004
2467.00,0.0004
2464.00,0.0005
2461.00,0.0005
2458.00,0.0006
2455.00,0.0006
2452.00,0.0005
2449.00,0.0005
2446.00,0.0006
2443.00,0.0005
2440.00,0.0003
2437.00,0.0004
2434.00,0.0004
2431.00,0.0003
2428.00,0.0002
2425.00,0.0002
2422.00,0.0003
2419.00,0.0003
2416.00,0.0003
2413.00,0.0003
2410.00,0.0002
2407.00,0.0000
2404.00,0.0000
2401.00,0.0001
2398.00,0.0000
2395.00,0.0000
2392.00,0.0000
2389.00,0.0000
2386.00,0.0000
2383.00,0.0000
2380.00,0.0000
2377.00,0.0001
2374.00,0.0001
2371.00,0.0001
2368.00,0.0001
2365.00,0.0002
2362.00,0.0003
2359.00,0.0003
2356.00,0.0003
2353.00,0.0004
2350.00,0.0005
2347.00,0.0006
2344.00,0.0006
2341.00,0.0008
2338.00,0.0008
2335.00,0.0008
2332.00,0.0008
2329.00,0.0010
2326.00,0.0020
2323.00,0.0019
2320.00,0.0016
2317.00,0.0015
2314.00,0.0012
2311.00,0.0011
2308.00,0.0010
2305.00,0.0009
2302.00,0.0010
2299.00,0.0011
2296.00,0.0012
2293.00,0.0013
2290.00,0.0015
2287.00,0.0017
2284.00,0.0016
2281.00,0.0013
2278.00,0.0012
2275.00,0.0011
2272.00,0.0011
2269.00,0.0011
2266.00,0.0007
2263.00,0.0007
2260.00,0.0009
2257.00,0.0008
2254.00,0.0006
2251.00,0.0007
2248.00,0.0007
2245.00,0.0009
2242.00,0.0009
2239.00,0.0008
2236.00,0.0008
2233.00,0.0007
2230.00,0.0009
2227.00,0.0007
2224.00,0.0007
2221.00,0.0006
2218.00,0.0006
2215.00,0.0009
2212.00,0.0009
2209.00,0.0006
2206.00,0.0005
2203.00,0.0004
2200.00,0.0006
2197.00,0.0006
2194.00,0.0007
2191.00,0.0008
2188.00,0.0009
2185.00,0.0007
2182.00,0.0005
2179.00,0.0006
2176.00,0.0001
2173.00,0.0001
2170.00,0.0010
2167.00,0.0017
2164.00,0.0023
2161.00,0.0005
2158.00,-0.0025
2155.00,-0.0022
2152.00,-0.0015
2149.00,-0.0015
2146.00,-0.0014
2143.00,-0.0012
2140.00,-0.0013
2137.00,-0.0015
2134.00,-0.0023
2131.00,-0.0016
2128.00,-0.0010
2125.00,-0.0008
2122.00,-0.0005
2119.00,-0.0001
2116.00,0.0002
2113.00,0.0003
2110.00,0.0002
2107.00,0.0001
2104.00,0.0001
2101.00,0.0002
2098.00,-0.0000
2095.00,-0.0006
2092.00,-0.0002
2089.00,-0.0000
2086.00,0.0001
2083.00,0.0003
2080.00,0.0003
2077.00,0.0001
2074.00,0.0002
2071.00,0.0002
2068.00,0.0002
2065.00,0.0005
2062.00,-0.0000
2059.00,0.0001
2056.00,0.0002
2053.00,0.0008
2050.00,0.0014
2047.00,0.0005
2044.00,0.0001
2041.00,0.0001
2038.00,0.0006
2035.00,0.0004
2032.00,0.0001
2029.00,-0.0003
2026.00,-0.0007
2023.00,-0.0005
2020.00,-0.0004
2017.00,-0.0006
2014.00,-0.0008
2011.00,-0.0009
2008.00,-0.0009
2005.00,-0.0010
2002.00,-0.0008
1999.00,-0.0005
1996.00,0.0001
1993.00,-0.0001
1990.00,0.0006
1987.00,0.0006
1984.00,0.0008
1981.00,0.0018
1978.00,0.0006
1975.00,-0.0008
1972.00,-0.0005
1969.00,-0.0003
1966.00,-0.0005
1963.00,-0.0005
1960.00,-0.0004
1957.00,-0.0001
1954.00,0.0003
1951.00,0.0004
1948.00,0.0005
1945.00,0.0008
1942.00,0.0008
1939.00,0.0006
1936.00,0.0005
1933.00,0.0002
1930.00,0.0000
1927.00,0.0001
1924.00,-0.0001
1921.00,-0.0001
1918.00,-0.0001
1915.00,-0.0002
1912.00,-0.0003
1909.00,-0.0002
1906.00,-0.0001
1903.00,-0.0001
1900.00,-0.0001
1897.00,0.0002
1894.00,0.0004
1891.00,0.0004
1888.00,0.0005
1885.00,0.0007
1882.00,0.0008
1879.00,0.0008
1876.00,0.0009
1873.00,0.0012
1870.00,0.0012
1867.00,0.0011
1864.00,0.0009
1861.00,0.0007
1858.00,0.0006
1855.00,0.0003
1852.00,0.0002
1849.00,0.0001
1846.00,0.0001
1843.00,0.0001
1840.00,-0.0000
1837.00,0.0001
1834.00,0.0002
1831.00,0.0002
1828.00,0.0003
1825.00,0.0004
1822.00,0.0006
1819.00,0.0005
1816.00,0.0006
1813.00,0.0009
1810.00,0.0012
1807.00,0.0014
1804.00,0.0015
1801.00,0.0015
1798.00,0.0015
1795.00,0.0013
1792.00,0.0011
1789.00,0.0008
1786.00,0.0006
1783.00,0.0006
1780.00,0.0006
1777.00,0.0006
1774.00,0.0006
1771.00,0.0007
1768.00,0.0007
1765.00,0.0008
1762.00,0.0009
1759.00,0.0011
1756.00,0.0013
1753.00,0.0014
1750.00,0.0016
1747.00,0.0018
1744.00,0.0019
1741.00,0.0019
1738.00,0.0020
1735.00,0.0020
1732.00,0.0019
1729.00,0.0017
1726.00,0.0016
1723.00,0.0016
1720.00,0.0015
1717.00,0.0014
1714.00,0.0013
1711.00,0.0013
1708.00,0.0013
1705.00,0.0013
1702.00,0.0014
1699.00,0.0013
1696.00,0.0012
1693.00,0.0012
1690.00,0.0015
1687.00,0.0019
1684.00,0.0020
1681.00,0.0020
1678.00,0.0027
1675.00,0.0030
1672.00,0.0032
1669.00,0.0032
1666.00,0.0033
1663.00,0.0034
1660.00,0.0032
1657.00,0.0036
1654.00,0.0039
1651.00,0.0035
1648.00,0.0042
1645.00,0.0045
1642.00,0.0050
1639.00,0.0054
1636.00,0.0054
1633.00,0.0052
1630.00,0.0047
1627.00,0.0044
1624.00,0.0041
1621.00,0.0039
1618.00,0.0036
1615.00,0.0037
1612.00,0.0040
1609.00,0.0053
1606.00,0.0085
1603.00,0.0125
1600.00,0.0133
1597.00,0.0099
1594.00,0.0066
1591.00,0.0050
1588.00,0.0046
1585.00,0.0057
1582.00,0.0059
1579.00,0.0043
1576.00,0.0030
1573.00,0.0024
1570.00,0.0021
1567.00,0.0019
1564.00,0.0018
1561.00,0.0017
1558.00,0.0019
1555.00,0.0019
1552.00,0.0020
1549.00,0.0021
1546.00,0.0023
1543.00,0.0024
1540.00,0.0023
1537.00,0.0022
1534.00,0.0020
1531.00,0.0018
1528.00,0.0017
1525.00,0.0016
1522.00,0.0016
1519.00,0.0017
1516.00,0.0018
1513.00,0.0020
1510.00,0.0022
1507.00,0.0025
1504.00,0.0033
1501.00,0.0049
1498.00,0.0100
1495.00,0.0242
1492.00,0.0325
1489.00,0.0201
1486.00,0.0105
1483.00,0.0066
1480.00,0.0047
1477.00,0.0041
1474.00,0.0040
1471.00,0.0043
1468.00,0.0048
1465.00,0.0052
1462.00,0.0058
1459.00,0.0079
1456.00,0.0185
1453.00,0.0310
1450.00,0.0317
1447.00,0.0246
1444.00,0.0199
1441.00,0.0159
1438.00,0.0131
1435.00,0.0092
1432.00,0.0070
1429.00,0.0052
1426.00,0.0042
1423.00,0.0035
1420.00,0.0033
1417.00,0.0031
1414.00,0.0032
1411.00,0.0033
1408.00,0.0033
1405.00,0.0033
1402.00,0.0032
1399.00,0.0033
1396.00,0.0035
1393.00,0.0039
1390.00,0.0045
1387.00,0.0052
1384.00,0.0060
1381.00,0.0066
1378.00,0.0072
1375.00,0.0078
1372.00,0.0079
1369.00,0.0079
1366.00,0.0078
1363.00,0.0077
1360.00,0.0074
1357.00,0.0071
1354.00,0.0068
1351.00,0.0067
1348.00,0.0066
1345.00,0.0064
1342.00,0.0060
1339.00,0.0057
1336.00,0.0058
1333.00,0.0062
1330.00,0.0067
1327.00,0.0068
1324.00,0.0067
1321.00,0.0067
1318.00,0.0067
1315.00,0.0069
1312.00,0.0069
1309.00,0.0068
1306.00,0.0065
1303.00,0.0064
1300.00,0.0064
1297.00,0.0067
1294.00,0.0069
1291.00,0.0066
1288.00,0.0057
1285.00,0.0051
1282.00,0.0050
1279.00,0.0052
1276.00,0.0049
1273.00,0.0044
1270.00,0.0038
1267.00,0.0036
1264.00,0.0035
1261.00,0.0036
1258.00,0.0037
1255.00,0.0038
1252.00,0.0039
1249.00,0.0040
1246.00,0.0041
1243.00,0.0041
1240.00,0.0041
1237.00,0.0041
1234.00,0.0040
1231.00,0.0040
1228.00,0.0040
1225.00,0.0040
1222.00,0.0041
1219.00,0.0042
1216.00,0.0043
1213.00,0.0045
1210.00,0.0046
1207.00,0.0050
1204.00,0.0054
1201.00,0.0058
1198.00,0.0061
1195.00,0.0062
1192.00,0.0062
1189.00,0.0064
1186.00,0.0070
1183.00,0.0080
1180.00,0.0082
1177.00,0.0070
1174.00,0.0059
1171.00,0.0054
1168.00,0.0052
1165.00,0.0051
1162.00,0.0055
1159.00,0.0065
1156.00,0.0082
1153.00,0.0082
1150.00,0.0065
1147.00,0.0050
1144.00,0.0044
1141.00,0.0040
1138.00,0.0037
1135.00,0.0036
1132.00,0.0036
1129.00,0.0035
1126.00,0.0036
1123.00,0.0038
1120.00,0.0040
1117.00,0.0044
1114.00,0.0048
1111.00,0.0049
1108.00,0.0047
1105.00,0.0046
1102.00,0.0048
1099.00,0.0051
1096.00,0.0052
1093.00,0.0054
1090.00,0.0057
1087.00,0.0062
1084.00,0.0068
1081.00,0.0075
1078.00,0.0084
1075.00,0.0094
1072.00,0.0107
1069.00,0.0115
1066.00,0.0109
1063.00,0.0097
1060.00,0.0086
1057.00,0.0078
1054.00,0.0073
1051.00,0.0067
1048.00,0.0063
1045.00,0.0061
1042.00,0.0061
1039.00,0.0067
1036.00,0.0088
1033.00,0.0134
1030.00,0.0181
1027.00,0.0192
1024.00,0.0159
1021.00,0.0127
1018.00,0.0105
1015.00,0.0092
1012.00,0.0083
1009.00,0.0080
1006.00,0.0084
1003.00,0.0087
1000.00,0.0076
997.00,0.0064
994.00,0.0062
991.00,0.0062
988.00,0.0066
985.00,0.0072
982.00,0.0077
979.00,0.0079
976.00,0.0075
973.00,0.0073
970.00,0.0076
967.00,0.0083
964.00,0.0087
961.00,0.0080
958.00,0.0069
955.00,0.0063
952.00,0.0060
949.00,0.0063
946.00,0.0067
943.00,0.0069
940.00,0.0067
937.00,0.0061
934.00,0.0055
931.00,0.0049
928.00,0.0048
925.00,0.0050
922.00,0.0054
919.00,0.0060
916.00,0.0072
913.00,0.0093
910.00,0.0120
907.00,0.0138
904.00,0.0131
901.00,0.0104
898.00,0.0077
895.00,0.0060
892.00,0.0051
889.00,0.0046
886.00,0.0042
883.00,0.0040
880.00,0.0039
877.00,0.0038
874.00,0.0037
871.00,0.0036
868.00,0.0036
865.00,0.0036
862.00,0.0036
859.00,0.0037
856.00,0.0039
853.00,0.0042
850.00,0.0051
847.00,0.0062
844.00,0.0071
841.00,0.0074
838.00,0.0067
835.00,0.0053
832.00,0.0041
829.00,0.0035
826.00,0.0035
823.00,0.0035
820.00,0.0035
817.00,0.0035
814.00,0.0036
811.00,0.0037
808.00,0.0038
805.00,0.0038
802.00,0.0042
799.00,0.0046
796.00,0.0051
793.00,0.0060
790.00,0.0069
787.00,0.0083
784.00,0.0098
781.00,0.0116
778.00,0.0147
775.00,0.0188
772.00,0.0242
769.00,0.0308
766.00,0.0376
763.00,0.0442
760.00,0.0514
757.00,0.0571
754.00,0.0592
751.00,0.0587
748.00,0.0584
745.00,0.0540
742.00,0.0434
739.00,0.0324
736.00,0.0236
733.00,0.0160
730.00,0.0110
727.00,0.0087
724.00,0.0078
721.00,0.0075
718.00,0.0080
715.00,0.0095
712.00,0.0134
709.00,0.0238
706.00,0.0449
703.00,0.0782
700.00,0.1195
697.00,0.1610
694.00,0.1784
691.00,0.1404
688.00,0.0929
685.00,0.0653
682.00,0.0501
679.00,0.0407
676.00,0.0346
673.00,0.0306
670.00,0.0282
667.00,0.0251
664.00,0.0226
661.00,0.0201
658.00,0.0177
655.00,0.0161
652.00,0.0145
649.00,0.0131
646.00,0.0120
643.00,0.0114
640.00,0.0114
637.00,0.0117
634.00,0.0125
631.00,0.0133
628.00,0.0141
625.00,0.0145
622.00,0.0151
619.00,0.0149
616.00,0.0137
613.00,0.0131
610.00,0.0128
607.00,0.0123
604.00,0.0121
601.00,0.0123
598.00,0.0125
595.00,0.0130
592.00,0.0139
589.00,0.0144
586.00,0.0145
583.00,0.0153
580.00,0.0170
577.00,0.0189
574.00,0.0214
571.00,0.0238
568.00,0.0265
565.00,0.0289
562.00,0.0316
559.00,0.0341
556.00,0.0367
553.00,0.0398
550.00,0.0435
547.00,0.0483
544.00,0.0544
541.00,0.0614
538.00,0.0654
535.00,0.0636
532.00,0.0548
529.00,0.0453
526.00,0.0370
523.00,0.0310
520.00,0.0272
517.00,0.0244
514.00,0.0220
511.00,0.0204
508.00,0.0190
505.00,0.0173
502.00,0.0157
499.00,0.0149
496.00,0.0144
493.00,0.0141
490.00,0.0134
487.00,0.0130
484.00,0.0121
481.00,0.0112
478.00,0.0111
475.00,0.0113
472.00,0.0113
469.00,0.0112
466.00,0.0111
463.00,0.0115
460.00,0.0110
457.00,0.0112
454.00,0.0106
451.00,0.0101
448.00,0.0103
445.00,0.0096
442.00,0.0092
439.00,0.0099
436.00,0.0091
433.00,0.0080
430.00,0.0076
427.00,0.0075
424.00,0.0079
421.00,0.0085
418.00,0.0080
415.00,0.0086
412.00,0.0101
409.00,0.0074
406.00,0.0069
403.00,0.0062
400.00,0.0075