File: FTIR/Olivia/2025_06_18_Std_Polystyrene_scan3.csv
Created as New Dataset,Sample 694 By YargerLab Date Wednesday, June 18 2025
cm-1,A
4000.00,0.0017
3997.00,0.0017
3994.00,0.0016
3991.00,0.0016
3988.00,0.0016
3985.00,0.0016
3982.00,0.0016
3979.00,0.0016
3976.00,0.0017
3973.00,0.0016
3970.00,0.0016
3967.00,0.0016
3964.00,0.0016
3961.00,0.0016
3958.00,0.0016
3955.00,0.0016
3952.00,0.0016
3949.00,0.0016
3946.00,0.0016
3943.00,0.0016
3940.00,0.0015
3937.00,0.0016
3934.00,0.0016
3931.00,0.0016
3928.00,0.0016
3925.00,0.0015
3922.00,0.0016
3919.00,0.0016
3916.00,0.0016
3913.00,0.0016
3910.00,0.0016
3907.00,0.0016
3904.00,0.0017
3901.00,0.0016
3898.00,0.0016
3895.00,0.0016
3892.00,0.0016
3889.00,0.0017
3886.00,0.0016
3883.00,0.0017
3880.00,0.0016
3877.00,0.0017
3874.00,0.0017
3871.00,0.0017
3868.00,0.0017
3865.00,0.0016
3862.00,0.0016
3859.00,0.0017
3856.00,0.0019
3853.00,0.0018
3850.00,0.0017
3847.00,0.0016
3844.00,0.0016
3841.00,0.0017
3838.00,0.0018
3835.00,0.0017
3832.00,0.0017
3829.00,0.0017
3826.00,0.0016
3823.00,0.0018
3820.00,0.0017
3817.00,0.0018
3814.00,0.0018
3811.00,0.0017
3808.00,0.0017
3805.00,0.0018
3802.00,0.0018
3799.00,0.0018
3796.00,0.0017
3793.00,0.0017
3790.00,0.0016
3787.00,0.0016
3784.00,0.0017
3781.00,0.0017
3778.00,0.0016
3775.00,0.0016
3772.00,0.0017
3769.00,0.0017
3766.00,0.0016
3763.00,0.0017
3760.00,0.0017
3757.00,0.0017
3754.00,0.0018
3751.00,0.0019
3748.00,0.0019
3745.00,0.0018
3742.00,0.0017
3739.00,0.0016
3736.00,0.0016
3733.00,0.0016
3730.00,0.0016
3727.00,0.0016
3724.00,0.0016
3721.00,0.0016
3718.00,0.0016
3715.00,0.0016
3712.00,0.0016
3709.00,0.0016
3706.00,0.0016
3703.00,0.0015
3700.00,0.0015
3697.00,0.0015
3694.00,0.0015
3691.00,0.0016
3688.00,0.0017
3685.00,0.0016
3682.00,0.0015
3679.00,0.0015
3676.00,0.0016
3673.00,0.0017
3670.00,0.0016
3667.00,0.0015
3664.00,0.0014
3661.00,0.0014
3658.00,0.0015
3655.00,0.0015
3652.00,0.0017
3649.00,0.0017
3646.00,0.0016
3643.00,0.0015
3640.00,0.0015
3637.00,0.0014
3634.00,0.0014
3631.00,0.0016
3628.00,0.0015
3625.00,0.0015
3622.00,0.0016
3619.00,0.0016
3616.00,0.0015
3613.00,0.0015
3610.00,0.0015
3607.00,0.0014
3604.00,0.0015
3601.00,0.0014
3598.00,0.0014
3595.00,0.0014
3592.00,0.0014
3589.00,0.0014
3586.00,0.0014
3583.00,0.0014
3580.00,0.0013
3577.00,0.0013
3574.00,0.0013
3571.00,0.0014
3568.00,0.0014
3565.00,0.0014
3562.00,0.0014
3559.00,0.0014
3556.00,0.0014
3553.00,0.0015
3550.00,0.0015
3547.00,0.0015
3544.00,0.0014
3541.00,0.0014
3538.00,0.0015
3535.00,0.0015
3532.00,0.0015
3529.00,0.0015
3526.00,0.0015
3523.00,0.0015
3520.00,0.0015
3517.00,0.0016
3514.00,0.0016
3511.00,0.0016
3508.00,0.0016
3505.00,0.0016
3502.00,0.0016
3499.00,0.0016
3496.00,0.0016
3493.00,0.0016
3490.00,0.0016
3487.00,0.0015
3484.00,0.0016
3481.00,0.0017
3478.00,0.0017
3475.00,0.0016
3472.00,0.0017
3469.00,0.0016
3466.00,0.0017
3463.00,0.0017
3460.00,0.0017
3457.00,0.0017
3454.00,0.0017
3451.00,0.0017
3448.00,0.0018
3445.00,0.0018
3442.00,0.0017
3439.00,0.0018
3436.00,0.0018
3433.00,0.0017
3430.00,0.0017
3427.00,0.0017
3424.00,0.0017
3421.00,0.0017
3418.00,0.0016
3415.00,0.0016
3412.00,0.0016
3409.00,0.0017
3406.00,0.0017
3403.00,0.0018
3400.00,0.0017
3397.00,0.0017
3394.00,0.0017
3391.00,0.0017
3388.00,0.0018
3385.00,0.0018
3382.00,0.0017
3379.00,0.0017
3376.00,0.0016
3373.00,0.0017
3370.00,0.0017
3367.00,0.0016
3364.00,0.0016
3361.00,0.0017
3358.00,0.0017
3355.00,0.0017
3352.00,0.0017
3349.00,0.0016
3346.00,0.0017
3343.00,0.0017
3340.00,0.0017
3337.00,0.0017
3334.00,0.0017
3331.00,0.0017
3328.00,0.0017
3325.00,0.0017
3322.00,0.0017
3319.00,0.0017
3316.00,0.0017
3313.00,0.0017
3310.00,0.0017
3307.00,0.0017
3304.00,0.0016
3301.00,0.0016
3298.00,0.0017
3295.00,0.0017
3292.00,0.0016
3289.00,0.0016
3286.00,0.0016
3283.00,0.0016
3280.00,0.0017
3277.00,0.0016
3274.00,0.0016
3271.00,0.0017
3268.00,0.0016
3265.00,0.0016
3262.00,0.0016
3259.00,0.0016
3256.00,0.0016
3253.00,0.0016
3250.00,0.0016
3247.00,0.0016
3244.00,0.0016
3241.00,0.0016
3238.00,0.0016
3235.00,0.0016
3232.00,0.0016
3229.00,0.0016
3226.00,0.0016
3223.00,0.0016
3220.00,0.0016
3217.00,0.0016
3214.00,0.0016
3211.00,0.0017
3208.00,0.0017
3205.00,0.0018
3202.00,0.0018
3199.00,0.0017
3196.00,0.0017
3193.00,0.0016
3190.00,0.0016
3187.00,0.0016
3184.00,0.0016
3181.00,0.0016
3178.00,0.0016
3175.00,0.0016
3172.00,0.0016
3169.00,0.0017
3166.00,0.0018
3163.00,0.0018
3160.00,0.0018
3157.00,0.0017
3154.00,0.0016
3151.00,0.0017
3148.00,0.0016
3145.00,0.0016
3142.00,0.0016
3139.00,0.0016
3136.00,0.0016
3133.00,0.0016
3130.00,0.0017
3127.00,0.0017
3124.00,0.0018
3121.00,0.0019
3118.00,0.0020
3115.00,0.0023
3112.00,0.0028
3109.00,0.0035
3106.00,0.0043
3103.00,0.0046
3100.00,0.0044
3097.00,0.0043
3094.00,0.0045
3091.00,0.0056
3088.00,0.0077
3085.00,0.0102
3082.00,0.0113
3079.00,0.0102
3076.00,0.0087
3073.00,0.0082
3070.00,0.0089
3067.00,0.0107
3064.00,0.0134
3061.00,0.0155
3058.00,0.0153
3055.00,0.0128
3052.00,0.0103
3049.00,0.0087
3046.00,0.0079
3043.00,0.0081
3040.00,0.0092
3037.00,0.0115
3034.00,0.0155
3031.00,0.0215
3028.00,0.0279
3025.00,0.0305
3022.00,0.0263
3019.00,0.0185
3016.00,0.0124
3013.00,0.0089
3010.00,0.0075
3007.00,0.0073
3004.00,0.0080
3001.00,0.0082
2998.00,0.0071
2995.00,0.0054
2992.00,0.0043
2989.00,0.0038
2986.00,0.0035
2983.00,0.0033
2980.00,0.0032
2977.00,0.0034
2974.00,0.0036
2971.00,0.0037
2968.00,0.0041
2965.00,0.0045
2962.00,0.0051
2959.00,0.0059
2956.00,0.0068
2953.00,0.0080
2950.00,0.0096
2947.00,0.0115
2944.00,0.0138
2941.00,0.0165
2938.00,0.0197
2935.00,0.0234
2932.00,0.0272
2929.00,0.0307
2926.00,0.0333
2923.00,0.0347
2920.00,0.0347
2917.00,0.0335
2914.00,0.0316
2911.00,0.0293
2908.00,0.0267
2905.00,0.0240
2902.00,0.0211
2899.00,0.0185
2896.00,0.0161
2893.00,0.0143
2890.00,0.0131
2887.00,0.0121
2884.00,0.0112
2881.00,0.0104
2878.00,0.0096
2875.00,0.0089
2872.00,0.0085
2869.00,0.0083
2866.00,0.0086
2863.00,0.0094
2860.00,0.0107
2857.00,0.0123
2854.00,0.0139
2851.00,0.0149
2848.00,0.0151
2845.00,0.0141
2842.00,0.0118
2839.00,0.0091
2836.00,0.0068
2833.00,0.0053
2830.00,0.0045
2827.00,0.0040
2824.00,0.0037
2821.00,0.0035
2818.00,0.0035
2815.00,0.0034
2812.00,0.0034
2809.00,0.0033
2806.00,0.0032
2803.00,0.0030
2800.00,0.0030
2797.00,0.0029
2794.00,0.0028
2791.00,0.0028
2788.00,0.0027
2785.00,0.0027
2782.00,0.0027
2779.00,0.0027
2776.00,0.0027
2773.00,0.0026
2770.00,0.0025
2767.00,0.0025
2764.00,0.0025
2761.00,0.0024
2758.00,0.0024
2755.00,0.0024
2752.00,0.0024
2749.00,0.0023
2746.00,0.0023
2743.00,0.0023
2740.00,0.0023
2737.00,0.0023
2734.00,0.0024
2731.00,0.0024
2728.00,0.0024
2725.00,0.0024
2722.00,0.0024
2719.00,0.0024
2716.00,0.0024
2713.00,0.0024
2710.00,0.0024
2707.00,0.0024
2704.00,0.0024
2701.00,0.0024
2698.00,0.0024
2695.00,0.0024
2692.00,0.0024
2689.00,0.0024
2686.00,0.0024
2683.00,0.0024
2680.00,0.0024
2677.00,0.0023
2674.00,0.0023
2671.00,0.0024
2668.00,0.0025
2665.00,0.0026
2662.00,0.0027
2659.00,0.0028
2656.00,0.0028
2653.00,0.0028
2650.00,0.0029
2647.00,0.0029
2644.00,0.0029
2641.00,0.0029
2638.00,0.0029
2635.00,0.0029
2632.00,0.0030
2629.00,0.0029
2626.00,0.0028
2623.00,0.0027
2620.00,0.0026
2617.00,0.0026
2614.00,0.0026
2611.00,0.0026
2608.00,0.0026
2605.00,0.0026
2602.00,0.0026
2599.00,0.0026
2596.00,0.0025
2593.00,0.0024
2590.00,0.0024
2587.00,0.0023
2584.00,0.0024
2581.00,0.0024
2578.00,0.0023
2575.00,0.0022
2572.00,0.0022
2569.00,0.0022
2566.00,0.0022
2563.00,0.0021
2560.00,0.0020
2557.00,0.0020
2554.00,0.0021
2551.00,0.0020
2548.00,0.0020
2545.00,0.0020
2542.00,0.0020
2539.00,0.0019
2536.00,0.0019
2533.00,0.0019
2530.00,0.0019
2527.00,0.0020
2524.00,0.0020
2521.00,0.0020
2518.00,0.0019
2515.00,0.0019
2512.00,0.0020
2509.00,0.0019
2506.00,0.0019
2503.00,0.0019
2500.00,0.0019
2497.00,0.0019
2494.00,0.0019
2491.00,0.0019
2488.00,0.0018
2485.00,0.0018
2482.00,0.0018
2479.00,0.0017
2476.00,0.0017
2473.00,0.0016
2470.00,0.0017
2467.00,0.0017
2464.00,0.0018
2461.00,0.0018
2458.00,0.0018
2455.00,0.0018
2452.00,0.0018
2449.00,0.0018
2446.00,0.0017
2443.00,0.0016
2440.00,0.0016
2437.00,0.0015
2434.00,0.0016
2431.00,0.0016
2428.00,0.0015
2425.00,0.0014
2422.00,0.0014
2419.00,0.0014
2416.00,0.0015
2413.00,0.0015
2410.00,0.0015
2407.00,0.0013
2404.00,0.0012
2401.00,0.0012
2398.00,0.0013
2395.00,0.0013
2392.00,0.0013
2389.00,0.0013
2386.00,0.0013
2383.00,0.0014
2380.00,0.0014
2377.00,0.0014
2374.00,0.0014
2371.00,0.0014
2368.00,0.0015
2365.00,0.0016
2362.00,0.0017
2359.00,0.0018
2356.00,0.0019
2353.00,0.0019
2350.00,0.0020
2347.00,0.0021
2344.00,0.0023
2341.00,0.0024
2338.00,0.0025
2335.00,0.0025
2332.00,0.0024
2329.00,0.0025
2326.00,0.0034
2323.00,0.0034
2320.00,0.0030
2317.00,0.0028
2314.00,0.0028
2311.00,0.0028
2308.00,0.0027
2305.00,0.0026
2302.00,0.0024
2299.00,0.0024
2296.00,0.0025
2293.00,0.0025
2290.00,0.0027
2287.00,0.0028
2284.00,0.0027
2281.00,0.0025
2278.00,0.0022
2275.00,0.0021
2272.00,0.0022
2269.00,0.0022
2266.00,0.0020
2263.00,0.0020
2260.00,0.0021
2257.00,0.0018
2254.00,0.0017
2251.00,0.0019
2248.00,0.0018
2245.00,0.0017
2242.00,0.0018
2239.00,0.0019
2236.00,0.0018
2233.00,0.0017
2230.00,0.0015
2227.00,0.0016
2224.00,0.0018
2221.00,0.0017
2218.00,0.0017
2215.00,0.0015
2212.00,0.0015
2209.00,0.0015
2206.00,0.0014
2203.00,0.0014
2200.00,0.0014
2197.00,0.0014
2194.00,0.0014
2191.00,0.0015
2188.00,0.0016
2185.00,0.0015
2182.00,0.0011
2179.00,0.0012
2176.00,0.0011
2173.00,0.0014
2170.00,0.0020
2167.00,0.0021
2164.00,0.0025
2161.00,0.0009
2158.00,-0.0024
2155.00,-0.0015
2152.00,-0.0004
2149.00,-0.0004
2146.00,-0.0007
2143.00,-0.0004
2140.00,-0.0004
2137.00,-0.0006
2134.00,-0.0010
2131.00,-0.0006
2128.00,-0.0002
2125.00,0.0001
2122.00,0.0004
2119.00,0.0008
2116.00,0.0011
2113.00,0.0012
2110.00,0.0013
2107.00,0.0011
2104.00,0.0012
2101.00,0.0012
2098.00,0.0009
2095.00,0.0003
2092.00,0.0007
2089.00,0.0011
2086.00,0.0011
2083.00,0.0012
2080.00,0.0014
2077.00,0.0012
2074.00,0.0011
2071.00,0.0011
2068.00,0.0009
2065.00,0.0008
2062.00,0.0007
2059.00,0.0008
2056.00,0.0008
2053.00,0.0014
2050.00,0.0016
2047.00,0.0010
2044.00,0.0008
2041.00,0.0010
2038.00,0.0013
2035.00,0.0012
2032.00,0.0005
2029.00,0.0006
2026.00,-0.0000
2023.00,-0.0000
2020.00,0.0000
2017.00,0.0001
2014.00,0.0001
2011.00,0.0004
2008.00,-0.0001
2005.00,-0.0003
2002.00,0.0000
1999.00,0.0008
1996.00,0.0009
1993.00,0.0010
1990.00,0.0013
1987.00,0.0018
1984.00,0.0021
1981.00,0.0027
1978.00,0.0013
1975.00,0.0006
1972.00,0.0007
1969.00,0.0011
1966.00,0.0013
1963.00,0.0018
1960.00,0.0019
1957.00,0.0024
1954.00,0.0030
1951.00,0.0033
1948.00,0.0037
1945.00,0.0042
1942.00,0.0044
1939.00,0.0041
1936.00,0.0034
1933.00,0.0024
1930.00,0.0019
1927.00,0.0017
1924.00,0.0012
1921.00,0.0012
1918.00,0.0010
1915.00,0.0013
1912.00,0.0013
1909.00,0.0012
1906.00,0.0014
1903.00,0.0015
1900.00,0.0015
1897.00,0.0018
1894.00,0.0022
1891.00,0.0026
1888.00,0.0030
1885.00,0.0033
1882.00,0.0035
1879.00,0.0037
1876.00,0.0040
1873.00,0.0042
1870.00,0.0042
1867.00,0.0041
1864.00,0.0039
1861.00,0.0033
1858.00,0.0026
1855.00,0.0021
1852.00,0.0018
1849.00,0.0016
1846.00,0.0015
1843.00,0.0014
1840.00,0.0013
1837.00,0.0014
1834.00,0.0016
1831.00,0.0017
1828.00,0.0020
1825.00,0.0022
1822.00,0.0026
1819.00,0.0028
1816.00,0.0031
1813.00,0.0037
1810.00,0.0041
1807.00,0.0045
1804.00,0.0049
1801.00,0.0048
1798.00,0.0046
1795.00,0.0041
1792.00,0.0034
1789.00,0.0028
1786.00,0.0025
1783.00,0.0024
1780.00,0.0024
1777.00,0.0024
1774.00,0.0025
1771.00,0.0025
1768.00,0.0025
1765.00,0.0026
1762.00,0.0029
1759.00,0.0033
1756.00,0.0037
1753.00,0.0042
1750.00,0.0045
1747.00,0.0048
1744.00,0.0050
1741.00,0.0050
1738.00,0.0048
1735.00,0.0045
1732.00,0.0042
1729.00,0.0039
1726.00,0.0037
1723.00,0.0035
1720.00,0.0034
1717.00,0.0031
1714.00,0.0030
1711.00,0.0030
1708.00,0.0030
1705.00,0.0030
1702.00,0.0030
1699.00,0.0030
1696.00,0.0029
1693.00,0.0030
1690.00,0.0030
1687.00,0.0031
1684.00,0.0033
1681.00,0.0034
1678.00,0.0035
1675.00,0.0036
1672.00,0.0037
1669.00,0.0037
1666.00,0.0038
1663.00,0.0037
1660.00,0.0035
1657.00,0.0033
1654.00,0.0032
1651.00,0.0031
1648.00,0.0028
1645.00,0.0028
1642.00,0.0027
1639.00,0.0027
1636.00,0.0027
1633.00,0.0028
1630.00,0.0028
1627.00,0.0030
1624.00,0.0032
1621.00,0.0034
1618.00,0.0038
1615.00,0.0046
1612.00,0.0059
1609.00,0.0095
1606.00,0.0175
1603.00,0.0276
1600.00,0.0294
1597.00,0.0208
1594.00,0.0133
1591.00,0.0097
1588.00,0.0088
1585.00,0.0115
1582.00,0.0120
1579.00,0.0080
1576.00,0.0054
1573.00,0.0042
1570.00,0.0036
1567.00,0.0032
1564.00,0.0031
1561.00,0.0031
1558.00,0.0032
1555.00,0.0034
1552.00,0.0037
1549.00,0.0041
1546.00,0.0045
1543.00,0.0046
1540.00,0.0046
1537.00,0.0045
1534.00,0.0041
1531.00,0.0037
1528.00,0.0033
1525.00,0.0031
1522.00,0.0031
1519.00,0.0032
1516.00,0.0033
1513.00,0.0036
1510.00,0.0039
1507.00,0.0046
1504.00,0.0066
1501.00,0.0102
1498.00,0.0228
1495.00,0.0588
1492.00,0.0758
1489.00,0.0453
1486.00,0.0234
1483.00,0.0142
1480.00,0.0097
1477.00,0.0078
1474.00,0.0070
1471.00,0.0068
1468.00,0.0072
1465.00,0.0080
1462.00,0.0100
1459.00,0.0154
1456.00,0.0430
1453.00,0.0734
1450.00,0.0722
1447.00,0.0543
1444.00,0.0421
1441.00,0.0322
1438.00,0.0249
1435.00,0.0174
1432.00,0.0129
1429.00,0.0096
1426.00,0.0079
1423.00,0.0069
1420.00,0.0063
1417.00,0.0059
1414.00,0.0057
1411.00,0.0055
1408.00,0.0055
1405.00,0.0054
1402.00,0.0054
1399.00,0.0054
1396.00,0.0058
1393.00,0.0068
1390.00,0.0081
1387.00,0.0096
1384.00,0.0113
1381.00,0.0128
1378.00,0.0142
1375.00,0.0154
1372.00,0.0160
1369.00,0.0159
1366.00,0.0155
1363.00,0.0150
1360.00,0.0144
1357.00,0.0138
1354.00,0.0135
1351.00,0.0134
1348.00,0.0132
1345.00,0.0127
1342.00,0.0119
1339.00,0.0113
1336.00,0.0116
1333.00,0.0126
1330.00,0.0135
1327.00,0.0136
1324.00,0.0130
1321.00,0.0125
1318.00,0.0125
1315.00,0.0130
1312.00,0.0133
1309.00,0.0130
1306.00,0.0123
1303.00,0.0116
1300.00,0.0108
1297.00,0.0104
1294.00,0.0102
1291.00,0.0099
1288.00,0.0096
1285.00,0.0093
1282.00,0.0093
1279.00,0.0090
1276.00,0.0084
1273.00,0.0078
1270.00,0.0073
1267.00,0.0069
1264.00,0.0067
1261.00,0.0066
1258.00,0.0065
1255.00,0.0066
1252.00,0.0067
1249.00,0.0068
1246.00,0.0070
1243.00,0.0070
1240.00,0.0069
1237.00,0.0068
1234.00,0.0067
1231.00,0.0068
1228.00,0.0068
1225.00,0.0069
1222.00,0.0069
1219.00,0.0069
1216.00,0.0071
1213.00,0.0073
1210.00,0.0078
1207.00,0.0084
1204.00,0.0091
1201.00,0.0100
1198.00,0.0106
1195.00,0.0110
1192.00,0.0111
1189.00,0.0115
1186.00,0.0127
1183.00,0.0150
1180.00,0.0152
1177.00,0.0122
1174.00,0.0097
1171.00,0.0086
1168.00,0.0083
1165.00,0.0084
1162.00,0.0092
1159.00,0.0117
1156.00,0.0150
1153.00,0.0149
1150.00,0.0111
1147.00,0.0083
1144.00,0.0070
1141.00,0.0062
1138.00,0.0057
1135.00,0.0055
1132.00,0.0054
1129.00,0.0055
1126.00,0.0056
1123.00,0.0059
1120.00,0.0065
1117.00,0.0072
1114.00,0.0079
1111.00,0.0082
1108.00,0.0081
1105.00,0.0079
1102.00,0.0081
1099.00,0.0085
1096.00,0.0090
1093.00,0.0094
1090.00,0.0099
1087.00,0.0108
1084.00,0.0121
1081.00,0.0136
1078.00,0.0153
1075.00,0.0176
1072.00,0.0205
1069.00,0.0220
1066.00,0.0208
1063.00,0.0182
1060.00,0.0158
1057.00,0.0141
1054.00,0.0127
1051.00,0.0118
1048.00,0.0111
1045.00,0.0107
1042.00,0.0107
1039.00,0.0118
1036.00,0.0163
1033.00,0.0262
1030.00,0.0367
1027.00,0.0389
1024.00,0.0315
1021.00,0.0245
1018.00,0.0203
1015.00,0.0175
1012.00,0.0158
1009.00,0.0148
1006.00,0.0154
1003.00,0.0163
1000.00,0.0141
997.00,0.0119
994.00,0.0112
991.00,0.0114
988.00,0.0120
985.00,0.0132
982.00,0.0144
979.00,0.0147
976.00,0.0139
973.00,0.0132
970.00,0.0139
967.00,0.0155
964.00,0.0163
961.00,0.0150
958.00,0.0128
955.00,0.0115
952.00,0.0111
949.00,0.0115
946.00,0.0122
943.00,0.0127
940.00,0.0121
937.00,0.0110
934.00,0.0097
931.00,0.0089
928.00,0.0086
925.00,0.0089
922.00,0.0096
919.00,0.0108
916.00,0.0134
913.00,0.0176
910.00,0.0230
907.00,0.0264
904.00,0.0249
901.00,0.0194
898.00,0.0140
895.00,0.0107
892.00,0.0091
889.00,0.0083
886.00,0.0076
883.00,0.0071
880.00,0.0068
877.00,0.0065
874.00,0.0063
871.00,0.0061
868.00,0.0060
865.00,0.0059
862.00,0.0060
859.00,0.0062
856.00,0.0063
853.00,0.0069
850.00,0.0086
847.00,0.0110
844.00,0.0130
841.00,0.0137
838.00,0.0122
835.00,0.0094
832.00,0.0072
829.00,0.0062
826.00,0.0059
823.00,0.0057
820.00,0.0055
817.00,0.0057
814.00,0.0059
811.00,0.0061
808.00,0.0064
805.00,0.0066
802.00,0.0069
799.00,0.0076
796.00,0.0087
793.00,0.0103
790.00,0.0125
787.00,0.0151
784.00,0.0181
781.00,0.0223
778.00,0.0284
775.00,0.0372
772.00,0.0485
769.00,0.0626
766.00,0.0769
763.00,0.0906
760.00,0.1052
757.00,0.1165
754.00,0.1190
751.00,0.1173
748.00,0.1156
745.00,0.1050
742.00,0.0824
739.00,0.0604
736.00,0.0433
733.00,0.0288
730.00,0.0191
727.00,0.0148
724.00,0.0134
721.00,0.0132
718.00,0.0137
715.00,0.0168
712.00,0.0253
709.00,0.0466
706.00,0.0913
703.00,0.1644
700.00,0.2644
697.00,0.3707
694.00,0.3795
691.00,0.2553
688.00,0.1558
685.00,0.1071
682.00,0.0812
679.00,0.0656
676.00,0.0561
673.00,0.0497
670.00,0.0451
667.00,0.0401
664.00,0.0356
661.00,0.0311
658.00,0.0271
655.00,0.0238
652.00,0.0212
649.00,0.0193
646.00,0.0179
643.00,0.0170
640.00,0.0171
637.00,0.0181
634.00,0.0194
631.00,0.0210
628.00,0.0219
625.00,0.0224
622.00,0.0239
619.00,0.0237
616.00,0.0215
613.00,0.0203
610.00,0.0195
607.00,0.0185
604.00,0.0182
601.00,0.0188
598.00,0.0194
595.00,0.0202
592.00,0.0213
589.00,0.0220
586.00,0.0233
583.00,0.0249
580.00,0.0274
577.00,0.0312
574.00,0.0360
571.00,0.0406
568.00,0.0450
565.00,0.0500
562.00,0.0542
559.00,0.0589
556.00,0.0642
553.00,0.0694
550.00,0.0760
547.00,0.0860
544.00,0.0968
541.00,0.1072
538.00,0.1132
535.00,0.1058
532.00,0.0888
529.00,0.0727
526.00,0.0589
523.00,0.0483
520.00,0.0427
517.00,0.0373
514.00,0.0334
511.00,0.0312
508.00,0.0277
505.00,0.0248
502.00,0.0234
499.00,0.0214
496.00,0.0197
493.00,0.0191
490.00,0.0176
487.00,0.0167
484.00,0.0168
481.00,0.0156
478.00,0.0149
475.00,0.0150
472.00,0.0144
469.00,0.0133
466.00,0.0140
463.00,0.0147
460.00,0.0130
457.00,0.0121
454.00,0.0126
451.00,0.0128
448.00,0.0128
445.00,0.0125
442.00,0.0117
439.00,0.0111
436.00,0.0116
433.00,0.0110
430.00,0.0098
427.00,0.0105
424.00,0.0118
421.00,0.0080
418.00,0.0093
415.00,0.0115
412.00,0.0094
409.00,0.0120
406.00,0.0150
403.00,0.0080
400.00,0.0070