File: FTIR/Olivia/2025_08_06_1CBN_CBN_MP_Powder_Floraworks3.csv
Created as New Dataset,Sample 010 By YargerLab Date Wednesday, August 06 2025
cm-1,A
4000.00,0.0023
3997.00,0.0023
3994.00,0.0023
3991.00,0.0024
3988.00,0.0023
3985.00,0.0023
3982.00,0.0023
3979.00,0.0023
3976.00,0.0023
3973.00,0.0023
3970.00,0.0023
3967.00,0.0023
3964.00,0.0023
3961.00,0.0023
3958.00,0.0023
3955.00,0.0023
3952.00,0.0024
3949.00,0.0024
3946.00,0.0023
3943.00,0.0023
3940.00,0.0023
3937.00,0.0024
3934.00,0.0024
3931.00,0.0023
3928.00,0.0023
3925.00,0.0024
3922.00,0.0024
3919.00,0.0023
3916.00,0.0023
3913.00,0.0023
3910.00,0.0023
3907.00,0.0024
3904.00,0.0024
3901.00,0.0023
3898.00,0.0023
3895.00,0.0023
3892.00,0.0023
3889.00,0.0023
3886.00,0.0024
3883.00,0.0023
3880.00,0.0023
3877.00,0.0023
3874.00,0.0023
3871.00,0.0023
3868.00,0.0022
3865.00,0.0022
3862.00,0.0023
3859.00,0.0023
3856.00,0.0023
3853.00,0.0023
3850.00,0.0022
3847.00,0.0023
3844.00,0.0023
3841.00,0.0023
3838.00,0.0023
3835.00,0.0023
3832.00,0.0022
3829.00,0.0022
3826.00,0.0023
3823.00,0.0024
3820.00,0.0023
3817.00,0.0022
3814.00,0.0023
3811.00,0.0023
3808.00,0.0024
3805.00,0.0023
3802.00,0.0022
3799.00,0.0023
3796.00,0.0023
3793.00,0.0023
3790.00,0.0023
3787.00,0.0024
3784.00,0.0023
3781.00,0.0023
3778.00,0.0023
3775.00,0.0023
3772.00,0.0024
3769.00,0.0024
3766.00,0.0023
3763.00,0.0024
3760.00,0.0024
3757.00,0.0023
3754.00,0.0023
3751.00,0.0023
3748.00,0.0023
3745.00,0.0023
3742.00,0.0023
3739.00,0.0024
3736.00,0.0022
3733.00,0.0021
3730.00,0.0022
3727.00,0.0023
3724.00,0.0023
3721.00,0.0023
3718.00,0.0023
3715.00,0.0023
3712.00,0.0022
3709.00,0.0022
3706.00,0.0022
3703.00,0.0022
3700.00,0.0023
3697.00,0.0023
3694.00,0.0022
3691.00,0.0022
3688.00,0.0022
3685.00,0.0022
3682.00,0.0023
3679.00,0.0023
3676.00,0.0023
3673.00,0.0022
3670.00,0.0021
3667.00,0.0021
3664.00,0.0022
3661.00,0.0022
3658.00,0.0022
3655.00,0.0023
3652.00,0.0023
3649.00,0.0023
3646.00,0.0022
3643.00,0.0023
3640.00,0.0024
3637.00,0.0024
3634.00,0.0024
3631.00,0.0023
3628.00,0.0024
3625.00,0.0024
3622.00,0.0025
3619.00,0.0025
3616.00,0.0026
3613.00,0.0026
3610.00,0.0026
3607.00,0.0027
3604.00,0.0027
3601.00,0.0026
3598.00,0.0027
3595.00,0.0029
3592.00,0.0029
3589.00,0.0029
3586.00,0.0029
3583.00,0.0030
3580.00,0.0030
3577.00,0.0031
3574.00,0.0032
3571.00,0.0033
3568.00,0.0033
3565.00,0.0033
3562.00,0.0034
3559.00,0.0035
3556.00,0.0035
3553.00,0.0036
3550.00,0.0037
3547.00,0.0038
3544.00,0.0038
3541.00,0.0038
3538.00,0.0040
3535.00,0.0040
3532.00,0.0041
3529.00,0.0042
3526.00,0.0042
3523.00,0.0043
3520.00,0.0045
3517.00,0.0045
3514.00,0.0045
3511.00,0.0046
3508.00,0.0047
3505.00,0.0048
3502.00,0.0048
3499.00,0.0049
3496.00,0.0050
3493.00,0.0051
3490.00,0.0051
3487.00,0.0052
3484.00,0.0053
3481.00,0.0054
3478.00,0.0055
3475.00,0.0056
3472.00,0.0057
3469.00,0.0058
3466.00,0.0059
3463.00,0.0060
3460.00,0.0061
3457.00,0.0062
3454.00,0.0063
3451.00,0.0064
3448.00,0.0065
3445.00,0.0066
3442.00,0.0068
3439.00,0.0069
3436.00,0.0071
3433.00,0.0072
3430.00,0.0073
3427.00,0.0074
3424.00,0.0076
3421.00,0.0078
3418.00,0.0079
3415.00,0.0082
3412.00,0.0083
3409.00,0.0085
3406.00,0.0087
3403.00,0.0088
3400.00,0.0090
3397.00,0.0092
3394.00,0.0092
3391.00,0.0093
3388.00,0.0093
3385.00,0.0092
3382.00,0.0091
3379.00,0.0090
3376.00,0.0090
3373.00,0.0089
3370.00,0.0088
3367.00,0.0087
3364.00,0.0087
3361.00,0.0086
3358.00,0.0086
3355.00,0.0085
3352.00,0.0085
3349.00,0.0085
3346.00,0.0084
3343.00,0.0084
3340.00,0.0084
3337.00,0.0084
3334.00,0.0084
3331.00,0.0084
3328.00,0.0084
3325.00,0.0083
3322.00,0.0084
3319.00,0.0084
3316.00,0.0084
3313.00,0.0085
3310.00,0.0085
3307.00,0.0085
3304.00,0.0086
3301.00,0.0087
3298.00,0.0087
3295.00,0.0088
3292.00,0.0088
3289.00,0.0089
3286.00,0.0091
3283.00,0.0091
3280.00,0.0092
3277.00,0.0092
3274.00,0.0092
3271.00,0.0093
3268.00,0.0093
3265.00,0.0094
3262.00,0.0095
3259.00,0.0096
3256.00,0.0097
3253.00,0.0097
3250.00,0.0098
3247.00,0.0098
3244.00,0.0100
3241.00,0.0100
3238.00,0.0100
3235.00,0.0100
3232.00,0.0100
3229.00,0.0101
3226.00,0.0101
3223.00,0.0101
3220.00,0.0102
3217.00,0.0102
3214.00,0.0102
3211.00,0.0101
3208.00,0.0100
3205.00,0.0100
3202.00,0.0099
3199.00,0.0098
3196.00,0.0097
3193.00,0.0097
3190.00,0.0096
3187.00,0.0095
3184.00,0.0094
3181.00,0.0093
3178.00,0.0093
3175.00,0.0092
3172.00,0.0091
3169.00,0.0090
3166.00,0.0088
3163.00,0.0087
3160.00,0.0086
3157.00,0.0084
3154.00,0.0083
3151.00,0.0083
3148.00,0.0082
3145.00,0.0081
3142.00,0.0079
3139.00,0.0078
3136.00,0.0077
3133.00,0.0076
3130.00,0.0075
3127.00,0.0074
3124.00,0.0074
3121.00,0.0074
3118.00,0.0073
3115.00,0.0071
3112.00,0.0070
3109.00,0.0070
3106.00,0.0069
3103.00,0.0068
3100.00,0.0067
3097.00,0.0066
3094.00,0.0067
3091.00,0.0067
3088.00,0.0067
3085.00,0.0067
3082.00,0.0066
3079.00,0.0066
3076.00,0.0065
3073.00,0.0064
3070.00,0.0064
3067.00,0.0063
3064.00,0.0063
3061.00,0.0062
3058.00,0.0062
3055.00,0.0062
3052.00,0.0061
3049.00,0.0061
3046.00,0.0060
3043.00,0.0060
3040.00,0.0060
3037.00,0.0060
3034.00,0.0060
3031.00,0.0060
3028.00,0.0059
3025.00,0.0058
3022.00,0.0057
3019.00,0.0057
3016.00,0.0057
3013.00,0.0057
3010.00,0.0058
3007.00,0.0059
3004.00,0.0062
3001.00,0.0066
2998.00,0.0071
2995.00,0.0077
2992.00,0.0082
2989.00,0.0088
2986.00,0.0094
2983.00,0.0101
2980.00,0.0110
2977.00,0.0118
2974.00,0.0126
2971.00,0.0136
2968.00,0.0144
2965.00,0.0150
2962.00,0.0156
2959.00,0.0155
2956.00,0.0149
2953.00,0.0142
2950.00,0.0138
2947.00,0.0138
2944.00,0.0142
2941.00,0.0149
2938.00,0.0161
2935.00,0.0176
2932.00,0.0192
2929.00,0.0206
2926.00,0.0209
2923.00,0.0202
2920.00,0.0190
2917.00,0.0177
2914.00,0.0164
2911.00,0.0153
2908.00,0.0144
2905.00,0.0136
2902.00,0.0130
2899.00,0.0126
2896.00,0.0122
2893.00,0.0120
2890.00,0.0117
2887.00,0.0114
2884.00,0.0113
2881.00,0.0114
2878.00,0.0119
2875.00,0.0124
2872.00,0.0127
2869.00,0.0127
2866.00,0.0127
2863.00,0.0133
2860.00,0.0144
2857.00,0.0151
2854.00,0.0148
2851.00,0.0140
2848.00,0.0125
2845.00,0.0110
2842.00,0.0098
2839.00,0.0088
2836.00,0.0082
2833.00,0.0077
2830.00,0.0073
2827.00,0.0070
2824.00,0.0067
2821.00,0.0064
2818.00,0.0062
2815.00,0.0060
2812.00,0.0059
2809.00,0.0058
2806.00,0.0056
2803.00,0.0055
2800.00,0.0055
2797.00,0.0054
2794.00,0.0053
2791.00,0.0052
2788.00,0.0051
2785.00,0.0051
2782.00,0.0050
2779.00,0.0050
2776.00,0.0049
2773.00,0.0048
2770.00,0.0048
2767.00,0.0048
2764.00,0.0048
2761.00,0.0048
2758.00,0.0048
2755.00,0.0047
2752.00,0.0047
2749.00,0.0047
2746.00,0.0048
2743.00,0.0048
2740.00,0.0048
2737.00,0.0049
2734.00,0.0049
2731.00,0.0049
2728.00,0.0049
2725.00,0.0048
2722.00,0.0048
2719.00,0.0048
2716.00,0.0048
2713.00,0.0047
2710.00,0.0047
2707.00,0.0046
2704.00,0.0046
2701.00,0.0046
2698.00,0.0045
2695.00,0.0045
2692.00,0.0045
2689.00,0.0044
2686.00,0.0044
2683.00,0.0043
2680.00,0.0043
2677.00,0.0043
2674.00,0.0043
2671.00,0.0043
2668.00,0.0044
2665.00,0.0045
2662.00,0.0046
2659.00,0.0047
2656.00,0.0048
2653.00,0.0048
2650.00,0.0048
2647.00,0.0048
2644.00,0.0047
2641.00,0.0047
2638.00,0.0047
2635.00,0.0046
2632.00,0.0046
2629.00,0.0045
2626.00,0.0045
2623.00,0.0044
2620.00,0.0044
2617.00,0.0044
2614.00,0.0043
2611.00,0.0044
2608.00,0.0043
2605.00,0.0043
2602.00,0.0042
2599.00,0.0042
2596.00,0.0042
2593.00,0.0042
2590.00,0.0042
2587.00,0.0042
2584.00,0.0042
2581.00,0.0041
2578.00,0.0041
2575.00,0.0041
2572.00,0.0041
2569.00,0.0041
2566.00,0.0040
2563.00,0.0039
2560.00,0.0039
2557.00,0.0038
2554.00,0.0038
2551.00,0.0039
2548.00,0.0038
2545.00,0.0037
2542.00,0.0037
2539.00,0.0037
2536.00,0.0037
2533.00,0.0037
2530.00,0.0037
2527.00,0.0036
2524.00,0.0036
2521.00,0.0035
2518.00,0.0035
2515.00,0.0035
2512.00,0.0034
2509.00,0.0033
2506.00,0.0033
2503.00,0.0033
2500.00,0.0033
2497.00,0.0033
2494.00,0.0032
2491.00,0.0032
2488.00,0.0032
2485.00,0.0033
2482.00,0.0033
2479.00,0.0032
2476.00,0.0032
2473.00,0.0032
2470.00,0.0032
2467.00,0.0032
2464.00,0.0032
2461.00,0.0033
2458.00,0.0033
2455.00,0.0034
2452.00,0.0033
2449.00,0.0032
2446.00,0.0032
2443.00,0.0032
2440.00,0.0032
2437.00,0.0032
2434.00,0.0032
2431.00,0.0031
2428.00,0.0031
2425.00,0.0031
2422.00,0.0030
2419.00,0.0030
2416.00,0.0030
2413.00,0.0030
2410.00,0.0030
2407.00,0.0029
2404.00,0.0029
2401.00,0.0028
2398.00,0.0028
2395.00,0.0028
2392.00,0.0027
2389.00,0.0027
2386.00,0.0027
2383.00,0.0026
2380.00,0.0026
2377.00,0.0026
2374.00,0.0027
2371.00,0.0027
2368.00,0.0027
2365.00,0.0027
2362.00,0.0028
2359.00,0.0029
2356.00,0.0028
2353.00,0.0027
2350.00,0.0029
2347.00,0.0030
2344.00,0.0031
2341.00,0.0032
2338.00,0.0031
2335.00,0.0032
2332.00,0.0031
2329.00,0.0033
2326.00,0.0044
2323.00,0.0041
2320.00,0.0037
2317.00,0.0036
2314.00,0.0033
2311.00,0.0032
2308.00,0.0033
2305.00,0.0033
2302.00,0.0033
2299.00,0.0035
2296.00,0.0037
2293.00,0.0039
2290.00,0.0041
2287.00,0.0042
2284.00,0.0041
2281.00,0.0038
2278.00,0.0038
2275.00,0.0037
2272.00,0.0036
2269.00,0.0034
2266.00,0.0031
2263.00,0.0032
2260.00,0.0033
2257.00,0.0031
2254.00,0.0030
2251.00,0.0031
2248.00,0.0033
2245.00,0.0033
2242.00,0.0034
2239.00,0.0033
2236.00,0.0032
2233.00,0.0032
2230.00,0.0032
2227.00,0.0034
2224.00,0.0032
2221.00,0.0030
2218.00,0.0031
2215.00,0.0032
2212.00,0.0032
2209.00,0.0034
2206.00,0.0034
2203.00,0.0031
2200.00,0.0029
2197.00,0.0029
2194.00,0.0034
2191.00,0.0037
2188.00,0.0036
2185.00,0.0035
2182.00,0.0030
2179.00,0.0031
2176.00,0.0028
2173.00,0.0030
2170.00,0.0037
2167.00,0.0039
2164.00,0.0044
2161.00,0.0029
2158.00,-0.0001
2155.00,0.0005
2152.00,0.0010
2149.00,0.0013
2146.00,0.0014
2143.00,0.0015
2140.00,0.0016
2137.00,0.0010
2134.00,0.0005
2131.00,0.0011
2128.00,0.0017
2125.00,0.0020
2122.00,0.0020
2119.00,0.0022
2116.00,0.0026
2113.00,0.0028
2110.00,0.0026
2107.00,0.0026
2104.00,0.0026
2101.00,0.0028
2098.00,0.0026
2095.00,0.0022
2092.00,0.0024
2089.00,0.0027
2086.00,0.0028
2083.00,0.0029
2080.00,0.0032
2077.00,0.0031
2074.00,0.0030
2071.00,0.0029
2068.00,0.0029
2065.00,0.0031
2062.00,0.0029
2059.00,0.0028
2056.00,0.0029
2053.00,0.0036
2050.00,0.0036
2047.00,0.0026
2044.00,0.0029
2041.00,0.0032
2038.00,0.0033
2035.00,0.0027
2032.00,0.0022
2029.00,0.0021
2026.00,0.0021
2023.00,0.0025
2020.00,0.0027
2017.00,0.0024
2014.00,0.0018
2011.00,0.0019
2008.00,0.0018
2005.00,0.0015
2002.00,0.0020
1999.00,0.0018
1996.00,0.0019
1993.00,0.0026
1990.00,0.0028
1987.00,0.0029
1984.00,0.0035
1981.00,0.0042
1978.00,0.0027
1975.00,0.0020
1972.00,0.0018
1969.00,0.0017
1966.00,0.0017
1963.00,0.0015
1960.00,0.0012
1957.00,0.0015
1954.00,0.0018
1951.00,0.0021
1948.00,0.0021
1945.00,0.0018
1942.00,0.0019
1939.00,0.0020
1936.00,0.0020
1933.00,0.0021
1930.00,0.0019
1927.00,0.0021
1924.00,0.0022
1921.00,0.0024
1918.00,0.0025
1915.00,0.0023
1912.00,0.0023
1909.00,0.0025
1906.00,0.0026
1903.00,0.0025
1900.00,0.0025
1897.00,0.0026
1894.00,0.0027
1891.00,0.0026
1888.00,0.0025
1885.00,0.0025
1882.00,0.0027
1879.00,0.0026
1876.00,0.0025
1873.00,0.0024
1870.00,0.0025
1867.00,0.0025
1864.00,0.0026
1861.00,0.0025
1858.00,0.0025
1855.00,0.0027
1852.00,0.0026
1849.00,0.0026
1846.00,0.0027
1843.00,0.0026
1840.00,0.0027
1837.00,0.0027
1834.00,0.0026
1831.00,0.0027
1828.00,0.0025
1825.00,0.0026
1822.00,0.0027
1819.00,0.0025
1816.00,0.0024
1813.00,0.0025
1810.00,0.0026
1807.00,0.0026
1804.00,0.0027
1801.00,0.0028
1798.00,0.0028
1795.00,0.0029
1792.00,0.0029
1789.00,0.0028
1786.00,0.0030
1783.00,0.0030
1780.00,0.0030
1777.00,0.0029
1774.00,0.0030
1771.00,0.0030
1768.00,0.0031
1765.00,0.0030
1762.00,0.0031
1759.00,0.0032
1756.00,0.0031
1753.00,0.0031
1750.00,0.0032
1747.00,0.0032
1744.00,0.0033
1741.00,0.0033
1738.00,0.0034
1735.00,0.0035
1732.00,0.0035
1729.00,0.0037
1726.00,0.0039
1723.00,0.0042
1720.00,0.0042
1717.00,0.0045
1714.00,0.0048
1711.00,0.0052
1708.00,0.0057
1705.00,0.0065
1702.00,0.0073
1699.00,0.0098
1696.00,0.0126
1693.00,0.0161
1690.00,0.0195
1687.00,0.0226
1684.00,0.0273
1681.00,0.0306
1678.00,0.0320
1675.00,0.0343
1672.00,0.0361
1669.00,0.0397
1666.00,0.0423
1663.00,0.0450
1660.00,0.0480
1657.00,0.0482
1654.00,0.0476
1651.00,0.0487
1648.00,0.0447
1645.00,0.0414
1642.00,0.0370
1639.00,0.0325
1636.00,0.0285
1633.00,0.0261
1630.00,0.0260
1627.00,0.0290
1624.00,0.0327
1621.00,0.0356
1618.00,0.0341
1615.00,0.0306
1612.00,0.0291
1609.00,0.0275
1606.00,0.0236
1603.00,0.0190
1600.00,0.0158
1597.00,0.0143
1594.00,0.0149
1591.00,0.0181
1588.00,0.0226
1585.00,0.0247
1582.00,0.0234
1579.00,0.0207
1576.00,0.0179
1573.00,0.0159
1570.00,0.0145
1567.00,0.0134
1564.00,0.0118
1561.00,0.0103
1558.00,0.0091
1555.00,0.0087
1552.00,0.0084
1549.00,0.0080
1546.00,0.0077
1543.00,0.0073
1540.00,0.0072
1537.00,0.0072
1534.00,0.0071
1531.00,0.0071
1528.00,0.0072
1525.00,0.0073
1522.00,0.0078
1519.00,0.0084
1516.00,0.0092
1513.00,0.0096
1510.00,0.0097
1507.00,0.0100
1504.00,0.0113
1501.00,0.0132
1498.00,0.0171
1495.00,0.0196
1492.00,0.0176
1489.00,0.0144
1486.00,0.0119
1483.00,0.0104
1480.00,0.0097
1477.00,0.0098
1474.00,0.0110
1471.00,0.0149
1468.00,0.0196
1465.00,0.0247
1462.00,0.0269
1459.00,0.0265
1456.00,0.0246
1453.00,0.0225
1450.00,0.0222
1447.00,0.0243
1444.00,0.0275
1441.00,0.0306
1438.00,0.0327
1435.00,0.0355
1432.00,0.0368
1429.00,0.0383
1426.00,0.0394
1423.00,0.0399
1420.00,0.0376
1417.00,0.0327
1414.00,0.0282
1411.00,0.0259
1408.00,0.0263
1405.00,0.0289
1402.00,0.0310
1399.00,0.0300
1396.00,0.0264
1393.00,0.0220
1390.00,0.0197
1387.00,0.0206
1384.00,0.0210
1381.00,0.0219
1378.00,0.0228
1375.00,0.0220
1372.00,0.0199
1369.00,0.0197
1366.00,0.0216
1363.00,0.0233
1360.00,0.0252
1357.00,0.0225
1354.00,0.0191
1351.00,0.0178
1348.00,0.0177
1345.00,0.0173
1342.00,0.0166
1339.00,0.0158
1336.00,0.0155
1333.00,0.0161
1330.00,0.0168
1327.00,0.0172
1324.00,0.0177
1321.00,0.0186
1318.00,0.0189
1315.00,0.0183
1312.00,0.0177
1309.00,0.0182
1306.00,0.0200
1303.00,0.0233
1300.00,0.0266
1297.00,0.0301
1294.00,0.0355
1291.00,0.0401
1288.00,0.0431
1285.00,0.0446
1282.00,0.0430
1279.00,0.0393
1276.00,0.0367
1273.00,0.0352
1270.00,0.0328
1267.00,0.0294
1264.00,0.0257
1261.00,0.0223
1258.00,0.0196
1255.00,0.0178
1252.00,0.0169
1249.00,0.0176
1246.00,0.0196
1243.00,0.0220
1240.00,0.0238
1237.00,0.0260
1234.00,0.0275
1231.00,0.0268
1228.00,0.0249
1225.00,0.0236
1222.00,0.0231
1219.00,0.0234
1216.00,0.0239
1213.00,0.0229
1210.00,0.0202
1207.00,0.0180
1204.00,0.0178
1201.00,0.0197
1198.00,0.0232
1195.00,0.0265
1192.00,0.0259
1189.00,0.0222
1186.00,0.0185
1183.00,0.0160
1180.00,0.0149
1177.00,0.0145
1174.00,0.0145
1171.00,0.0148
1168.00,0.0152
1165.00,0.0161
1162.00,0.0179
1159.00,0.0213
1156.00,0.0258
1153.00,0.0258
1150.00,0.0201
1147.00,0.0157
1144.00,0.0138
1141.00,0.0134
1138.00,0.0143
1135.00,0.0175
1132.00,0.0242
1129.00,0.0296
1126.00,0.0276
1123.00,0.0222
1120.00,0.0178
1117.00,0.0162
1114.00,0.0160
1111.00,0.0155
1108.00,0.0153
1105.00,0.0163
1102.00,0.0194
1099.00,0.0213
1096.00,0.0186
1093.00,0.0150
1090.00,0.0128
1087.00,0.0118
1084.00,0.0112
1081.00,0.0112
1078.00,0.0115
1075.00,0.0120
1072.00,0.0129
1069.00,0.0146
1066.00,0.0171
1063.00,0.0210
1060.00,0.0263
1057.00,0.0328
1054.00,0.0362
1051.00,0.0353
1048.00,0.0324
1045.00,0.0272
1042.00,0.0223
1039.00,0.0198
1036.00,0.0197
1033.00,0.0206
1030.00,0.0242
1027.00,0.0290
1024.00,0.0271
1021.00,0.0224
1018.00,0.0190
1015.00,0.0167
1012.00,0.0152
1009.00,0.0156
1006.00,0.0177
1003.00,0.0193
1000.00,0.0185
997.00,0.0171
994.00,0.0163
991.00,0.0151
988.00,0.0136
985.00,0.0124
982.00,0.0118
979.00,0.0116
976.00,0.0115
973.00,0.0112
970.00,0.0110
967.00,0.0111
964.00,0.0117
961.00,0.0131
958.00,0.0140
955.00,0.0141
952.00,0.0130
949.00,0.0117
946.00,0.0106
943.00,0.0104
940.00,0.0113
937.00,0.0122
934.00,0.0131
931.00,0.0132
928.00,0.0127
925.00,0.0129
922.00,0.0134
919.00,0.0127
916.00,0.0113
913.00,0.0103
910.00,0.0100
907.00,0.0102
904.00,0.0113
901.00,0.0136
898.00,0.0143
895.00,0.0130
892.00,0.0129
889.00,0.0138
886.00,0.0119
883.00,0.0111
880.00,0.0118
877.00,0.0140
874.00,0.0187
871.00,0.0239
868.00,0.0242
865.00,0.0215
862.00,0.0188
859.00,0.0171
856.00,0.0184
853.00,0.0210
850.00,0.0241
847.00,0.0242
844.00,0.0220
841.00,0.0209
838.00,0.0221
835.00,0.0251
832.00,0.0253
829.00,0.0224
826.00,0.0193
823.00,0.0210
820.00,0.0291
817.00,0.0335
814.00,0.0319
811.00,0.0230
808.00,0.0180
805.00,0.0154
802.00,0.0142
799.00,0.0134
796.00,0.0131
793.00,0.0131
790.00,0.0130
787.00,0.0128
784.00,0.0127
781.00,0.0130
778.00,0.0136
775.00,0.0150
772.00,0.0148
769.00,0.0141
766.00,0.0139
763.00,0.0144
760.00,0.0157
757.00,0.0162
754.00,0.0161
751.00,0.0163
748.00,0.0170
745.00,0.0178
742.00,0.0190
739.00,0.0216
736.00,0.0255
733.00,0.0259
730.00,0.0251
727.00,0.0242
724.00,0.0208
721.00,0.0189
718.00,0.0191
715.00,0.0205
712.00,0.0202
709.00,0.0193
706.00,0.0189
703.00,0.0194
700.00,0.0204
697.00,0.0211
694.00,0.0210
691.00,0.0219
688.00,0.0237
685.00,0.0231
682.00,0.0223
679.00,0.0227
676.00,0.0240
673.00,0.0258
670.00,0.0273
667.00,0.0277
664.00,0.0284
661.00,0.0299
658.00,0.0300
655.00,0.0296
652.00,0.0296
649.00,0.0299
646.00,0.0296
643.00,0.0287
640.00,0.0277
637.00,0.0267
634.00,0.0258
631.00,0.0254
628.00,0.0256
625.00,0.0262
622.00,0.0271
619.00,0.0274
616.00,0.0264
613.00,0.0251
610.00,0.0250
607.00,0.0272
604.00,0.0304
601.00,0.0327
598.00,0.0330
595.00,0.0328
592.00,0.0328
589.00,0.0326
586.00,0.0332
583.00,0.0346
580.00,0.0362
577.00,0.0388
574.00,0.0382
571.00,0.0355
568.00,0.0338
565.00,0.0337
562.00,0.0352
559.00,0.0362
556.00,0.0345
553.00,0.0326
550.00,0.0329
547.00,0.0354
544.00,0.0354
541.00,0.0335
538.00,0.0323
535.00,0.0332
532.00,0.0358
529.00,0.0354
526.00,0.0328
523.00,0.0299
520.00,0.0284
517.00,0.0286
514.00,0.0277
511.00,0.0276
508.00,0.0286
505.00,0.0290
502.00,0.0278
499.00,0.0268
496.00,0.0275
493.00,0.0284
490.00,0.0286
487.00,0.0278
484.00,0.0274
481.00,0.0265
478.00,0.0263
475.00,0.0259
472.00,0.0258
469.00,0.0255
466.00,0.0254
463.00,0.0251
460.00,0.0242
457.00,0.0235
454.00,0.0243
451.00,0.0243
448.00,0.0245
445.00,0.0243
442.00,0.0236
439.00,0.0239
436.00,0.0243
433.00,0.0243
430.00,0.0240
427.00,0.0224
424.00,0.0221
421.00,0.0219
418.00,0.0224
415.00,0.0231
412.00,0.0254
409.00,0.0271
406.00,0.0250
403.00,0.0257
400.00,0.0227