File: FTIR/Olivia/2025_07_15_Polystyrene_Std_scan2.csv
Created as New Dataset,Sample 820 By YargerLab Date Tuesday, July 15 2025
cm-1,A
4000.00,0.0019
3997.00,0.0019
3994.00,0.0018
3991.00,0.0018
3988.00,0.0017
3985.00,0.0017
3982.00,0.0018
3979.00,0.0017
3976.00,0.0017
3973.00,0.0018
3970.00,0.0018
3967.00,0.0017
3964.00,0.0017
3961.00,0.0017
3958.00,0.0018
3955.00,0.0017
3952.00,0.0017
3949.00,0.0017
3946.00,0.0017
3943.00,0.0017
3940.00,0.0017
3937.00,0.0017
3934.00,0.0017
3931.00,0.0016
3928.00,0.0016
3925.00,0.0016
3922.00,0.0016
3919.00,0.0016
3916.00,0.0016
3913.00,0.0016
3910.00,0.0017
3907.00,0.0016
3904.00,0.0015
3901.00,0.0014
3898.00,0.0015
3895.00,0.0015
3892.00,0.0016
3889.00,0.0016
3886.00,0.0015
3883.00,0.0014
3880.00,0.0015
3877.00,0.0015
3874.00,0.0015
3871.00,0.0014
3868.00,0.0014
3865.00,0.0014
3862.00,0.0015
3859.00,0.0016
3856.00,0.0015
3853.00,0.0015
3850.00,0.0014
3847.00,0.0015
3844.00,0.0015
3841.00,0.0014
3838.00,0.0014
3835.00,0.0013
3832.00,0.0015
3829.00,0.0016
3826.00,0.0016
3823.00,0.0014
3820.00,0.0015
3817.00,0.0015
3814.00,0.0016
3811.00,0.0016
3808.00,0.0016
3805.00,0.0015
3802.00,0.0014
3799.00,0.0014
3796.00,0.0016
3793.00,0.0017
3790.00,0.0017
3787.00,0.0017
3784.00,0.0016
3781.00,0.0017
3778.00,0.0017
3775.00,0.0017
3772.00,0.0017
3769.00,0.0016
3766.00,0.0016
3763.00,0.0016
3760.00,0.0016
3757.00,0.0015
3754.00,0.0015
3751.00,0.0015
3748.00,0.0014
3745.00,0.0014
3742.00,0.0014
3739.00,0.0015
3736.00,0.0014
3733.00,0.0012
3730.00,0.0014
3727.00,0.0015
3724.00,0.0014
3721.00,0.0015
3718.00,0.0015
3715.00,0.0015
3712.00,0.0013
3709.00,0.0014
3706.00,0.0015
3703.00,0.0016
3700.00,0.0016
3697.00,0.0015
3694.00,0.0015
3691.00,0.0014
3688.00,0.0013
3685.00,0.0013
3682.00,0.0013
3679.00,0.0011
3676.00,0.0008
3673.00,0.0005
3670.00,0.0006
3667.00,0.0007
3664.00,0.0008
3661.00,0.0008
3658.00,0.0007
3655.00,0.0007
3652.00,0.0006
3649.00,0.0006
3646.00,0.0007
3643.00,0.0010
3640.00,0.0011
3637.00,0.0011
3634.00,0.0013
3631.00,0.0014
3628.00,0.0014
3625.00,0.0015
3622.00,0.0016
3619.00,0.0016
3616.00,0.0016
3613.00,0.0016
3610.00,0.0015
3607.00,0.0016
3604.00,0.0018
3601.00,0.0018
3598.00,0.0018
3595.00,0.0018
3592.00,0.0018
3589.00,0.0018
3586.00,0.0018
3583.00,0.0019
3580.00,0.0020
3577.00,0.0020
3574.00,0.0020
3571.00,0.0019
3568.00,0.0018
3565.00,0.0018
3562.00,0.0020
3559.00,0.0021
3556.00,0.0021
3553.00,0.0020
3550.00,0.0021
3547.00,0.0022
3544.00,0.0022
3541.00,0.0022
3538.00,0.0022
3535.00,0.0023
3532.00,0.0023
3529.00,0.0023
3526.00,0.0024
3523.00,0.0024
3520.00,0.0024
3517.00,0.0024
3514.00,0.0024
3511.00,0.0024
3508.00,0.0024
3505.00,0.0025
3502.00,0.0025
3499.00,0.0025
3496.00,0.0026
3493.00,0.0026
3490.00,0.0025
3487.00,0.0025
3484.00,0.0025
3481.00,0.0026
3478.00,0.0027
3475.00,0.0027
3472.00,0.0027
3469.00,0.0027
3466.00,0.0027
3463.00,0.0027
3460.00,0.0027
3457.00,0.0028
3454.00,0.0028
3451.00,0.0027
3448.00,0.0027
3445.00,0.0028
3442.00,0.0028
3439.00,0.0028
3436.00,0.0028
3433.00,0.0028
3430.00,0.0028
3427.00,0.0027
3424.00,0.0027
3421.00,0.0028
3418.00,0.0028
3415.00,0.0028
3412.00,0.0028
3409.00,0.0027
3406.00,0.0028
3403.00,0.0028
3400.00,0.0028
3397.00,0.0028
3394.00,0.0028
3391.00,0.0027
3388.00,0.0027
3385.00,0.0028
3382.00,0.0028
3379.00,0.0028
3376.00,0.0027
3373.00,0.0028
3370.00,0.0028
3367.00,0.0028
3364.00,0.0028
3361.00,0.0028
3358.00,0.0027
3355.00,0.0027
3352.00,0.0027
3349.00,0.0027
3346.00,0.0027
3343.00,0.0027
3340.00,0.0027
3337.00,0.0027
3334.00,0.0027
3331.00,0.0027
3328.00,0.0027
3325.00,0.0027
3322.00,0.0027
3319.00,0.0027
3316.00,0.0027
3313.00,0.0027
3310.00,0.0027
3307.00,0.0027
3304.00,0.0027
3301.00,0.0026
3298.00,0.0026
3295.00,0.0026
3292.00,0.0026
3289.00,0.0026
3286.00,0.0026
3283.00,0.0026
3280.00,0.0026
3277.00,0.0025
3274.00,0.0025
3271.00,0.0026
3268.00,0.0026
3265.00,0.0026
3262.00,0.0025
3259.00,0.0026
3256.00,0.0025
3253.00,0.0025
3250.00,0.0025
3247.00,0.0025
3244.00,0.0025
3241.00,0.0024
3238.00,0.0024
3235.00,0.0024
3232.00,0.0023
3229.00,0.0024
3226.00,0.0024
3223.00,0.0024
3220.00,0.0023
3217.00,0.0023
3214.00,0.0024
3211.00,0.0024
3208.00,0.0025
3205.00,0.0024
3202.00,0.0024
3199.00,0.0024
3196.00,0.0024
3193.00,0.0023
3190.00,0.0023
3187.00,0.0023
3184.00,0.0023
3181.00,0.0023
3178.00,0.0023
3175.00,0.0023
3172.00,0.0023
3169.00,0.0024
3166.00,0.0024
3163.00,0.0025
3160.00,0.0024
3157.00,0.0024
3154.00,0.0023
3151.00,0.0023
3148.00,0.0023
3145.00,0.0023
3142.00,0.0022
3139.00,0.0023
3136.00,0.0022
3133.00,0.0023
3130.00,0.0023
3127.00,0.0023
3124.00,0.0023
3121.00,0.0025
3118.00,0.0027
3115.00,0.0030
3112.00,0.0034
3109.00,0.0042
3106.00,0.0049
3103.00,0.0052
3100.00,0.0051
3097.00,0.0050
3094.00,0.0052
3091.00,0.0064
3088.00,0.0086
3085.00,0.0112
3082.00,0.0122
3079.00,0.0111
3076.00,0.0095
3073.00,0.0090
3070.00,0.0097
3067.00,0.0116
3064.00,0.0144
3061.00,0.0165
3058.00,0.0162
3055.00,0.0137
3052.00,0.0112
3049.00,0.0095
3046.00,0.0087
3043.00,0.0089
3040.00,0.0100
3037.00,0.0124
3034.00,0.0165
3031.00,0.0227
3028.00,0.0293
3025.00,0.0319
3022.00,0.0273
3019.00,0.0192
3016.00,0.0127
3013.00,0.0089
3010.00,0.0070
3007.00,0.0062
3004.00,0.0062
3001.00,0.0057
2998.00,0.0038
2995.00,0.0016
2992.00,0.0002
2989.00,-0.0006
2986.00,-0.0016
2983.00,-0.0039
2980.00,-0.0045
2977.00,-0.0029
2974.00,-0.0022
2971.00,-0.0020
2968.00,-0.0006
2965.00,0.0008
2962.00,0.0020
2959.00,0.0033
2956.00,0.0047
2953.00,0.0063
2950.00,0.0082
2947.00,0.0105
2944.00,0.0133
2941.00,0.0166
2938.00,0.0201
2935.00,0.0241
2932.00,0.0283
2929.00,0.0323
2926.00,0.0354
2923.00,0.0370
2920.00,0.0370
2917.00,0.0356
2914.00,0.0332
2911.00,0.0302
2908.00,0.0271
2905.00,0.0240
2902.00,0.0209
2899.00,0.0180
2896.00,0.0154
2893.00,0.0134
2890.00,0.0119
2887.00,0.0108
2884.00,0.0099
2881.00,0.0094
2878.00,0.0090
2875.00,0.0086
2872.00,0.0082
2869.00,0.0082
2866.00,0.0087
2863.00,0.0097
2860.00,0.0114
2857.00,0.0133
2854.00,0.0151
2851.00,0.0165
2848.00,0.0166
2845.00,0.0152
2842.00,0.0125
2839.00,0.0096
2836.00,0.0072
2833.00,0.0057
2830.00,0.0048
2827.00,0.0043
2824.00,0.0040
2821.00,0.0038
2818.00,0.0037
2815.00,0.0036
2812.00,0.0035
2809.00,0.0035
2806.00,0.0034
2803.00,0.0033
2800.00,0.0032
2797.00,0.0031
2794.00,0.0030
2791.00,0.0030
2788.00,0.0030
2785.00,0.0030
2782.00,0.0029
2779.00,0.0029
2776.00,0.0029
2773.00,0.0028
2770.00,0.0027
2767.00,0.0027
2764.00,0.0027
2761.00,0.0027
2758.00,0.0026
2755.00,0.0026
2752.00,0.0026
2749.00,0.0025
2746.00,0.0025
2743.00,0.0026
2740.00,0.0026
2737.00,0.0026
2734.00,0.0026
2731.00,0.0026
2728.00,0.0026
2725.00,0.0026
2722.00,0.0027
2719.00,0.0027
2716.00,0.0027
2713.00,0.0027
2710.00,0.0026
2707.00,0.0026
2704.00,0.0026
2701.00,0.0027
2698.00,0.0027
2695.00,0.0026
2692.00,0.0026
2689.00,0.0026
2686.00,0.0026
2683.00,0.0026
2680.00,0.0026
2677.00,0.0026
2674.00,0.0026
2671.00,0.0026
2668.00,0.0026
2665.00,0.0027
2662.00,0.0028
2659.00,0.0029
2656.00,0.0030
2653.00,0.0030
2650.00,0.0030
2647.00,0.0030
2644.00,0.0030
2641.00,0.0030
2638.00,0.0030
2635.00,0.0031
2632.00,0.0031
2629.00,0.0031
2626.00,0.0030
2623.00,0.0029
2620.00,0.0029
2617.00,0.0028
2614.00,0.0028
2611.00,0.0029
2608.00,0.0029
2605.00,0.0029
2602.00,0.0029
2599.00,0.0028
2596.00,0.0028
2593.00,0.0026
2590.00,0.0026
2587.00,0.0027
2584.00,0.0027
2581.00,0.0027
2578.00,0.0026
2575.00,0.0025
2572.00,0.0025
2569.00,0.0024
2566.00,0.0024
2563.00,0.0024
2560.00,0.0024
2557.00,0.0024
2554.00,0.0024
2551.00,0.0024
2548.00,0.0023
2545.00,0.0023
2542.00,0.0022
2539.00,0.0022
2536.00,0.0023
2533.00,0.0022
2530.00,0.0021
2527.00,0.0020
2524.00,0.0021
2521.00,0.0021
2518.00,0.0022
2515.00,0.0022
2512.00,0.0022
2509.00,0.0021
2506.00,0.0021
2503.00,0.0021
2500.00,0.0021
2497.00,0.0020
2494.00,0.0020
2491.00,0.0020
2488.00,0.0020
2485.00,0.0020
2482.00,0.0020
2479.00,0.0020
2476.00,0.0020
2473.00,0.0019
2470.00,0.0019
2467.00,0.0019
2464.00,0.0020
2461.00,0.0020
2458.00,0.0021
2455.00,0.0020
2452.00,0.0020
2449.00,0.0019
2446.00,0.0019
2443.00,0.0018
2440.00,0.0018
2437.00,0.0018
2434.00,0.0018
2431.00,0.0017
2428.00,0.0017
2425.00,0.0017
2422.00,0.0017
2419.00,0.0016
2416.00,0.0016
2413.00,0.0016
2410.00,0.0016
2407.00,0.0015
2404.00,0.0015
2401.00,0.0015
2398.00,0.0015
2395.00,0.0015
2392.00,0.0015
2389.00,0.0015
2386.00,0.0015
2383.00,0.0015
2380.00,0.0015
2377.00,0.0015
2374.00,0.0014
2371.00,0.0014
2368.00,0.0014
2365.00,0.0016
2362.00,0.0018
2359.00,0.0018
2356.00,0.0018
2353.00,0.0019
2350.00,0.0020
2347.00,0.0021
2344.00,0.0022
2341.00,0.0024
2338.00,0.0024
2335.00,0.0024
2332.00,0.0023
2329.00,0.0024
2326.00,0.0033
2323.00,0.0033
2320.00,0.0029
2317.00,0.0028
2314.00,0.0027
2311.00,0.0027
2308.00,0.0027
2305.00,0.0025
2302.00,0.0025
2299.00,0.0025
2296.00,0.0026
2293.00,0.0028
2290.00,0.0030
2287.00,0.0030
2284.00,0.0028
2281.00,0.0026
2278.00,0.0026
2275.00,0.0024
2272.00,0.0023
2269.00,0.0024
2266.00,0.0022
2263.00,0.0022
2260.00,0.0024
2257.00,0.0021
2254.00,0.0019
2251.00,0.0019
2248.00,0.0019
2245.00,0.0019
2242.00,0.0020
2239.00,0.0019
2236.00,0.0019
2233.00,0.0018
2230.00,0.0018
2227.00,0.0018
2224.00,0.0016
2221.00,0.0017
2218.00,0.0017
2215.00,0.0018
2212.00,0.0018
2209.00,0.0016
2206.00,0.0016
2203.00,0.0017
2200.00,0.0019
2197.00,0.0018
2194.00,0.0018
2191.00,0.0021
2188.00,0.0023
2185.00,0.0018
2182.00,0.0011
2179.00,0.0013
2176.00,0.0010
2173.00,0.0017
2170.00,0.0026
2167.00,0.0026
2164.00,0.0027
2161.00,0.0015
2158.00,-0.0019
2155.00,-0.0013
2152.00,-0.0004
2149.00,-0.0002
2146.00,-0.0004
2143.00,-0.0004
2140.00,-0.0001
2137.00,-0.0005
2134.00,-0.0009
2131.00,-0.0004
2128.00,0.0001
2125.00,0.0004
2122.00,0.0006
2119.00,0.0009
2116.00,0.0012
2113.00,0.0013
2110.00,0.0012
2107.00,0.0012
2104.00,0.0013
2101.00,0.0013
2098.00,0.0012
2095.00,0.0008
2092.00,0.0010
2089.00,0.0012
2086.00,0.0012
2083.00,0.0012
2080.00,0.0014
2077.00,0.0016
2074.00,0.0014
2071.00,0.0013
2068.00,0.0012
2065.00,0.0010
2062.00,0.0010
2059.00,0.0009
2056.00,0.0011
2053.00,0.0018
2050.00,0.0017
2047.00,0.0009
2044.00,0.0009
2041.00,0.0010
2038.00,0.0013
2035.00,0.0008
2032.00,0.0006
2029.00,0.0003
2026.00,0.0007
2023.00,0.0009
2020.00,0.0007
2017.00,0.0007
2014.00,0.0003
2011.00,0.0006
2008.00,0.0002
2005.00,0.0002
2002.00,0.0004
1999.00,0.0008
1996.00,0.0010
1993.00,0.0013
1990.00,0.0015
1987.00,0.0018
1984.00,0.0021
1981.00,0.0029
1978.00,0.0017
1975.00,0.0009
1972.00,0.0009
1969.00,0.0011
1966.00,0.0016
1963.00,0.0020
1960.00,0.0020
1957.00,0.0024
1954.00,0.0031
1951.00,0.0035
1948.00,0.0042
1945.00,0.0046
1942.00,0.0047
1939.00,0.0044
1936.00,0.0037
1933.00,0.0028
1930.00,0.0021
1927.00,0.0018
1924.00,0.0016
1921.00,0.0015
1918.00,0.0014
1915.00,0.0011
1912.00,0.0013
1909.00,0.0013
1906.00,0.0013
1903.00,0.0014
1900.00,0.0016
1897.00,0.0020
1894.00,0.0024
1891.00,0.0028
1888.00,0.0033
1885.00,0.0035
1882.00,0.0038
1879.00,0.0040
1876.00,0.0041
1873.00,0.0044
1870.00,0.0047
1867.00,0.0045
1864.00,0.0041
1861.00,0.0034
1858.00,0.0028
1855.00,0.0023
1852.00,0.0020
1849.00,0.0019
1846.00,0.0017
1843.00,0.0016
1840.00,0.0015
1837.00,0.0016
1834.00,0.0017
1831.00,0.0020
1828.00,0.0024
1825.00,0.0027
1822.00,0.0028
1819.00,0.0030
1816.00,0.0034
1813.00,0.0039
1810.00,0.0045
1807.00,0.0049
1804.00,0.0053
1801.00,0.0053
1798.00,0.0050
1795.00,0.0044
1792.00,0.0038
1789.00,0.0031
1786.00,0.0028
1783.00,0.0027
1780.00,0.0027
1777.00,0.0028
1774.00,0.0028
1771.00,0.0029
1768.00,0.0030
1765.00,0.0030
1762.00,0.0034
1759.00,0.0037
1756.00,0.0042
1753.00,0.0048
1750.00,0.0054
1747.00,0.0056
1744.00,0.0059
1741.00,0.0058
1738.00,0.0058
1735.00,0.0058
1732.00,0.0054
1729.00,0.0050
1726.00,0.0048
1723.00,0.0046
1720.00,0.0045
1717.00,0.0044
1714.00,0.0042
1711.00,0.0042
1708.00,0.0042
1705.00,0.0042
1702.00,0.0043
1699.00,0.0044
1696.00,0.0044
1693.00,0.0046
1690.00,0.0050
1687.00,0.0053
1684.00,0.0059
1681.00,0.0061
1678.00,0.0063
1675.00,0.0065
1672.00,0.0066
1669.00,0.0067
1666.00,0.0067
1663.00,0.0066
1660.00,0.0063
1657.00,0.0061
1654.00,0.0058
1651.00,0.0054
1648.00,0.0052
1645.00,0.0049
1642.00,0.0046
1639.00,0.0046
1636.00,0.0044
1633.00,0.0043
1630.00,0.0043
1627.00,0.0044
1624.00,0.0045
1621.00,0.0047
1618.00,0.0048
1615.00,0.0056
1612.00,0.0070
1609.00,0.0106
1606.00,0.0188
1603.00,0.0291
1600.00,0.0309
1597.00,0.0221
1594.00,0.0144
1591.00,0.0107
1588.00,0.0098
1585.00,0.0127
1582.00,0.0132
1579.00,0.0093
1576.00,0.0064
1573.00,0.0053
1570.00,0.0046
1567.00,0.0042
1564.00,0.0040
1561.00,0.0040
1558.00,0.0040
1555.00,0.0043
1552.00,0.0048
1549.00,0.0053
1546.00,0.0059
1543.00,0.0061
1540.00,0.0057
1537.00,0.0054
1534.00,0.0050
1531.00,0.0044
1528.00,0.0043
1525.00,0.0040
1522.00,0.0040
1519.00,0.0041
1516.00,0.0043
1513.00,0.0046
1510.00,0.0052
1507.00,0.0057
1504.00,0.0072
1501.00,0.0109
1498.00,0.0240
1495.00,0.0612
1492.00,0.0781
1489.00,0.0463
1486.00,0.0238
1483.00,0.0147
1480.00,0.0104
1477.00,0.0088
1474.00,0.0080
1471.00,0.0079
1468.00,0.0085
1465.00,0.0092
1462.00,0.0110
1459.00,0.0167
1456.00,0.0461
1453.00,0.0760
1450.00,0.0742
1447.00,0.0560
1444.00,0.0437
1441.00,0.0338
1438.00,0.0268
1435.00,0.0190
1432.00,0.0144
1429.00,0.0110
1426.00,0.0094
1423.00,0.0084
1420.00,0.0080
1417.00,0.0072
1414.00,0.0066
1411.00,0.0062
1408.00,0.0059
1405.00,0.0055
1402.00,0.0051
1399.00,0.0049
1396.00,0.0048
1393.00,0.0053
1390.00,0.0065
1387.00,0.0082
1384.00,0.0097
1381.00,0.0112
1378.00,0.0130
1375.00,0.0148
1372.00,0.0156
1369.00,0.0158
1366.00,0.0157
1363.00,0.0157
1360.00,0.0150
1357.00,0.0143
1354.00,0.0140
1351.00,0.0140
1348.00,0.0138
1345.00,0.0133
1342.00,0.0127
1339.00,0.0123
1336.00,0.0124
1333.00,0.0132
1330.00,0.0143
1327.00,0.0145
1324.00,0.0139
1321.00,0.0136
1318.00,0.0137
1315.00,0.0141
1312.00,0.0143
1309.00,0.0140
1306.00,0.0133
1303.00,0.0126
1300.00,0.0120
1297.00,0.0116
1294.00,0.0115
1291.00,0.0112
1288.00,0.0107
1285.00,0.0104
1282.00,0.0102
1279.00,0.0097
1276.00,0.0090
1273.00,0.0080
1270.00,0.0072
1267.00,0.0065
1264.00,0.0061
1261.00,0.0059
1258.00,0.0057
1255.00,0.0056
1252.00,0.0056
1249.00,0.0059
1246.00,0.0062
1243.00,0.0063
1240.00,0.0063
1237.00,0.0062
1234.00,0.0064
1231.00,0.0067
1228.00,0.0070
1225.00,0.0073
1222.00,0.0075
1219.00,0.0076
1216.00,0.0077
1213.00,0.0081
1210.00,0.0087
1207.00,0.0094
1204.00,0.0102
1201.00,0.0111
1198.00,0.0118
1195.00,0.0119
1192.00,0.0120
1189.00,0.0122
1186.00,0.0133
1183.00,0.0154
1180.00,0.0152
1177.00,0.0120
1174.00,0.0092
1171.00,0.0080
1168.00,0.0073
1165.00,0.0072
1162.00,0.0078
1159.00,0.0101
1156.00,0.0132
1153.00,0.0130
1150.00,0.0093
1147.00,0.0065
1144.00,0.0053
1141.00,0.0046
1138.00,0.0043
1135.00,0.0043
1132.00,0.0045
1129.00,0.0046
1126.00,0.0049
1123.00,0.0052
1120.00,0.0059
1117.00,0.0069
1114.00,0.0077
1111.00,0.0080
1108.00,0.0079
1105.00,0.0077
1102.00,0.0078
1099.00,0.0081
1096.00,0.0084
1093.00,0.0088
1090.00,0.0089
1087.00,0.0096
1084.00,0.0108
1081.00,0.0124
1078.00,0.0140
1075.00,0.0163
1072.00,0.0192
1069.00,0.0207
1066.00,0.0199
1063.00,0.0174
1060.00,0.0151
1057.00,0.0136
1054.00,0.0126
1051.00,0.0119
1048.00,0.0114
1045.00,0.0113
1042.00,0.0114
1039.00,0.0125
1036.00,0.0171
1033.00,0.0272
1030.00,0.0375
1027.00,0.0395
1024.00,0.0320
1021.00,0.0250
1018.00,0.0209
1015.00,0.0183
1012.00,0.0165
1009.00,0.0156
1006.00,0.0162
1003.00,0.0169
1000.00,0.0147
997.00,0.0124
994.00,0.0118
991.00,0.0119
988.00,0.0125
985.00,0.0136
982.00,0.0146
979.00,0.0145
976.00,0.0132
973.00,0.0120
970.00,0.0123
967.00,0.0136
964.00,0.0142
961.00,0.0130
958.00,0.0105
955.00,0.0092
952.00,0.0090
949.00,0.0095
946.00,0.0103
943.00,0.0107
940.00,0.0104
937.00,0.0095
934.00,0.0087
931.00,0.0082
928.00,0.0083
925.00,0.0088
922.00,0.0096
919.00,0.0110
916.00,0.0136
913.00,0.0181
910.00,0.0235
907.00,0.0271
904.00,0.0256
901.00,0.0199
898.00,0.0143
895.00,0.0111
892.00,0.0095
889.00,0.0086
886.00,0.0079
883.00,0.0075
880.00,0.0071
877.00,0.0068
874.00,0.0065
871.00,0.0064
868.00,0.0063
865.00,0.0062
862.00,0.0062
859.00,0.0064
856.00,0.0066
853.00,0.0074
850.00,0.0090
847.00,0.0113
844.00,0.0133
841.00,0.0137
838.00,0.0123
835.00,0.0095
832.00,0.0073
829.00,0.0063
826.00,0.0058
823.00,0.0058
820.00,0.0056
817.00,0.0056
814.00,0.0059
811.00,0.0060
808.00,0.0062
805.00,0.0065
802.00,0.0070
799.00,0.0077
796.00,0.0088
793.00,0.0105
790.00,0.0127
787.00,0.0154
784.00,0.0185
781.00,0.0226
778.00,0.0288
775.00,0.0377
772.00,0.0491
769.00,0.0629
766.00,0.0772
763.00,0.0911
760.00,0.1058
757.00,0.1174
754.00,0.1206
751.00,0.1190
748.00,0.1173
745.00,0.1066
742.00,0.0837
739.00,0.0613
736.00,0.0437
733.00,0.0291
730.00,0.0196
727.00,0.0154
724.00,0.0139
721.00,0.0137
718.00,0.0144
715.00,0.0173
712.00,0.0256
709.00,0.0469
706.00,0.0903
703.00,0.1592
700.00,0.2513
697.00,0.3523
694.00,0.3781
691.00,0.2650
688.00,0.1621
685.00,0.1104
682.00,0.0834
679.00,0.0673
676.00,0.0574
673.00,0.0507
670.00,0.0458
667.00,0.0404
664.00,0.0360
661.00,0.0316
658.00,0.0276
655.00,0.0243
652.00,0.0218
649.00,0.0198
646.00,0.0184
643.00,0.0177
640.00,0.0176
637.00,0.0184
634.00,0.0200
631.00,0.0213
628.00,0.0223
625.00,0.0231
622.00,0.0245
619.00,0.0241
616.00,0.0219
613.00,0.0204
610.00,0.0194
607.00,0.0190
604.00,0.0192
601.00,0.0196
598.00,0.0201
595.00,0.0210
592.00,0.0220
589.00,0.0228
586.00,0.0240
583.00,0.0257
580.00,0.0284
577.00,0.0321
574.00,0.0367
571.00,0.0416
568.00,0.0463
565.00,0.0507
562.00,0.0550
559.00,0.0599
556.00,0.0650
553.00,0.0707
550.00,0.0771
547.00,0.0861
544.00,0.0978
541.00,0.1093
538.00,0.1148
535.00,0.1083
532.00,0.0920
529.00,0.0748
526.00,0.0597
523.00,0.0488
520.00,0.0422
517.00,0.0373
514.00,0.0336
511.00,0.0304
508.00,0.0278
505.00,0.0250
502.00,0.0231
499.00,0.0210
496.00,0.0196
493.00,0.0185
490.00,0.0181
487.00,0.0174
484.00,0.0163
481.00,0.0156
478.00,0.0152
475.00,0.0151
472.00,0.0147
469.00,0.0145
466.00,0.0140
463.00,0.0143
460.00,0.0137
457.00,0.0137
454.00,0.0126
451.00,0.0129
448.00,0.0133
445.00,0.0132
442.00,0.0118
439.00,0.0120
436.00,0.0130
433.00,0.0123
430.00,0.0113
427.00,0.0115
424.00,0.0109
421.00,0.0104
418.00,0.0112
415.00,0.0105
412.00,0.0113
409.00,0.0125
406.00,0.0144
403.00,0.0128
400.00,0.0092