File: FTIR/Olivia/2025_08_07_Polystyrene_film_scan3.csv
Created as New Dataset,Sample 014 By YargerLab Date Thursday, August 07 2025
cm-1,A
4000.00,0.0006
3997.00,0.0006
3994.00,0.0005
3991.00,0.0005
3988.00,0.0006
3985.00,0.0006
3982.00,0.0005
3979.00,0.0005
3976.00,0.0005
3973.00,0.0005
3970.00,0.0005
3967.00,0.0006
3964.00,0.0007
3961.00,0.0006
3958.00,0.0006
3955.00,0.0006
3952.00,0.0006
3949.00,0.0006
3946.00,0.0005
3943.00,0.0005
3940.00,0.0006
3937.00,0.0006
3934.00,0.0005
3931.00,0.0006
3928.00,0.0006
3925.00,0.0006
3922.00,0.0006
3919.00,0.0006
3916.00,0.0006
3913.00,0.0006
3910.00,0.0006
3907.00,0.0006
3904.00,0.0006
3901.00,0.0007
3898.00,0.0007
3895.00,0.0006
3892.00,0.0006
3889.00,0.0007
3886.00,0.0007
3883.00,0.0006
3880.00,0.0006
3877.00,0.0006
3874.00,0.0006
3871.00,0.0006
3868.00,0.0007
3865.00,0.0007
3862.00,0.0006
3859.00,0.0006
3856.00,0.0008
3853.00,0.0008
3850.00,0.0007
3847.00,0.0006
3844.00,0.0006
3841.00,0.0007
3838.00,0.0007
3835.00,0.0007
3832.00,0.0007
3829.00,0.0007
3826.00,0.0006
3823.00,0.0007
3820.00,0.0007
3817.00,0.0007
3814.00,0.0007
3811.00,0.0006
3808.00,0.0007
3805.00,0.0007
3802.00,0.0008
3799.00,0.0008
3796.00,0.0007
3793.00,0.0007
3790.00,0.0007
3787.00,0.0007
3784.00,0.0006
3781.00,0.0007
3778.00,0.0006
3775.00,0.0007
3772.00,0.0007
3769.00,0.0007
3766.00,0.0007
3763.00,0.0007
3760.00,0.0007
3757.00,0.0007
3754.00,0.0008
3751.00,0.0008
3748.00,0.0008
3745.00,0.0008
3742.00,0.0007
3739.00,0.0007
3736.00,0.0007
3733.00,0.0007
3730.00,0.0007
3727.00,0.0007
3724.00,0.0006
3721.00,0.0006
3718.00,0.0005
3715.00,0.0006
3712.00,0.0007
3709.00,0.0006
3706.00,0.0006
3703.00,0.0006
3700.00,0.0006
3697.00,0.0005
3694.00,0.0006
3691.00,0.0007
3688.00,0.0007
3685.00,0.0006
3682.00,0.0005
3679.00,0.0006
3676.00,0.0006
3673.00,0.0007
3670.00,0.0007
3667.00,0.0007
3664.00,0.0006
3661.00,0.0006
3658.00,0.0006
3655.00,0.0006
3652.00,0.0007
3649.00,0.0007
3646.00,0.0007
3643.00,0.0006
3640.00,0.0006
3637.00,0.0006
3634.00,0.0006
3631.00,0.0007
3628.00,0.0006
3625.00,0.0006
3622.00,0.0005
3619.00,0.0005
3616.00,0.0006
3613.00,0.0005
3610.00,0.0005
3607.00,0.0005
3604.00,0.0004
3601.00,0.0005
3598.00,0.0005
3595.00,0.0004
3592.00,0.0005
3589.00,0.0005
3586.00,0.0005
3583.00,0.0005
3580.00,0.0005
3577.00,0.0005
3574.00,0.0005
3571.00,0.0005
3568.00,0.0005
3565.00,0.0005
3562.00,0.0005
3559.00,0.0006
3556.00,0.0006
3553.00,0.0005
3550.00,0.0006
3547.00,0.0006
3544.00,0.0006
3541.00,0.0006
3538.00,0.0006
3535.00,0.0007
3532.00,0.0006
3529.00,0.0006
3526.00,0.0007
3523.00,0.0007
3520.00,0.0007
3517.00,0.0007
3514.00,0.0008
3511.00,0.0008
3508.00,0.0007
3505.00,0.0007
3502.00,0.0007
3499.00,0.0007
3496.00,0.0008
3493.00,0.0008
3490.00,0.0008
3487.00,0.0008
3484.00,0.0008
3481.00,0.0008
3478.00,0.0008
3475.00,0.0008
3472.00,0.0008
3469.00,0.0008
3466.00,0.0007
3463.00,0.0007
3460.00,0.0008
3457.00,0.0008
3454.00,0.0008
3451.00,0.0007
3448.00,0.0008
3445.00,0.0009
3442.00,0.0008
3439.00,0.0008
3436.00,0.0008
3433.00,0.0008
3430.00,0.0008
3427.00,0.0008
3424.00,0.0008
3421.00,0.0008
3418.00,0.0008
3415.00,0.0008
3412.00,0.0008
3409.00,0.0008
3406.00,0.0008
3403.00,0.0008
3400.00,0.0008
3397.00,0.0008
3394.00,0.0008
3391.00,0.0009
3388.00,0.0009
3385.00,0.0008
3382.00,0.0008
3379.00,0.0008
3376.00,0.0008
3373.00,0.0008
3370.00,0.0009
3367.00,0.0009
3364.00,0.0008
3361.00,0.0008
3358.00,0.0009
3355.00,0.0009
3352.00,0.0009
3349.00,0.0008
3346.00,0.0008
3343.00,0.0009
3340.00,0.0008
3337.00,0.0008
3334.00,0.0008
3331.00,0.0008
3328.00,0.0008
3325.00,0.0008
3322.00,0.0008
3319.00,0.0008
3316.00,0.0009
3313.00,0.0009
3310.00,0.0008
3307.00,0.0009
3304.00,0.0009
3301.00,0.0008
3298.00,0.0009
3295.00,0.0009
3292.00,0.0009
3289.00,0.0008
3286.00,0.0008
3283.00,0.0008
3280.00,0.0008
3277.00,0.0008
3274.00,0.0008
3271.00,0.0009
3268.00,0.0008
3265.00,0.0008
3262.00,0.0008
3259.00,0.0008
3256.00,0.0008
3253.00,0.0008
3250.00,0.0008
3247.00,0.0008
3244.00,0.0008
3241.00,0.0008
3238.00,0.0008
3235.00,0.0008
3232.00,0.0008
3229.00,0.0008
3226.00,0.0008
3223.00,0.0007
3220.00,0.0008
3217.00,0.0008
3214.00,0.0008
3211.00,0.0007
3208.00,0.0008
3205.00,0.0008
3202.00,0.0008
3199.00,0.0007
3196.00,0.0008
3193.00,0.0007
3190.00,0.0007
3187.00,0.0007
3184.00,0.0007
3181.00,0.0007
3178.00,0.0007
3175.00,0.0007
3172.00,0.0007
3169.00,0.0008
3166.00,0.0008
3163.00,0.0008
3160.00,0.0008
3157.00,0.0008
3154.00,0.0007
3151.00,0.0007
3148.00,0.0007
3145.00,0.0007
3142.00,0.0007
3139.00,0.0007
3136.00,0.0007
3133.00,0.0007
3130.00,0.0007
3127.00,0.0007
3124.00,0.0007
3121.00,0.0008
3118.00,0.0009
3115.00,0.0010
3112.00,0.0013
3109.00,0.0017
3106.00,0.0020
3103.00,0.0021
3100.00,0.0020
3097.00,0.0020
3094.00,0.0023
3091.00,0.0030
3088.00,0.0041
3085.00,0.0050
3082.00,0.0053
3079.00,0.0047
3076.00,0.0041
3073.00,0.0040
3070.00,0.0045
3067.00,0.0053
3064.00,0.0064
3061.00,0.0072
3058.00,0.0070
3055.00,0.0060
3052.00,0.0049
3049.00,0.0042
3046.00,0.0039
3043.00,0.0041
3040.00,0.0048
3037.00,0.0060
3034.00,0.0080
3031.00,0.0106
3028.00,0.0130
3025.00,0.0136
3022.00,0.0115
3019.00,0.0083
3016.00,0.0057
3013.00,0.0044
3010.00,0.0039
3007.00,0.0039
3004.00,0.0042
3001.00,0.0042
2998.00,0.0036
2995.00,0.0029
2992.00,0.0025
2989.00,0.0023
2986.00,0.0022
2983.00,0.0023
2980.00,0.0024
2977.00,0.0024
2974.00,0.0025
2971.00,0.0027
2968.00,0.0029
2965.00,0.0032
2962.00,0.0036
2959.00,0.0041
2956.00,0.0046
2953.00,0.0052
2950.00,0.0059
2947.00,0.0069
2944.00,0.0081
2941.00,0.0095
2938.00,0.0110
2935.00,0.0127
2932.00,0.0143
2929.00,0.0158
2926.00,0.0169
2923.00,0.0174
2920.00,0.0173
2917.00,0.0168
2914.00,0.0158
2911.00,0.0147
2908.00,0.0135
2905.00,0.0122
2902.00,0.0109
2899.00,0.0097
2896.00,0.0086
2893.00,0.0078
2890.00,0.0072
2887.00,0.0067
2884.00,0.0063
2881.00,0.0059
2878.00,0.0055
2875.00,0.0052
2872.00,0.0050
2869.00,0.0050
2866.00,0.0051
2863.00,0.0055
2860.00,0.0062
2857.00,0.0070
2854.00,0.0076
2851.00,0.0080
2848.00,0.0079
2845.00,0.0071
2842.00,0.0059
2839.00,0.0046
2836.00,0.0036
2833.00,0.0029
2830.00,0.0024
2827.00,0.0021
2824.00,0.0019
2821.00,0.0018
2818.00,0.0018
2815.00,0.0017
2812.00,0.0017
2809.00,0.0016
2806.00,0.0016
2803.00,0.0015
2800.00,0.0014
2797.00,0.0014
2794.00,0.0013
2791.00,0.0013
2788.00,0.0013
2785.00,0.0013
2782.00,0.0013
2779.00,0.0013
2776.00,0.0012
2773.00,0.0012
2770.00,0.0012
2767.00,0.0011
2764.00,0.0011
2761.00,0.0011
2758.00,0.0010
2755.00,0.0011
2752.00,0.0011
2749.00,0.0011
2746.00,0.0011
2743.00,0.0011
2740.00,0.0010
2737.00,0.0010
2734.00,0.0010
2731.00,0.0011
2728.00,0.0011
2725.00,0.0011
2722.00,0.0011
2719.00,0.0011
2716.00,0.0011
2713.00,0.0011
2710.00,0.0010
2707.00,0.0010
2704.00,0.0010
2701.00,0.0010
2698.00,0.0010
2695.00,0.0010
2692.00,0.0010
2689.00,0.0010
2686.00,0.0010
2683.00,0.0010
2680.00,0.0010
2677.00,0.0010
2674.00,0.0011
2671.00,0.0011
2668.00,0.0011
2665.00,0.0012
2662.00,0.0013
2659.00,0.0015
2656.00,0.0016
2653.00,0.0016
2650.00,0.0016
2647.00,0.0017
2644.00,0.0016
2641.00,0.0016
2638.00,0.0017
2635.00,0.0017
2632.00,0.0017
2629.00,0.0017
2626.00,0.0016
2623.00,0.0015
2620.00,0.0014
2617.00,0.0015
2614.00,0.0015
2611.00,0.0015
2608.00,0.0015
2605.00,0.0015
2602.00,0.0014
2599.00,0.0013
2596.00,0.0012
2593.00,0.0012
2590.00,0.0012
2587.00,0.0012
2584.00,0.0012
2581.00,0.0012
2578.00,0.0011
2575.00,0.0011
2572.00,0.0010
2569.00,0.0010
2566.00,0.0010
2563.00,0.0010
2560.00,0.0009
2557.00,0.0009
2554.00,0.0009
2551.00,0.0010
2548.00,0.0009
2545.00,0.0009
2542.00,0.0009
2539.00,0.0008
2536.00,0.0008
2533.00,0.0008
2530.00,0.0008
2527.00,0.0008
2524.00,0.0008
2521.00,0.0008
2518.00,0.0008
2515.00,0.0008
2512.00,0.0007
2509.00,0.0008
2506.00,0.0007
2503.00,0.0007
2500.00,0.0007
2497.00,0.0007
2494.00,0.0006
2491.00,0.0007
2488.00,0.0007
2485.00,0.0006
2482.00,0.0006
2479.00,0.0006
2476.00,0.0006
2473.00,0.0006
2470.00,0.0006
2467.00,0.0006
2464.00,0.0007
2461.00,0.0008
2458.00,0.0007
2455.00,0.0007
2452.00,0.0007
2449.00,0.0007
2446.00,0.0006
2443.00,0.0006
2440.00,0.0005
2437.00,0.0005
2434.00,0.0005
2431.00,0.0004
2428.00,0.0004
2425.00,0.0003
2422.00,0.0004
2419.00,0.0004
2416.00,0.0004
2413.00,0.0004
2410.00,0.0003
2407.00,0.0002
2404.00,0.0001
2401.00,0.0002
2398.00,0.0001
2395.00,0.0002
2392.00,0.0001
2389.00,0.0001
2386.00,0.0001
2383.00,0.0001
2380.00,0.0001
2377.00,0.0001
2374.00,0.0001
2371.00,0.0001
2368.00,0.0000
2365.00,0.0000
2362.00,0.0002
2359.00,0.0003
2356.00,0.0003
2353.00,0.0003
2350.00,0.0002
2347.00,0.0006
2344.00,0.0008
2341.00,0.0007
2338.00,0.0008
2335.00,0.0007
2332.00,0.0006
2329.00,0.0009
2326.00,0.0020
2323.00,0.0018
2320.00,0.0014
2317.00,0.0012
2314.00,0.0012
2311.00,0.0011
2308.00,0.0010
2305.00,0.0010
2302.00,0.0010
2299.00,0.0012
2296.00,0.0013
2293.00,0.0015
2290.00,0.0018
2287.00,0.0018
2284.00,0.0015
2281.00,0.0014
2278.00,0.0013
2275.00,0.0012
2272.00,0.0012
2269.00,0.0012
2266.00,0.0010
2263.00,0.0008
2260.00,0.0010
2257.00,0.0008
2254.00,0.0006
2251.00,0.0008
2248.00,0.0009
2245.00,0.0008
2242.00,0.0008
2239.00,0.0008
2236.00,0.0009
2233.00,0.0006
2230.00,0.0006
2227.00,0.0006
2224.00,0.0006
2221.00,0.0006
2218.00,0.0007
2215.00,0.0007
2212.00,0.0008
2209.00,0.0007
2206.00,0.0007
2203.00,0.0006
2200.00,0.0009
2197.00,0.0009
2194.00,0.0009
2191.00,0.0009
2188.00,0.0009
2185.00,0.0006
2182.00,0.0003
2179.00,0.0005
2176.00,-0.0002
2173.00,0.0004
2170.00,0.0013
2167.00,0.0014
2164.00,0.0021
2161.00,0.0002
2158.00,-0.0035
2155.00,-0.0024
2152.00,-0.0016
2149.00,-0.0015
2146.00,-0.0015
2143.00,-0.0014
2140.00,-0.0015
2137.00,-0.0018
2134.00,-0.0020
2131.00,-0.0015
2128.00,-0.0010
2125.00,-0.0006
2122.00,-0.0003
2119.00,-0.0001
2116.00,0.0002
2113.00,0.0003
2110.00,0.0002
2107.00,0.0001
2104.00,0.0000
2101.00,0.0002
2098.00,-0.0001
2095.00,-0.0005
2092.00,-0.0001
2089.00,0.0002
2086.00,0.0004
2083.00,0.0006
2080.00,0.0007
2077.00,0.0005
2074.00,0.0003
2071.00,0.0001
2068.00,0.0002
2065.00,0.0003
2062.00,0.0002
2059.00,0.0003
2056.00,0.0005
2053.00,0.0011
2050.00,0.0010
2047.00,0.0006
2044.00,0.0006
2041.00,0.0005
2038.00,0.0009
2035.00,0.0005
2032.00,-0.0000
2029.00,-0.0004
2026.00,-0.0005
2023.00,-0.0004
2020.00,-0.0004
2017.00,-0.0004
2014.00,-0.0001
2011.00,0.0000
2008.00,-0.0008
2005.00,-0.0011
2002.00,-0.0003
1999.00,0.0001
1996.00,0.0003
1993.00,0.0004
1990.00,0.0002
1987.00,0.0008
1984.00,0.0013
1981.00,0.0017
1978.00,0.0001
1975.00,-0.0005
1972.00,-0.0005
1969.00,-0.0004
1966.00,0.0000
1963.00,0.0001
1960.00,-0.0002
1957.00,-0.0001
1954.00,0.0006
1951.00,0.0009
1948.00,0.0011
1945.00,0.0015
1942.00,0.0013
1939.00,0.0012
1936.00,0.0008
1933.00,0.0005
1930.00,0.0003
1927.00,0.0000
1924.00,0.0001
1921.00,0.0002
1918.00,-0.0000
1915.00,-0.0001
1912.00,-0.0000
1909.00,0.0001
1906.00,0.0001
1903.00,0.0003
1900.00,0.0003
1897.00,0.0005
1894.00,0.0007
1891.00,0.0008
1888.00,0.0009
1885.00,0.0011
1882.00,0.0012
1879.00,0.0013
1876.00,0.0014
1873.00,0.0015
1870.00,0.0015
1867.00,0.0014
1864.00,0.0013
1861.00,0.0010
1858.00,0.0008
1855.00,0.0005
1852.00,0.0004
1849.00,0.0003
1846.00,0.0002
1843.00,0.0002
1840.00,0.0002
1837.00,0.0002
1834.00,0.0003
1831.00,0.0004
1828.00,0.0006
1825.00,0.0007
1822.00,0.0008
1819.00,0.0008
1816.00,0.0009
1813.00,0.0012
1810.00,0.0015
1807.00,0.0018
1804.00,0.0019
1801.00,0.0019
1798.00,0.0018
1795.00,0.0016
1792.00,0.0014
1789.00,0.0012
1786.00,0.0010
1783.00,0.0009
1780.00,0.0009
1777.00,0.0010
1774.00,0.0011
1771.00,0.0011
1768.00,0.0011
1765.00,0.0012
1762.00,0.0013
1759.00,0.0016
1756.00,0.0018
1753.00,0.0021
1750.00,0.0022
1747.00,0.0025
1744.00,0.0026
1741.00,0.0026
1738.00,0.0025
1735.00,0.0024
1732.00,0.0023
1729.00,0.0021
1726.00,0.0020
1723.00,0.0020
1720.00,0.0019
1717.00,0.0017
1714.00,0.0017
1711.00,0.0017
1708.00,0.0016
1705.00,0.0016
1702.00,0.0016
1699.00,0.0016
1696.00,0.0015
1693.00,0.0016
1690.00,0.0016
1687.00,0.0017
1684.00,0.0018
1681.00,0.0018
1678.00,0.0019
1675.00,0.0019
1672.00,0.0019
1669.00,0.0020
1666.00,0.0020
1663.00,0.0020
1660.00,0.0019
1657.00,0.0019
1654.00,0.0018
1651.00,0.0018
1648.00,0.0015
1645.00,0.0014
1642.00,0.0014
1639.00,0.0013
1636.00,0.0013
1633.00,0.0013
1630.00,0.0013
1627.00,0.0014
1624.00,0.0016
1621.00,0.0017
1618.00,0.0018
1615.00,0.0022
1612.00,0.0028
1609.00,0.0046
1606.00,0.0082
1603.00,0.0121
1600.00,0.0122
1597.00,0.0086
1594.00,0.0056
1591.00,0.0043
1588.00,0.0043
1585.00,0.0054
1582.00,0.0053
1579.00,0.0035
1576.00,0.0024
1573.00,0.0018
1570.00,0.0015
1567.00,0.0013
1564.00,0.0013
1561.00,0.0013
1558.00,0.0013
1555.00,0.0014
1552.00,0.0015
1549.00,0.0017
1546.00,0.0018
1543.00,0.0019
1540.00,0.0019
1537.00,0.0018
1534.00,0.0015
1531.00,0.0014
1528.00,0.0012
1525.00,0.0011
1522.00,0.0011
1519.00,0.0011
1516.00,0.0012
1513.00,0.0013
1510.00,0.0015
1507.00,0.0018
1504.00,0.0029
1501.00,0.0047
1498.00,0.0110
1495.00,0.0255
1492.00,0.0303
1489.00,0.0182
1486.00,0.0099
1483.00,0.0061
1480.00,0.0042
1477.00,0.0035
1474.00,0.0031
1471.00,0.0032
1468.00,0.0035
1465.00,0.0039
1462.00,0.0050
1459.00,0.0077
1456.00,0.0197
1453.00,0.0300
1450.00,0.0289
1447.00,0.0225
1444.00,0.0179
1441.00,0.0140
1438.00,0.0112
1435.00,0.0082
1432.00,0.0063
1429.00,0.0048
1426.00,0.0040
1423.00,0.0036
1420.00,0.0033
1417.00,0.0031
1414.00,0.0030
1411.00,0.0029
1408.00,0.0029
1405.00,0.0029
1402.00,0.0030
1399.00,0.0030
1396.00,0.0032
1393.00,0.0035
1390.00,0.0040
1387.00,0.0046
1384.00,0.0053
1381.00,0.0059
1378.00,0.0065
1375.00,0.0069
1372.00,0.0071
1369.00,0.0070
1366.00,0.0069
1363.00,0.0067
1360.00,0.0066
1357.00,0.0063
1354.00,0.0060
1351.00,0.0060
1348.00,0.0059
1345.00,0.0057
1342.00,0.0054
1339.00,0.0052
1336.00,0.0053
1333.00,0.0057
1330.00,0.0060
1327.00,0.0060
1324.00,0.0058
1321.00,0.0056
1318.00,0.0057
1315.00,0.0058
1312.00,0.0059
1309.00,0.0058
1306.00,0.0055
1303.00,0.0053
1300.00,0.0051
1297.00,0.0049
1294.00,0.0049
1291.00,0.0048
1288.00,0.0047
1285.00,0.0046
1282.00,0.0045
1279.00,0.0043
1276.00,0.0040
1273.00,0.0038
1270.00,0.0036
1267.00,0.0034
1264.00,0.0032
1261.00,0.0032
1258.00,0.0032
1255.00,0.0032
1252.00,0.0033
1249.00,0.0033
1246.00,0.0034
1243.00,0.0034
1240.00,0.0033
1237.00,0.0033
1234.00,0.0034
1231.00,0.0034
1228.00,0.0034
1225.00,0.0033
1222.00,0.0034
1219.00,0.0034
1216.00,0.0035
1213.00,0.0035
1210.00,0.0037
1207.00,0.0039
1204.00,0.0042
1201.00,0.0046
1198.00,0.0049
1195.00,0.0051
1192.00,0.0053
1189.00,0.0055
1186.00,0.0061
1183.00,0.0070
1180.00,0.0070
1177.00,0.0058
1174.00,0.0047
1171.00,0.0043
1168.00,0.0042
1165.00,0.0043
1162.00,0.0048
1159.00,0.0061
1156.00,0.0072
1153.00,0.0070
1150.00,0.0054
1147.00,0.0042
1144.00,0.0035
1141.00,0.0032
1138.00,0.0030
1135.00,0.0029
1132.00,0.0029
1129.00,0.0030
1126.00,0.0030
1123.00,0.0031
1120.00,0.0033
1117.00,0.0036
1114.00,0.0038
1111.00,0.0040
1108.00,0.0039
1105.00,0.0039
1102.00,0.0041
1099.00,0.0042
1096.00,0.0044
1093.00,0.0047
1090.00,0.0049
1087.00,0.0052
1084.00,0.0057
1081.00,0.0065
1078.00,0.0072
1075.00,0.0082
1072.00,0.0093
1069.00,0.0097
1066.00,0.0093
1063.00,0.0083
1060.00,0.0074
1057.00,0.0068
1054.00,0.0060
1051.00,0.0055
1048.00,0.0051
1045.00,0.0048
1042.00,0.0048
1039.00,0.0055
1036.00,0.0076
1033.00,0.0116
1030.00,0.0152
1027.00,0.0155
1024.00,0.0126
1021.00,0.0102
1018.00,0.0086
1015.00,0.0076
1012.00,0.0069
1009.00,0.0066
1006.00,0.0069
1003.00,0.0072
1000.00,0.0063
997.00,0.0054
994.00,0.0052
991.00,0.0052
988.00,0.0056
985.00,0.0061
982.00,0.0065
979.00,0.0066
976.00,0.0062
973.00,0.0060
970.00,0.0063
967.00,0.0069
964.00,0.0071
961.00,0.0066
958.00,0.0057
955.00,0.0052
952.00,0.0051
949.00,0.0051
946.00,0.0053
943.00,0.0054
940.00,0.0051
937.00,0.0047
934.00,0.0042
931.00,0.0039
928.00,0.0038
925.00,0.0039
922.00,0.0041
919.00,0.0047
916.00,0.0057
913.00,0.0074
910.00,0.0093
907.00,0.0104
904.00,0.0099
901.00,0.0079
898.00,0.0059
895.00,0.0046
892.00,0.0039
889.00,0.0034
886.00,0.0031
883.00,0.0030
880.00,0.0028
877.00,0.0027
874.00,0.0026
871.00,0.0025
868.00,0.0024
865.00,0.0024
862.00,0.0025
859.00,0.0024
856.00,0.0025
853.00,0.0028
850.00,0.0035
847.00,0.0046
844.00,0.0053
841.00,0.0053
838.00,0.0048
835.00,0.0037
832.00,0.0028
829.00,0.0025
826.00,0.0022
823.00,0.0021
820.00,0.0021
817.00,0.0021
814.00,0.0021
811.00,0.0022
808.00,0.0023
805.00,0.0022
802.00,0.0024
799.00,0.0027
796.00,0.0030
793.00,0.0037
790.00,0.0046
787.00,0.0055
784.00,0.0068
781.00,0.0085
778.00,0.0109
775.00,0.0143
772.00,0.0184
769.00,0.0231
766.00,0.0278
763.00,0.0324
760.00,0.0371
757.00,0.0405
754.00,0.0415
751.00,0.0411
748.00,0.0405
745.00,0.0373
742.00,0.0304
739.00,0.0234
736.00,0.0172
733.00,0.0116
730.00,0.0079
727.00,0.0060
724.00,0.0050
721.00,0.0048
718.00,0.0051
715.00,0.0065
712.00,0.0105
709.00,0.0189
706.00,0.0336
703.00,0.0534
700.00,0.0757
697.00,0.0959
694.00,0.0992
691.00,0.0756
688.00,0.0501
685.00,0.0356
682.00,0.0276
679.00,0.0226
676.00,0.0196
673.00,0.0176
670.00,0.0162
667.00,0.0145
664.00,0.0128
661.00,0.0115
658.00,0.0103
655.00,0.0093
652.00,0.0085
649.00,0.0077
646.00,0.0073
643.00,0.0071
640.00,0.0070
637.00,0.0072
634.00,0.0077
631.00,0.0081
628.00,0.0084
625.00,0.0087
622.00,0.0092
619.00,0.0090
616.00,0.0082
613.00,0.0078
610.00,0.0073
607.00,0.0073
604.00,0.0072
601.00,0.0074
598.00,0.0075
595.00,0.0080
592.00,0.0082
589.00,0.0087
586.00,0.0091
583.00,0.0097
580.00,0.0107
577.00,0.0118
574.00,0.0133
571.00,0.0148
568.00,0.0165
565.00,0.0181
562.00,0.0194
559.00,0.0211
556.00,0.0225
553.00,0.0244
550.00,0.0270
547.00,0.0297
544.00,0.0334
541.00,0.0366
538.00,0.0376
535.00,0.0351
532.00,0.0311
529.00,0.0259
526.00,0.0215
523.00,0.0185
520.00,0.0163
517.00,0.0143
514.00,0.0131
511.00,0.0121
508.00,0.0115
505.00,0.0104
502.00,0.0096
499.00,0.0090
496.00,0.0083
493.00,0.0077
490.00,0.0074
487.00,0.0075
484.00,0.0072
481.00,0.0070
478.00,0.0072
475.00,0.0073
472.00,0.0069
469.00,0.0073
466.00,0.0071
463.00,0.0063
460.00,0.0060
457.00,0.0062
454.00,0.0059
451.00,0.0063
448.00,0.0055
445.00,0.0057
442.00,0.0058
439.00,0.0054
436.00,0.0050
433.00,0.0056
430.00,0.0050
427.00,0.0048
424.00,0.0042
421.00,0.0033
418.00,0.0033
415.00,0.0050
412.00,0.0054
409.00,0.0060
406.00,0.0055
403.00,0.0053
400.00,0.0047