File: FTIR/Olivia/2025_06_18_CBD_SorbicAcid_Cocrystal_Slurry_Vial_scan1.csv
Created as New Dataset,Sample 712 By YargerLab Date Wednesday, June 18 2025
cm-1,A
4000.00,0.0011
3997.00,0.0012
3994.00,0.0012
3991.00,0.0011
3988.00,0.0011
3985.00,0.0011
3982.00,0.0011
3979.00,0.0011
3976.00,0.0011
3973.00,0.0011
3970.00,0.0012
3967.00,0.0011
3964.00,0.0011
3961.00,0.0012
3958.00,0.0011
3955.00,0.0011
3952.00,0.0011
3949.00,0.0011
3946.00,0.0011
3943.00,0.0011
3940.00,0.0011
3937.00,0.0011
3934.00,0.0011
3931.00,0.0011
3928.00,0.0011
3925.00,0.0011
3922.00,0.0011
3919.00,0.0011
3916.00,0.0012
3913.00,0.0011
3910.00,0.0011
3907.00,0.0011
3904.00,0.0011
3901.00,0.0011
3898.00,0.0011
3895.00,0.0010
3892.00,0.0010
3889.00,0.0011
3886.00,0.0010
3883.00,0.0010
3880.00,0.0010
3877.00,0.0010
3874.00,0.0010
3871.00,0.0010
3868.00,0.0010
3865.00,0.0009
3862.00,0.0010
3859.00,0.0010
3856.00,0.0011
3853.00,0.0010
3850.00,0.0010
3847.00,0.0010
3844.00,0.0010
3841.00,0.0010
3838.00,0.0010
3835.00,0.0009
3832.00,0.0010
3829.00,0.0010
3826.00,0.0010
3823.00,0.0010
3820.00,0.0010
3817.00,0.0010
3814.00,0.0010
3811.00,0.0009
3808.00,0.0010
3805.00,0.0010
3802.00,0.0008
3799.00,0.0009
3796.00,0.0010
3793.00,0.0010
3790.00,0.0010
3787.00,0.0010
3784.00,0.0010
3781.00,0.0010
3778.00,0.0011
3775.00,0.0011
3772.00,0.0011
3769.00,0.0010
3766.00,0.0010
3763.00,0.0010
3760.00,0.0010
3757.00,0.0010
3754.00,0.0010
3751.00,0.0010
3748.00,0.0010
3745.00,0.0010
3742.00,0.0009
3739.00,0.0009
3736.00,0.0009
3733.00,0.0009
3730.00,0.0009
3727.00,0.0009
3724.00,0.0009
3721.00,0.0009
3718.00,0.0009
3715.00,0.0008
3712.00,0.0008
3709.00,0.0009
3706.00,0.0009
3703.00,0.0009
3700.00,0.0009
3697.00,0.0009
3694.00,0.0009
3691.00,0.0008
3688.00,0.0008
3685.00,0.0007
3682.00,0.0008
3679.00,0.0008
3676.00,0.0007
3673.00,0.0007
3670.00,0.0006
3667.00,0.0007
3664.00,0.0007
3661.00,0.0007
3658.00,0.0006
3655.00,0.0007
3652.00,0.0007
3649.00,0.0006
3646.00,0.0006
3643.00,0.0007
3640.00,0.0006
3637.00,0.0006
3634.00,0.0007
3631.00,0.0008
3628.00,0.0008
3625.00,0.0007
3622.00,0.0008
3619.00,0.0008
3616.00,0.0007
3613.00,0.0008
3610.00,0.0008
3607.00,0.0008
3604.00,0.0008
3601.00,0.0008
3598.00,0.0008
3595.00,0.0008
3592.00,0.0008
3589.00,0.0009
3586.00,0.0009
3583.00,0.0009
3580.00,0.0008
3577.00,0.0008
3574.00,0.0008
3571.00,0.0010
3568.00,0.0010
3565.00,0.0009
3562.00,0.0009
3559.00,0.0010
3556.00,0.0010
3553.00,0.0011
3550.00,0.0011
3547.00,0.0011
3544.00,0.0012
3541.00,0.0012
3538.00,0.0013
3535.00,0.0013
3532.00,0.0014
3529.00,0.0014
3526.00,0.0014
3523.00,0.0015
3520.00,0.0016
3517.00,0.0017
3514.00,0.0018
3511.00,0.0019
3508.00,0.0020
3505.00,0.0020
3502.00,0.0022
3499.00,0.0024
3496.00,0.0026
3493.00,0.0028
3490.00,0.0031
3487.00,0.0033
3484.00,0.0036
3481.00,0.0038
3478.00,0.0042
3475.00,0.0046
3472.00,0.0051
3469.00,0.0057
3466.00,0.0065
3463.00,0.0078
3460.00,0.0095
3457.00,0.0116
3454.00,0.0141
3451.00,0.0161
3448.00,0.0167
3445.00,0.0160
3442.00,0.0148
3439.00,0.0134
3436.00,0.0122
3433.00,0.0110
3430.00,0.0100
3427.00,0.0091
3424.00,0.0083
3421.00,0.0075
3418.00,0.0067
3415.00,0.0063
3412.00,0.0058
3409.00,0.0054
3406.00,0.0050
3403.00,0.0048
3400.00,0.0046
3397.00,0.0045
3394.00,0.0044
3391.00,0.0043
3388.00,0.0042
3385.00,0.0041
3382.00,0.0041
3379.00,0.0041
3376.00,0.0040
3373.00,0.0041
3370.00,0.0041
3367.00,0.0041
3364.00,0.0040
3361.00,0.0040
3358.00,0.0041
3355.00,0.0041
3352.00,0.0042
3349.00,0.0042
3346.00,0.0042
3343.00,0.0043
3340.00,0.0043
3337.00,0.0044
3334.00,0.0044
3331.00,0.0044
3328.00,0.0045
3325.00,0.0046
3322.00,0.0046
3319.00,0.0047
3316.00,0.0047
3313.00,0.0048
3310.00,0.0049
3307.00,0.0050
3304.00,0.0051
3301.00,0.0052
3298.00,0.0052
3295.00,0.0054
3292.00,0.0055
3289.00,0.0056
3286.00,0.0057
3283.00,0.0059
3280.00,0.0059
3277.00,0.0060
3274.00,0.0062
3271.00,0.0063
3268.00,0.0064
3265.00,0.0065
3262.00,0.0066
3259.00,0.0068
3256.00,0.0068
3253.00,0.0070
3250.00,0.0071
3247.00,0.0072
3244.00,0.0073
3241.00,0.0074
3238.00,0.0075
3235.00,0.0076
3232.00,0.0078
3229.00,0.0079
3226.00,0.0080
3223.00,0.0082
3220.00,0.0083
3217.00,0.0083
3214.00,0.0084
3211.00,0.0085
3208.00,0.0087
3205.00,0.0088
3202.00,0.0090
3199.00,0.0091
3196.00,0.0092
3193.00,0.0093
3190.00,0.0094
3187.00,0.0094
3184.00,0.0095
3181.00,0.0096
3178.00,0.0097
3175.00,0.0097
3172.00,0.0097
3169.00,0.0098
3166.00,0.0098
3163.00,0.0099
3160.00,0.0100
3157.00,0.0100
3154.00,0.0100
3151.00,0.0101
3148.00,0.0103
3145.00,0.0104
3142.00,0.0105
3139.00,0.0106
3136.00,0.0107
3133.00,0.0108
3130.00,0.0108
3127.00,0.0109
3124.00,0.0110
3121.00,0.0111
3118.00,0.0111
3115.00,0.0112
3112.00,0.0113
3109.00,0.0115
3106.00,0.0116
3103.00,0.0117
3100.00,0.0117
3097.00,0.0118
3094.00,0.0118
3091.00,0.0118
3088.00,0.0120
3085.00,0.0121
3082.00,0.0122
3079.00,0.0123
3076.00,0.0125
3073.00,0.0127
3070.00,0.0129
3067.00,0.0128
3064.00,0.0124
3061.00,0.0120
3058.00,0.0116
3055.00,0.0113
3052.00,0.0111
3049.00,0.0110
3046.00,0.0108
3043.00,0.0107
3040.00,0.0107
3037.00,0.0106
3034.00,0.0105
3031.00,0.0104
3028.00,0.0103
3025.00,0.0102
3022.00,0.0101
3019.00,0.0100
3016.00,0.0098
3013.00,0.0097
3010.00,0.0097
3007.00,0.0096
3004.00,0.0095
3001.00,0.0095
2998.00,0.0096
2995.00,0.0098
2992.00,0.0102
2989.00,0.0105
2986.00,0.0107
2983.00,0.0107
2980.00,0.0111
2977.00,0.0118
2974.00,0.0123
2971.00,0.0125
2968.00,0.0129
2965.00,0.0137
2962.00,0.0149
2959.00,0.0163
2956.00,0.0175
2953.00,0.0180
2950.00,0.0176
2947.00,0.0169
2944.00,0.0167
2941.00,0.0175
2938.00,0.0189
2935.00,0.0206
2932.00,0.0228
2929.00,0.0251
2926.00,0.0265
2923.00,0.0266
2920.00,0.0255
2917.00,0.0239
2914.00,0.0222
2911.00,0.0203
2908.00,0.0184
2905.00,0.0168
2902.00,0.0157
2899.00,0.0149
2896.00,0.0143
2893.00,0.0138
2890.00,0.0135
2887.00,0.0134
2884.00,0.0133
2881.00,0.0133
2878.00,0.0136
2875.00,0.0143
2872.00,0.0151
2869.00,0.0152
2866.00,0.0146
2863.00,0.0147
2860.00,0.0157
2857.00,0.0164
2854.00,0.0160
2851.00,0.0147
2848.00,0.0134
2845.00,0.0125
2842.00,0.0121
2839.00,0.0118
2836.00,0.0116
2833.00,0.0116
2830.00,0.0109
2827.00,0.0099
2824.00,0.0091
2821.00,0.0085
2818.00,0.0081
2815.00,0.0079
2812.00,0.0077
2809.00,0.0075
2806.00,0.0074
2803.00,0.0073
2800.00,0.0072
2797.00,0.0071
2794.00,0.0071
2791.00,0.0070
2788.00,0.0070
2785.00,0.0070
2782.00,0.0070
2779.00,0.0071
2776.00,0.0072
2773.00,0.0073
2770.00,0.0073
2767.00,0.0074
2764.00,0.0075
2761.00,0.0075
2758.00,0.0075
2755.00,0.0075
2752.00,0.0076
2749.00,0.0076
2746.00,0.0076
2743.00,0.0076
2740.00,0.0076
2737.00,0.0077
2734.00,0.0078
2731.00,0.0079
2728.00,0.0079
2725.00,0.0080
2722.00,0.0079
2719.00,0.0079
2716.00,0.0079
2713.00,0.0079
2710.00,0.0079
2707.00,0.0080
2704.00,0.0080
2701.00,0.0080
2698.00,0.0080
2695.00,0.0080
2692.00,0.0080
2689.00,0.0080
2686.00,0.0080
2683.00,0.0080
2680.00,0.0079
2677.00,0.0079
2674.00,0.0079
2671.00,0.0080
2668.00,0.0080
2665.00,0.0081
2662.00,0.0083
2659.00,0.0084
2656.00,0.0084
2653.00,0.0084
2650.00,0.0083
2647.00,0.0083
2644.00,0.0083
2641.00,0.0083
2638.00,0.0082
2635.00,0.0081
2632.00,0.0080
2629.00,0.0080
2626.00,0.0080
2623.00,0.0080
2620.00,0.0079
2617.00,0.0078
2614.00,0.0077
2611.00,0.0077
2608.00,0.0077
2605.00,0.0076
2602.00,0.0075
2599.00,0.0074
2596.00,0.0073
2593.00,0.0073
2590.00,0.0073
2587.00,0.0072
2584.00,0.0070
2581.00,0.0070
2578.00,0.0070
2575.00,0.0069
2572.00,0.0069
2569.00,0.0070
2566.00,0.0069
2563.00,0.0069
2560.00,0.0069
2557.00,0.0069
2554.00,0.0070
2551.00,0.0069
2548.00,0.0068
2545.00,0.0068
2542.00,0.0066
2539.00,0.0066
2536.00,0.0065
2533.00,0.0064
2530.00,0.0064
2527.00,0.0063
2524.00,0.0062
2521.00,0.0061
2518.00,0.0061
2515.00,0.0060
2512.00,0.0059
2509.00,0.0058
2506.00,0.0057
2503.00,0.0057
2500.00,0.0056
2497.00,0.0056
2494.00,0.0057
2491.00,0.0056
2488.00,0.0055
2485.00,0.0056
2482.00,0.0056
2479.00,0.0055
2476.00,0.0056
2473.00,0.0055
2470.00,0.0055
2467.00,0.0055
2464.00,0.0055
2461.00,0.0056
2458.00,0.0056
2455.00,0.0057
2452.00,0.0057
2449.00,0.0057
2446.00,0.0057
2443.00,0.0056
2440.00,0.0055
2437.00,0.0055
2434.00,0.0055
2431.00,0.0054
2428.00,0.0054
2425.00,0.0054
2422.00,0.0053
2419.00,0.0053
2416.00,0.0053
2413.00,0.0052
2410.00,0.0051
2407.00,0.0048
2404.00,0.0047
2401.00,0.0047
2398.00,0.0046
2395.00,0.0044
2392.00,0.0043
2389.00,0.0042
2386.00,0.0041
2383.00,0.0038
2380.00,0.0037
2377.00,0.0037
2374.00,0.0035
2371.00,0.0034
2368.00,0.0032
2365.00,0.0032
2362.00,0.0033
2359.00,0.0032
2356.00,0.0031
2353.00,0.0030
2350.00,0.0029
2347.00,0.0033
2344.00,0.0033
2341.00,0.0031
2338.00,0.0031
2335.00,0.0030
2332.00,0.0029
2329.00,0.0031
2326.00,0.0041
2323.00,0.0039
2320.00,0.0033
2317.00,0.0030
2314.00,0.0031
2311.00,0.0030
2308.00,0.0029
2305.00,0.0029
2302.00,0.0029
2299.00,0.0030
2296.00,0.0031
2293.00,0.0033
2290.00,0.0036
2287.00,0.0036
2284.00,0.0034
2281.00,0.0032
2278.00,0.0031
2275.00,0.0030
2272.00,0.0029
2269.00,0.0027
2266.00,0.0027
2263.00,0.0026
2260.00,0.0026
2257.00,0.0025
2254.00,0.0023
2251.00,0.0023
2248.00,0.0022
2245.00,0.0021
2242.00,0.0022
2239.00,0.0023
2236.00,0.0024
2233.00,0.0022
2230.00,0.0022
2227.00,0.0022
2224.00,0.0022
2221.00,0.0020
2218.00,0.0020
2215.00,0.0020
2212.00,0.0017
2209.00,0.0018
2206.00,0.0019
2203.00,0.0018
2200.00,0.0018
2197.00,0.0019
2194.00,0.0021
2191.00,0.0023
2188.00,0.0023
2185.00,0.0019
2182.00,0.0014
2179.00,0.0016
2176.00,0.0012
2173.00,0.0016
2170.00,0.0026
2167.00,0.0032
2164.00,0.0032
2161.00,0.0012
2158.00,-0.0018
2155.00,-0.0015
2152.00,-0.0007
2149.00,-0.0004
2146.00,-0.0004
2143.00,-0.0005
2140.00,-0.0003
2137.00,-0.0006
2134.00,-0.0011
2131.00,-0.0005
2128.00,-0.0001
2125.00,0.0001
2122.00,0.0005
2119.00,0.0008
2116.00,0.0011
2113.00,0.0012
2110.00,0.0010
2107.00,0.0010
2104.00,0.0010
2101.00,0.0009
2098.00,0.0008
2095.00,0.0007
2092.00,0.0008
2089.00,0.0009
2086.00,0.0010
2083.00,0.0010
2080.00,0.0012
2077.00,0.0011
2074.00,0.0010
2071.00,0.0010
2068.00,0.0010
2065.00,0.0008
2062.00,0.0009
2059.00,0.0011
2056.00,0.0011
2053.00,0.0017
2050.00,0.0019
2047.00,0.0013
2044.00,0.0010
2041.00,0.0012
2038.00,0.0013
2035.00,0.0011
2032.00,0.0007
2029.00,0.0005
2026.00,0.0004
2023.00,0.0002
2020.00,0.0001
2017.00,0.0004
2014.00,0.0004
2011.00,0.0008
2008.00,0.0001
2005.00,-0.0004
2002.00,0.0001
1999.00,0.0003
1996.00,0.0005
1993.00,0.0008
1990.00,0.0012
1987.00,0.0012
1984.00,0.0013
1981.00,0.0021
1978.00,0.0008
1975.00,-0.0000
1972.00,-0.0000
1969.00,-0.0003
1966.00,-0.0002
1963.00,-0.0000
1960.00,-0.0005
1957.00,-0.0003
1954.00,-0.0001
1951.00,0.0002
1948.00,0.0003
1945.00,0.0001
1942.00,0.0000
1939.00,0.0002
1936.00,0.0002
1933.00,0.0002
1930.00,0.0002
1927.00,0.0002
1924.00,0.0002
1921.00,0.0004
1918.00,0.0005
1915.00,0.0005
1912.00,0.0004
1909.00,0.0004
1906.00,0.0004
1903.00,0.0004
1900.00,0.0003
1897.00,0.0003
1894.00,0.0004
1891.00,0.0004
1888.00,0.0004
1885.00,0.0005
1882.00,0.0005
1879.00,0.0005
1876.00,0.0005
1873.00,0.0006
1870.00,0.0007
1867.00,0.0007
1864.00,0.0007
1861.00,0.0006
1858.00,0.0005
1855.00,0.0006
1852.00,0.0005
1849.00,0.0005
1846.00,0.0006
1843.00,0.0007
1840.00,0.0006
1837.00,0.0006
1834.00,0.0006
1831.00,0.0006
1828.00,0.0007
1825.00,0.0007
1822.00,0.0007
1819.00,0.0005
1816.00,0.0004
1813.00,0.0005
1810.00,0.0006
1807.00,0.0008
1804.00,0.0008
1801.00,0.0009
1798.00,0.0009
1795.00,0.0010
1792.00,0.0011
1789.00,0.0012
1786.00,0.0013
1783.00,0.0014
1780.00,0.0013
1777.00,0.0013
1774.00,0.0013
1771.00,0.0013
1768.00,0.0014
1765.00,0.0013
1762.00,0.0013
1759.00,0.0012
1756.00,0.0012
1753.00,0.0012
1750.00,0.0013
1747.00,0.0014
1744.00,0.0014
1741.00,0.0015
1738.00,0.0015
1735.00,0.0014
1732.00,0.0015
1729.00,0.0016
1726.00,0.0017
1723.00,0.0017
1720.00,0.0018
1717.00,0.0019
1714.00,0.0019
1711.00,0.0020
1708.00,0.0020
1705.00,0.0021
1702.00,0.0022
1699.00,0.0022
1696.00,0.0023
1693.00,0.0023
1690.00,0.0024
1687.00,0.0025
1684.00,0.0027
1681.00,0.0029
1678.00,0.0031
1675.00,0.0034
1672.00,0.0038
1669.00,0.0044
1666.00,0.0050
1663.00,0.0058
1660.00,0.0067
1657.00,0.0081
1654.00,0.0100
1651.00,0.0121
1648.00,0.0158
1645.00,0.0211
1642.00,0.0275
1639.00,0.0331
1636.00,0.0374
1633.00,0.0393
1630.00,0.0394
1627.00,0.0343
1624.00,0.0288
1621.00,0.0234
1618.00,0.0209
1615.00,0.0172
1612.00,0.0159
1609.00,0.0148
1606.00,0.0141
1603.00,0.0142
1600.00,0.0150
1597.00,0.0169
1594.00,0.0207
1591.00,0.0263
1588.00,0.0322
1585.00,0.0366
1582.00,0.0400
1579.00,0.0431
1576.00,0.0432
1573.00,0.0427
1570.00,0.0420
1567.00,0.0389
1564.00,0.0364
1561.00,0.0353
1558.00,0.0276
1555.00,0.0246
1552.00,0.0219
1549.00,0.0194
1546.00,0.0178
1543.00,0.0164
1540.00,0.0145
1537.00,0.0135
1534.00,0.0137
1531.00,0.0138
1528.00,0.0149
1525.00,0.0154
1522.00,0.0149
1519.00,0.0127
1516.00,0.0108
1513.00,0.0096
1510.00,0.0090
1507.00,0.0085
1504.00,0.0075
1501.00,0.0074
1498.00,0.0071
1495.00,0.0067
1492.00,0.0066
1489.00,0.0065
1486.00,0.0066
1483.00,0.0070
1480.00,0.0078
1477.00,0.0090
1474.00,0.0105
1471.00,0.0129
1468.00,0.0153
1465.00,0.0153
1462.00,0.0163
1459.00,0.0202
1456.00,0.0247
1453.00,0.0305
1450.00,0.0374
1447.00,0.0421
1444.00,0.0442
1441.00,0.0423
1438.00,0.0384
1435.00,0.0324
1432.00,0.0297
1429.00,0.0256
1426.00,0.0225
1423.00,0.0205
1420.00,0.0197
1417.00,0.0190
1414.00,0.0193
1411.00,0.0197
1408.00,0.0202
1405.00,0.0207
1402.00,0.0211
1399.00,0.0211
1396.00,0.0204
1393.00,0.0192
1390.00,0.0184
1387.00,0.0176
1384.00,0.0178
1381.00,0.0205
1378.00,0.0236
1375.00,0.0236
1372.00,0.0214
1369.00,0.0217
1366.00,0.0222
1363.00,0.0212
1360.00,0.0206
1357.00,0.0217
1354.00,0.0244
1351.00,0.0268
1348.00,0.0270
1345.00,0.0250
1342.00,0.0235
1339.00,0.0238
1336.00,0.0249
1333.00,0.0240
1330.00,0.0221
1327.00,0.0230
1324.00,0.0268
1321.00,0.0318
1318.00,0.0331
1315.00,0.0288
1312.00,0.0238
1309.00,0.0217
1306.00,0.0222
1303.00,0.0220
1300.00,0.0205
1297.00,0.0200
1294.00,0.0206
1291.00,0.0225
1288.00,0.0254
1285.00,0.0279
1282.00,0.0306
1279.00,0.0307
1276.00,0.0263
1273.00,0.0211
1270.00,0.0171
1267.00,0.0145
1264.00,0.0129
1261.00,0.0124
1258.00,0.0132
1255.00,0.0159
1252.00,0.0184
1249.00,0.0199
1246.00,0.0232
1243.00,0.0247
1240.00,0.0214
1237.00,0.0172
1234.00,0.0149
1231.00,0.0155
1228.00,0.0166
1225.00,0.0153
1222.00,0.0145
1219.00,0.0156
1216.00,0.0149
1213.00,0.0138
1210.00,0.0167
1207.00,0.0236
1204.00,0.0249
1201.00,0.0189
1198.00,0.0136
1195.00,0.0112
1192.00,0.0110
1189.00,0.0114
1186.00,0.0111
1183.00,0.0109
1180.00,0.0123
1177.00,0.0165
1174.00,0.0219
1171.00,0.0245
1168.00,0.0206
1165.00,0.0154
1162.00,0.0123
1159.00,0.0111
1156.00,0.0112
1153.00,0.0135
1150.00,0.0193
1147.00,0.0191
1144.00,0.0119
1141.00,0.0083
1138.00,0.0075
1135.00,0.0071
1132.00,0.0063
1129.00,0.0055
1126.00,0.0050
1123.00,0.0047
1120.00,0.0046
1117.00,0.0047
1114.00,0.0050
1111.00,0.0055
1108.00,0.0064
1105.00,0.0074
1102.00,0.0087
1099.00,0.0093
1096.00,0.0083
1093.00,0.0071
1090.00,0.0064
1087.00,0.0062
1084.00,0.0065
1081.00,0.0067
1078.00,0.0064
1075.00,0.0058
1072.00,0.0056
1069.00,0.0057
1066.00,0.0068
1063.00,0.0090
1060.00,0.0129
1057.00,0.0192
1054.00,0.0249
1051.00,0.0215
1048.00,0.0159
1045.00,0.0150
1042.00,0.0171
1039.00,0.0215
1036.00,0.0279
1033.00,0.0321
1030.00,0.0303
1027.00,0.0241
1024.00,0.0177
1021.00,0.0142
1018.00,0.0121
1015.00,0.0106
1012.00,0.0099
1009.00,0.0093
1006.00,0.0085
1003.00,0.0089
1000.00,0.0112
997.00,0.0109
994.00,0.0087
991.00,0.0081
988.00,0.0084
985.00,0.0085
982.00,0.0079
979.00,0.0070
976.00,0.0066
973.00,0.0066
970.00,0.0069
967.00,0.0074
964.00,0.0087
961.00,0.0105
958.00,0.0110
955.00,0.0103
952.00,0.0095
949.00,0.0092
946.00,0.0092
943.00,0.0095
940.00,0.0094
937.00,0.0085
934.00,0.0079
931.00,0.0083
928.00,0.0091
925.00,0.0099
922.00,0.0108
919.00,0.0124
916.00,0.0139
913.00,0.0140
910.00,0.0123
907.00,0.0120
904.00,0.0140
901.00,0.0151
898.00,0.0141
895.00,0.0147
892.00,0.0228
889.00,0.0314
886.00,0.0293
883.00,0.0276
880.00,0.0213
877.00,0.0173
874.00,0.0159
871.00,0.0159
868.00,0.0173
865.00,0.0217
862.00,0.0276
859.00,0.0289
856.00,0.0285
853.00,0.0259
850.00,0.0228
847.00,0.0226
844.00,0.0240
841.00,0.0244
838.00,0.0240
835.00,0.0207
832.00,0.0180
829.00,0.0178
826.00,0.0164
823.00,0.0133
820.00,0.0116
817.00,0.0107
814.00,0.0106
811.00,0.0115
808.00,0.0138
805.00,0.0179
802.00,0.0183
799.00,0.0177
796.00,0.0194
793.00,0.0188
790.00,0.0155
787.00,0.0133
784.00,0.0124
781.00,0.0119
778.00,0.0120
775.00,0.0125
772.00,0.0134
769.00,0.0137
766.00,0.0133
763.00,0.0125
760.00,0.0120
757.00,0.0117
754.00,0.0115
751.00,0.0103
748.00,0.0093
745.00,0.0096
742.00,0.0103
739.00,0.0115
736.00,0.0136
733.00,0.0158
730.00,0.0143
727.00,0.0120
724.00,0.0109
721.00,0.0105
718.00,0.0105
715.00,0.0104
712.00,0.0105
709.00,0.0103
706.00,0.0101
703.00,0.0101
700.00,0.0102
697.00,0.0103
694.00,0.0105
691.00,0.0111
688.00,0.0120
685.00,0.0130
682.00,0.0141
679.00,0.0150
676.00,0.0147
673.00,0.0145
670.00,0.0146
667.00,0.0126
664.00,0.0108
661.00,0.0099
658.00,0.0095
655.00,0.0095
652.00,0.0101
649.00,0.0101
646.00,0.0095
643.00,0.0094
640.00,0.0097
637.00,0.0103
634.00,0.0105
631.00,0.0105
628.00,0.0100
625.00,0.0094
622.00,0.0090
619.00,0.0095
616.00,0.0108
613.00,0.0110
610.00,0.0106
607.00,0.0101
604.00,0.0098
601.00,0.0095
598.00,0.0094
595.00,0.0098
592.00,0.0099
589.00,0.0096
586.00,0.0096
583.00,0.0115
580.00,0.0167
577.00,0.0169
574.00,0.0110
571.00,0.0081
568.00,0.0073
565.00,0.0070
562.00,0.0078
559.00,0.0090
556.00,0.0125
553.00,0.0181
550.00,0.0172
547.00,0.0131
544.00,0.0122
541.00,0.0129
538.00,0.0161
535.00,0.0188
532.00,0.0154
529.00,0.0133
526.00,0.0160
523.00,0.0154
520.00,0.0131
517.00,0.0097
514.00,0.0094
511.00,0.0104
508.00,0.0119
505.00,0.0139
502.00,0.0170
499.00,0.0201
496.00,0.0237
493.00,0.0268
490.00,0.0287
487.00,0.0293
484.00,0.0290
481.00,0.0291
478.00,0.0295
475.00,0.0292
472.00,0.0291
469.00,0.0278
466.00,0.0277
463.00,0.0265
460.00,0.0235
457.00,0.0209
454.00,0.0197
451.00,0.0193
448.00,0.0192
445.00,0.0183
442.00,0.0177
439.00,0.0172
436.00,0.0164
433.00,0.0156
430.00,0.0137
427.00,0.0121
424.00,0.0120
421.00,0.0119
418.00,0.0112
415.00,0.0116
412.00,0.0110
409.00,0.0098
406.00,0.0106
403.00,0.0115
400.00,0.0107