File: FTIR/Olivia/2025_06_18_Std_Polystyrene_scan1.csv
Created as New Dataset,Sample 692 By YargerLab Date Friday, June 13 2025
cm-1,A
4000.00,0.0024
3997.00,0.0024
3994.00,0.0024
3991.00,0.0023
3988.00,0.0024
3985.00,0.0023
3982.00,0.0023
3979.00,0.0023
3976.00,0.0023
3973.00,0.0023
3970.00,0.0023
3967.00,0.0023
3964.00,0.0023
3961.00,0.0023
3958.00,0.0023
3955.00,0.0023
3952.00,0.0023
3949.00,0.0023
3946.00,0.0023
3943.00,0.0023
3940.00,0.0023
3937.00,0.0023
3934.00,0.0023
3931.00,0.0023
3928.00,0.0023
3925.00,0.0023
3922.00,0.0022
3919.00,0.0022
3916.00,0.0023
3913.00,0.0023
3910.00,0.0023
3907.00,0.0022
3904.00,0.0021
3901.00,0.0020
3898.00,0.0021
3895.00,0.0022
3892.00,0.0022
3889.00,0.0021
3886.00,0.0022
3883.00,0.0021
3880.00,0.0022
3877.00,0.0022
3874.00,0.0022
3871.00,0.0021
3868.00,0.0021
3865.00,0.0021
3862.00,0.0021
3859.00,0.0021
3856.00,0.0020
3853.00,0.0019
3850.00,0.0019
3847.00,0.0022
3844.00,0.0022
3841.00,0.0021
3838.00,0.0021
3835.00,0.0021
3832.00,0.0022
3829.00,0.0022
3826.00,0.0022
3823.00,0.0021
3820.00,0.0021
3817.00,0.0021
3814.00,0.0022
3811.00,0.0023
3808.00,0.0022
3805.00,0.0022
3802.00,0.0022
3799.00,0.0021
3796.00,0.0022
3793.00,0.0023
3790.00,0.0023
3787.00,0.0023
3784.00,0.0023
3781.00,0.0023
3778.00,0.0023
3775.00,0.0022
3772.00,0.0022
3769.00,0.0022
3766.00,0.0022
3763.00,0.0023
3760.00,0.0022
3757.00,0.0022
3754.00,0.0021
3751.00,0.0019
3748.00,0.0019
3745.00,0.0019
3742.00,0.0019
3739.00,0.0019
3736.00,0.0019
3733.00,0.0019
3730.00,0.0021
3727.00,0.0021
3724.00,0.0021
3721.00,0.0021
3718.00,0.0021
3715.00,0.0021
3712.00,0.0021
3709.00,0.0021
3706.00,0.0021
3703.00,0.0021
3700.00,0.0021
3697.00,0.0021
3694.00,0.0020
3691.00,0.0020
3688.00,0.0020
3685.00,0.0021
3682.00,0.0021
3679.00,0.0020
3676.00,0.0019
3673.00,0.0018
3670.00,0.0019
3667.00,0.0020
3664.00,0.0021
3661.00,0.0021
3658.00,0.0021
3655.00,0.0020
3652.00,0.0020
3649.00,0.0020
3646.00,0.0019
3643.00,0.0021
3640.00,0.0022
3637.00,0.0022
3634.00,0.0020
3631.00,0.0019
3628.00,0.0019
3625.00,0.0020
3622.00,0.0020
3619.00,0.0021
3616.00,0.0020
3613.00,0.0020
3610.00,0.0019
3607.00,0.0020
3604.00,0.0021
3601.00,0.0021
3598.00,0.0021
3595.00,0.0020
3592.00,0.0020
3589.00,0.0020
3586.00,0.0020
3583.00,0.0021
3580.00,0.0022
3577.00,0.0021
3574.00,0.0021
3571.00,0.0021
3568.00,0.0020
3565.00,0.0020
3562.00,0.0021
3559.00,0.0022
3556.00,0.0022
3553.00,0.0022
3550.00,0.0022
3547.00,0.0022
3544.00,0.0022
3541.00,0.0023
3538.00,0.0023
3535.00,0.0023
3532.00,0.0024
3529.00,0.0023
3526.00,0.0023
3523.00,0.0024
3520.00,0.0023
3517.00,0.0024
3514.00,0.0024
3511.00,0.0024
3508.00,0.0024
3505.00,0.0024
3502.00,0.0024
3499.00,0.0025
3496.00,0.0024
3493.00,0.0024
3490.00,0.0025
3487.00,0.0025
3484.00,0.0025
3481.00,0.0026
3478.00,0.0026
3475.00,0.0026
3472.00,0.0026
3469.00,0.0026
3466.00,0.0026
3463.00,0.0026
3460.00,0.0026
3457.00,0.0026
3454.00,0.0026
3451.00,0.0026
3448.00,0.0026
3445.00,0.0026
3442.00,0.0026
3439.00,0.0027
3436.00,0.0027
3433.00,0.0027
3430.00,0.0026
3427.00,0.0027
3424.00,0.0026
3421.00,0.0026
3418.00,0.0026
3415.00,0.0026
3412.00,0.0026
3409.00,0.0026
3406.00,0.0026
3403.00,0.0027
3400.00,0.0026
3397.00,0.0026
3394.00,0.0026
3391.00,0.0026
3388.00,0.0027
3385.00,0.0026
3382.00,0.0026
3379.00,0.0026
3376.00,0.0026
3373.00,0.0026
3370.00,0.0026
3367.00,0.0026
3364.00,0.0026
3361.00,0.0026
3358.00,0.0026
3355.00,0.0027
3352.00,0.0026
3349.00,0.0026
3346.00,0.0026
3343.00,0.0026
3340.00,0.0026
3337.00,0.0026
3334.00,0.0026
3331.00,0.0026
3328.00,0.0026
3325.00,0.0026
3322.00,0.0026
3319.00,0.0026
3316.00,0.0026
3313.00,0.0026
3310.00,0.0026
3307.00,0.0026
3304.00,0.0025
3301.00,0.0026
3298.00,0.0026
3295.00,0.0026
3292.00,0.0026
3289.00,0.0025
3286.00,0.0025
3283.00,0.0025
3280.00,0.0026
3277.00,0.0025
3274.00,0.0025
3271.00,0.0026
3268.00,0.0026
3265.00,0.0025
3262.00,0.0025
3259.00,0.0025
3256.00,0.0025
3253.00,0.0025
3250.00,0.0025
3247.00,0.0025
3244.00,0.0025
3241.00,0.0024
3238.00,0.0025
3235.00,0.0025
3232.00,0.0025
3229.00,0.0024
3226.00,0.0024
3223.00,0.0024
3220.00,0.0024
3217.00,0.0024
3214.00,0.0025
3211.00,0.0025
3208.00,0.0025
3205.00,0.0026
3202.00,0.0026
3199.00,0.0025
3196.00,0.0025
3193.00,0.0025
3190.00,0.0025
3187.00,0.0025
3184.00,0.0024
3181.00,0.0024
3178.00,0.0024
3175.00,0.0024
3172.00,0.0024
3169.00,0.0025
3166.00,0.0025
3163.00,0.0026
3160.00,0.0026
3157.00,0.0025
3154.00,0.0024
3151.00,0.0024
3148.00,0.0024
3145.00,0.0024
3142.00,0.0024
3139.00,0.0024
3136.00,0.0024
3133.00,0.0024
3130.00,0.0024
3127.00,0.0025
3124.00,0.0025
3121.00,0.0026
3118.00,0.0028
3115.00,0.0030
3112.00,0.0034
3109.00,0.0042
3106.00,0.0049
3103.00,0.0052
3100.00,0.0051
3097.00,0.0050
3094.00,0.0052
3091.00,0.0063
3088.00,0.0084
3085.00,0.0109
3082.00,0.0119
3079.00,0.0108
3076.00,0.0093
3073.00,0.0088
3070.00,0.0095
3067.00,0.0113
3064.00,0.0139
3061.00,0.0159
3058.00,0.0157
3055.00,0.0134
3052.00,0.0109
3049.00,0.0093
3046.00,0.0085
3043.00,0.0088
3040.00,0.0099
3037.00,0.0121
3034.00,0.0160
3031.00,0.0219
3028.00,0.0282
3025.00,0.0308
3022.00,0.0266
3019.00,0.0190
3016.00,0.0130
3013.00,0.0096
3010.00,0.0081
3007.00,0.0081
3004.00,0.0087
3001.00,0.0090
2998.00,0.0078
2995.00,0.0062
2992.00,0.0051
2989.00,0.0047
2986.00,0.0045
2983.00,0.0043
2980.00,0.0043
2977.00,0.0045
2974.00,0.0047
2971.00,0.0049
2968.00,0.0053
2965.00,0.0059
2962.00,0.0065
2959.00,0.0073
2956.00,0.0083
2953.00,0.0094
2950.00,0.0109
2947.00,0.0128
2944.00,0.0150
2941.00,0.0178
2938.00,0.0210
2935.00,0.0248
2932.00,0.0287
2929.00,0.0323
2926.00,0.0351
2923.00,0.0365
2920.00,0.0365
2917.00,0.0353
2914.00,0.0333
2911.00,0.0308
2908.00,0.0281
2905.00,0.0254
2902.00,0.0225
2899.00,0.0198
2896.00,0.0174
2893.00,0.0157
2890.00,0.0143
2887.00,0.0133
2884.00,0.0124
2881.00,0.0116
2878.00,0.0108
2875.00,0.0102
2872.00,0.0098
2869.00,0.0096
2866.00,0.0099
2863.00,0.0107
2860.00,0.0120
2857.00,0.0137
2854.00,0.0154
2851.00,0.0165
2848.00,0.0165
2845.00,0.0153
2842.00,0.0129
2839.00,0.0101
2836.00,0.0078
2833.00,0.0062
2830.00,0.0054
2827.00,0.0049
2824.00,0.0046
2821.00,0.0044
2818.00,0.0043
2815.00,0.0042
2812.00,0.0042
2809.00,0.0041
2806.00,0.0039
2803.00,0.0038
2800.00,0.0037
2797.00,0.0037
2794.00,0.0036
2791.00,0.0035
2788.00,0.0035
2785.00,0.0035
2782.00,0.0034
2779.00,0.0034
2776.00,0.0034
2773.00,0.0033
2770.00,0.0032
2767.00,0.0032
2764.00,0.0032
2761.00,0.0031
2758.00,0.0031
2755.00,0.0031
2752.00,0.0031
2749.00,0.0030
2746.00,0.0030
2743.00,0.0030
2740.00,0.0030
2737.00,0.0031
2734.00,0.0031
2731.00,0.0031
2728.00,0.0031
2725.00,0.0031
2722.00,0.0031
2719.00,0.0031
2716.00,0.0031
2713.00,0.0031
2710.00,0.0031
2707.00,0.0030
2704.00,0.0030
2701.00,0.0030
2698.00,0.0030
2695.00,0.0030
2692.00,0.0030
2689.00,0.0030
2686.00,0.0030
2683.00,0.0030
2680.00,0.0030
2677.00,0.0030
2674.00,0.0030
2671.00,0.0030
2668.00,0.0031
2665.00,0.0032
2662.00,0.0033
2659.00,0.0034
2656.00,0.0035
2653.00,0.0035
2650.00,0.0036
2647.00,0.0035
2644.00,0.0035
2641.00,0.0035
2638.00,0.0036
2635.00,0.0036
2632.00,0.0036
2629.00,0.0035
2626.00,0.0035
2623.00,0.0034
2620.00,0.0033
2617.00,0.0032
2614.00,0.0032
2611.00,0.0032
2608.00,0.0033
2605.00,0.0033
2602.00,0.0033
2599.00,0.0032
2596.00,0.0031
2593.00,0.0030
2590.00,0.0029
2587.00,0.0029
2584.00,0.0030
2581.00,0.0030
2578.00,0.0029
2575.00,0.0028
2572.00,0.0028
2569.00,0.0028
2566.00,0.0027
2563.00,0.0027
2560.00,0.0027
2557.00,0.0027
2554.00,0.0027
2551.00,0.0026
2548.00,0.0026
2545.00,0.0026
2542.00,0.0026
2539.00,0.0025
2536.00,0.0025
2533.00,0.0025
2530.00,0.0025
2527.00,0.0026
2524.00,0.0026
2521.00,0.0025
2518.00,0.0025
2515.00,0.0025
2512.00,0.0025
2509.00,0.0025
2506.00,0.0025
2503.00,0.0024
2500.00,0.0024
2497.00,0.0024
2494.00,0.0025
2491.00,0.0024
2488.00,0.0024
2485.00,0.0024
2482.00,0.0024
2479.00,0.0024
2476.00,0.0023
2473.00,0.0023
2470.00,0.0023
2467.00,0.0023
2464.00,0.0023
2461.00,0.0024
2458.00,0.0024
2455.00,0.0025
2452.00,0.0024
2449.00,0.0023
2446.00,0.0023
2443.00,0.0022
2440.00,0.0021
2437.00,0.0021
2434.00,0.0021
2431.00,0.0021
2428.00,0.0020
2425.00,0.0020
2422.00,0.0021
2419.00,0.0020
2416.00,0.0020
2413.00,0.0020
2410.00,0.0020
2407.00,0.0019
2404.00,0.0018
2401.00,0.0018
2398.00,0.0018
2395.00,0.0018
2392.00,0.0019
2389.00,0.0018
2386.00,0.0018
2383.00,0.0018
2380.00,0.0018
2377.00,0.0019
2374.00,0.0018
2371.00,0.0019
2368.00,0.0018
2365.00,0.0019
2362.00,0.0021
2359.00,0.0022
2356.00,0.0022
2353.00,0.0022
2350.00,0.0024
2347.00,0.0026
2344.00,0.0026
2341.00,0.0027
2338.00,0.0028
2335.00,0.0029
2332.00,0.0027
2329.00,0.0028
2326.00,0.0037
2323.00,0.0037
2320.00,0.0033
2317.00,0.0032
2314.00,0.0032
2311.00,0.0031
2308.00,0.0030
2305.00,0.0029
2302.00,0.0028
2299.00,0.0029
2296.00,0.0029
2293.00,0.0031
2290.00,0.0032
2287.00,0.0034
2284.00,0.0032
2281.00,0.0030
2278.00,0.0028
2275.00,0.0028
2272.00,0.0028
2269.00,0.0027
2266.00,0.0025
2263.00,0.0025
2260.00,0.0026
2257.00,0.0024
2254.00,0.0022
2251.00,0.0021
2248.00,0.0022
2245.00,0.0022
2242.00,0.0022
2239.00,0.0022
2236.00,0.0022
2233.00,0.0023
2230.00,0.0021
2227.00,0.0019
2224.00,0.0020
2221.00,0.0021
2218.00,0.0022
2215.00,0.0021
2212.00,0.0020
2209.00,0.0020
2206.00,0.0019
2203.00,0.0021
2200.00,0.0021
2197.00,0.0021
2194.00,0.0020
2191.00,0.0023
2188.00,0.0023
2185.00,0.0021
2182.00,0.0016
2179.00,0.0017
2176.00,0.0015
2173.00,0.0018
2170.00,0.0024
2167.00,0.0027
2164.00,0.0028
2161.00,0.0012
2158.00,-0.0017
2155.00,-0.0008
2152.00,-0.0002
2149.00,0.0000
2146.00,-0.0001
2143.00,-0.0001
2140.00,0.0001
2137.00,-0.0003
2134.00,-0.0007
2131.00,-0.0001
2128.00,0.0002
2125.00,0.0006
2122.00,0.0009
2119.00,0.0014
2116.00,0.0017
2113.00,0.0017
2110.00,0.0017
2107.00,0.0015
2104.00,0.0015
2101.00,0.0016
2098.00,0.0014
2095.00,0.0009
2092.00,0.0013
2089.00,0.0016
2086.00,0.0016
2083.00,0.0016
2080.00,0.0017
2077.00,0.0018
2074.00,0.0016
2071.00,0.0016
2068.00,0.0015
2065.00,0.0014
2062.00,0.0012
2059.00,0.0014
2056.00,0.0014
2053.00,0.0020
2050.00,0.0021
2047.00,0.0014
2044.00,0.0013
2041.00,0.0013
2038.00,0.0017
2035.00,0.0019
2032.00,0.0010
2029.00,0.0011
2026.00,0.0006
2023.00,0.0002
2020.00,0.0002
2017.00,0.0003
2014.00,0.0006
2011.00,0.0011
2008.00,0.0007
2005.00,0.0003
2002.00,0.0004
1999.00,0.0012
1996.00,0.0015
1993.00,0.0014
1990.00,0.0017
1987.00,0.0022
1984.00,0.0027
1981.00,0.0032
1978.00,0.0015
1975.00,0.0009
1972.00,0.0011
1969.00,0.0014
1966.00,0.0018
1963.00,0.0021
1960.00,0.0021
1957.00,0.0027
1954.00,0.0032
1951.00,0.0037
1948.00,0.0041
1945.00,0.0046
1942.00,0.0046
1939.00,0.0044
1936.00,0.0038
1933.00,0.0029
1930.00,0.0023
1927.00,0.0021
1924.00,0.0018
1921.00,0.0017
1918.00,0.0016
1915.00,0.0015
1912.00,0.0016
1909.00,0.0017
1906.00,0.0017
1903.00,0.0017
1900.00,0.0019
1897.00,0.0023
1894.00,0.0026
1891.00,0.0029
1888.00,0.0032
1885.00,0.0035
1882.00,0.0038
1879.00,0.0040
1876.00,0.0043
1873.00,0.0046
1870.00,0.0047
1867.00,0.0044
1864.00,0.0042
1861.00,0.0036
1858.00,0.0029
1855.00,0.0024
1852.00,0.0021
1849.00,0.0020
1846.00,0.0019
1843.00,0.0019
1840.00,0.0017
1837.00,0.0018
1834.00,0.0019
1831.00,0.0021
1828.00,0.0024
1825.00,0.0027
1822.00,0.0030
1819.00,0.0031
1816.00,0.0034
1813.00,0.0040
1810.00,0.0044
1807.00,0.0049
1804.00,0.0053
1801.00,0.0052
1798.00,0.0050
1795.00,0.0044
1792.00,0.0039
1789.00,0.0033
1786.00,0.0030
1783.00,0.0029
1780.00,0.0029
1777.00,0.0029
1774.00,0.0029
1771.00,0.0029
1768.00,0.0030
1765.00,0.0031
1762.00,0.0035
1759.00,0.0039
1756.00,0.0044
1753.00,0.0050
1750.00,0.0055
1747.00,0.0059
1744.00,0.0062
1741.00,0.0062
1738.00,0.0062
1735.00,0.0060
1732.00,0.0056
1729.00,0.0052
1726.00,0.0049
1723.00,0.0046
1720.00,0.0044
1717.00,0.0041
1714.00,0.0039
1711.00,0.0039
1708.00,0.0038
1705.00,0.0037
1702.00,0.0036
1699.00,0.0036
1696.00,0.0036
1693.00,0.0036
1690.00,0.0038
1687.00,0.0039
1684.00,0.0041
1681.00,0.0041
1678.00,0.0043
1675.00,0.0044
1672.00,0.0044
1669.00,0.0045
1666.00,0.0045
1663.00,0.0045
1660.00,0.0043
1657.00,0.0041
1654.00,0.0041
1651.00,0.0037
1648.00,0.0036
1645.00,0.0036
1642.00,0.0035
1639.00,0.0035
1636.00,0.0035
1633.00,0.0036
1630.00,0.0037
1627.00,0.0039
1624.00,0.0041
1621.00,0.0044
1618.00,0.0047
1615.00,0.0054
1612.00,0.0068
1609.00,0.0104
1606.00,0.0183
1603.00,0.0284
1600.00,0.0301
1597.00,0.0216
1594.00,0.0142
1591.00,0.0106
1588.00,0.0098
1585.00,0.0124
1582.00,0.0129
1579.00,0.0090
1576.00,0.0063
1573.00,0.0051
1570.00,0.0045
1567.00,0.0041
1564.00,0.0040
1561.00,0.0040
1558.00,0.0040
1555.00,0.0043
1552.00,0.0047
1549.00,0.0051
1546.00,0.0054
1543.00,0.0055
1540.00,0.0053
1537.00,0.0051
1534.00,0.0049
1531.00,0.0045
1528.00,0.0042
1525.00,0.0038
1522.00,0.0038
1519.00,0.0038
1516.00,0.0040
1513.00,0.0043
1510.00,0.0047
1507.00,0.0053
1504.00,0.0070
1501.00,0.0106
1498.00,0.0233
1495.00,0.0590
1492.00,0.0755
1489.00,0.0454
1486.00,0.0238
1483.00,0.0147
1480.00,0.0104
1477.00,0.0086
1474.00,0.0079
1471.00,0.0077
1468.00,0.0081
1465.00,0.0089
1462.00,0.0109
1459.00,0.0164
1456.00,0.0439
1453.00,0.0737
1450.00,0.0724
1447.00,0.0548
1444.00,0.0427
1441.00,0.0329
1438.00,0.0258
1435.00,0.0184
1432.00,0.0139
1429.00,0.0106
1426.00,0.0089
1423.00,0.0079
1420.00,0.0075
1417.00,0.0070
1414.00,0.0067
1411.00,0.0066
1408.00,0.0065
1405.00,0.0064
1402.00,0.0064
1399.00,0.0065
1396.00,0.0069
1393.00,0.0077
1390.00,0.0090
1387.00,0.0107
1384.00,0.0122
1381.00,0.0137
1378.00,0.0151
1375.00,0.0164
1372.00,0.0169
1369.00,0.0167
1366.00,0.0163
1363.00,0.0159
1360.00,0.0152
1357.00,0.0146
1354.00,0.0142
1351.00,0.0141
1348.00,0.0139
1345.00,0.0134
1342.00,0.0127
1339.00,0.0122
1336.00,0.0123
1333.00,0.0131
1330.00,0.0141
1327.00,0.0142
1324.00,0.0136
1321.00,0.0132
1318.00,0.0132
1315.00,0.0136
1312.00,0.0139
1309.00,0.0136
1306.00,0.0130
1303.00,0.0122
1300.00,0.0115
1297.00,0.0111
1294.00,0.0108
1291.00,0.0106
1288.00,0.0102
1285.00,0.0100
1282.00,0.0100
1279.00,0.0098
1276.00,0.0092
1273.00,0.0086
1270.00,0.0080
1267.00,0.0078
1264.00,0.0076
1261.00,0.0075
1258.00,0.0074
1255.00,0.0075
1252.00,0.0076
1249.00,0.0078
1246.00,0.0079
1243.00,0.0080
1240.00,0.0079
1237.00,0.0078
1234.00,0.0077
1231.00,0.0076
1228.00,0.0077
1225.00,0.0077
1222.00,0.0077
1219.00,0.0077
1216.00,0.0078
1213.00,0.0081
1210.00,0.0085
1207.00,0.0091
1204.00,0.0098
1201.00,0.0107
1198.00,0.0114
1195.00,0.0117
1192.00,0.0118
1189.00,0.0122
1186.00,0.0135
1183.00,0.0157
1180.00,0.0159
1177.00,0.0129
1174.00,0.0105
1171.00,0.0095
1168.00,0.0092
1165.00,0.0093
1162.00,0.0101
1159.00,0.0126
1156.00,0.0158
1153.00,0.0157
1150.00,0.0119
1147.00,0.0092
1144.00,0.0078
1141.00,0.0070
1138.00,0.0065
1135.00,0.0063
1132.00,0.0062
1129.00,0.0063
1126.00,0.0065
1123.00,0.0068
1120.00,0.0074
1117.00,0.0082
1114.00,0.0089
1111.00,0.0092
1108.00,0.0090
1105.00,0.0088
1102.00,0.0090
1099.00,0.0093
1096.00,0.0098
1093.00,0.0102
1090.00,0.0107
1087.00,0.0115
1084.00,0.0128
1081.00,0.0144
1078.00,0.0159
1075.00,0.0181
1072.00,0.0209
1069.00,0.0223
1066.00,0.0213
1063.00,0.0187
1060.00,0.0163
1057.00,0.0145
1054.00,0.0132
1051.00,0.0124
1048.00,0.0117
1045.00,0.0113
1042.00,0.0114
1039.00,0.0125
1036.00,0.0168
1033.00,0.0265
1030.00,0.0368
1027.00,0.0390
1024.00,0.0316
1021.00,0.0248
1018.00,0.0206
1015.00,0.0178
1012.00,0.0161
1009.00,0.0152
1006.00,0.0158
1003.00,0.0165
1000.00,0.0144
997.00,0.0122
994.00,0.0115
991.00,0.0117
988.00,0.0123
985.00,0.0134
982.00,0.0146
979.00,0.0148
976.00,0.0140
973.00,0.0133
970.00,0.0141
967.00,0.0157
964.00,0.0164
961.00,0.0152
958.00,0.0132
955.00,0.0117
952.00,0.0114
949.00,0.0117
946.00,0.0123
943.00,0.0128
940.00,0.0123
937.00,0.0111
934.00,0.0099
931.00,0.0091
928.00,0.0088
925.00,0.0091
922.00,0.0097
919.00,0.0109
916.00,0.0134
913.00,0.0177
910.00,0.0229
907.00,0.0263
904.00,0.0247
901.00,0.0194
898.00,0.0140
895.00,0.0108
892.00,0.0093
889.00,0.0083
886.00,0.0077
883.00,0.0072
880.00,0.0070
877.00,0.0067
874.00,0.0065
871.00,0.0063
868.00,0.0062
865.00,0.0062
862.00,0.0062
859.00,0.0064
856.00,0.0065
853.00,0.0071
850.00,0.0088
847.00,0.0111
844.00,0.0131
841.00,0.0137
838.00,0.0122
835.00,0.0096
832.00,0.0074
829.00,0.0064
826.00,0.0060
823.00,0.0058
820.00,0.0058
817.00,0.0060
814.00,0.0061
811.00,0.0062
808.00,0.0065
805.00,0.0067
802.00,0.0071
799.00,0.0077
796.00,0.0089
793.00,0.0105
790.00,0.0125
787.00,0.0150
784.00,0.0179
781.00,0.0221
778.00,0.0281
775.00,0.0367
772.00,0.0478
769.00,0.0616
766.00,0.0756
763.00,0.0893
760.00,0.1037
757.00,0.1146
754.00,0.1175
751.00,0.1158
748.00,0.1139
745.00,0.1033
742.00,0.0812
739.00,0.0598
736.00,0.0430
733.00,0.0287
730.00,0.0192
727.00,0.0149
724.00,0.0134
721.00,0.0132
718.00,0.0138
715.00,0.0168
712.00,0.0250
709.00,0.0462
706.00,0.0898
703.00,0.1603
700.00,0.2560
697.00,0.3574
694.00,0.3694
691.00,0.2503
688.00,0.1527
685.00,0.1050
682.00,0.0797
679.00,0.0646
676.00,0.0550
673.00,0.0488
670.00,0.0444
667.00,0.0391
664.00,0.0351
661.00,0.0308
658.00,0.0268
655.00,0.0235
652.00,0.0209
649.00,0.0191
646.00,0.0178
643.00,0.0169
640.00,0.0170
637.00,0.0179
634.00,0.0192
631.00,0.0207
628.00,0.0217
625.00,0.0223
622.00,0.0237
619.00,0.0235
616.00,0.0215
613.00,0.0201
610.00,0.0193
607.00,0.0185
604.00,0.0182
601.00,0.0187
598.00,0.0193
595.00,0.0200
592.00,0.0210
589.00,0.0220
586.00,0.0229
583.00,0.0245
580.00,0.0273
577.00,0.0309
574.00,0.0355
571.00,0.0402
568.00,0.0445
565.00,0.0488
562.00,0.0535
559.00,0.0581
556.00,0.0628
553.00,0.0683
550.00,0.0750
547.00,0.0837
544.00,0.0950
541.00,0.1059
538.00,0.1106
535.00,0.1039
532.00,0.0880
529.00,0.0712
526.00,0.0577
523.00,0.0480
520.00,0.0413
517.00,0.0365
514.00,0.0331
511.00,0.0302
508.00,0.0270
505.00,0.0244
502.00,0.0226
499.00,0.0209
496.00,0.0196
493.00,0.0187
490.00,0.0174
487.00,0.0165
484.00,0.0161
481.00,0.0155
478.00,0.0148
475.00,0.0146
472.00,0.0145
469.00,0.0140
466.00,0.0141
463.00,0.0142
460.00,0.0133
457.00,0.0127
454.00,0.0126
451.00,0.0129
448.00,0.0132
445.00,0.0127
442.00,0.0122
439.00,0.0121
436.00,0.0117
433.00,0.0109
430.00,0.0103
427.00,0.0100
424.00,0.0106
421.00,0.0090
418.00,0.0085
415.00,0.0101
412.00,0.0112
409.00,0.0131
406.00,0.0128
403.00,0.0109
400.00,0.0089