File: FTIR/Olivia/2025_06_24_Polystyrene_Std_scan1.csv
Created as New Dataset,Sample 715 By YargerLab Date Monday, June 23 2025
cm-1,A
4000.00,0.0020
3997.00,0.0020
3994.00,0.0019
3991.00,0.0019
3988.00,0.0020
3985.00,0.0020
3982.00,0.0020
3979.00,0.0020
3976.00,0.0019
3973.00,0.0019
3970.00,0.0019
3967.00,0.0019
3964.00,0.0019
3961.00,0.0019
3958.00,0.0019
3955.00,0.0019
3952.00,0.0019
3949.00,0.0020
3946.00,0.0020
3943.00,0.0019
3940.00,0.0019
3937.00,0.0019
3934.00,0.0020
3931.00,0.0020
3928.00,0.0020
3925.00,0.0020
3922.00,0.0019
3919.00,0.0019
3916.00,0.0019
3913.00,0.0019
3910.00,0.0019
3907.00,0.0019
3904.00,0.0020
3901.00,0.0021
3898.00,0.0020
3895.00,0.0020
3892.00,0.0020
3889.00,0.0020
3886.00,0.0020
3883.00,0.0020
3880.00,0.0020
3877.00,0.0020
3874.00,0.0020
3871.00,0.0020
3868.00,0.0020
3865.00,0.0020
3862.00,0.0020
3859.00,0.0020
3856.00,0.0021
3853.00,0.0022
3850.00,0.0022
3847.00,0.0020
3844.00,0.0019
3841.00,0.0020
3838.00,0.0021
3835.00,0.0022
3832.00,0.0021
3829.00,0.0020
3826.00,0.0020
3823.00,0.0021
3820.00,0.0021
3817.00,0.0021
3814.00,0.0021
3811.00,0.0020
3808.00,0.0020
3805.00,0.0021
3802.00,0.0022
3799.00,0.0022
3796.00,0.0021
3793.00,0.0020
3790.00,0.0020
3787.00,0.0019
3784.00,0.0020
3781.00,0.0020
3778.00,0.0019
3775.00,0.0020
3772.00,0.0020
3769.00,0.0020
3766.00,0.0021
3763.00,0.0021
3760.00,0.0021
3757.00,0.0020
3754.00,0.0022
3751.00,0.0024
3748.00,0.0024
3745.00,0.0023
3742.00,0.0022
3739.00,0.0022
3736.00,0.0021
3733.00,0.0021
3730.00,0.0021
3727.00,0.0020
3724.00,0.0020
3721.00,0.0020
3718.00,0.0020
3715.00,0.0020
3712.00,0.0021
3709.00,0.0020
3706.00,0.0019
3703.00,0.0019
3700.00,0.0019
3697.00,0.0019
3694.00,0.0019
3691.00,0.0019
3688.00,0.0019
3685.00,0.0018
3682.00,0.0016
3679.00,0.0015
3676.00,0.0015
3673.00,0.0014
3670.00,0.0014
3667.00,0.0013
3664.00,0.0012
3661.00,0.0011
3658.00,0.0011
3655.00,0.0012
3652.00,0.0014
3649.00,0.0015
3646.00,0.0015
3643.00,0.0015
3640.00,0.0014
3637.00,0.0014
3634.00,0.0015
3631.00,0.0017
3628.00,0.0018
3625.00,0.0018
3622.00,0.0018
3619.00,0.0019
3616.00,0.0019
3613.00,0.0019
3610.00,0.0019
3607.00,0.0019
3604.00,0.0019
3601.00,0.0019
3598.00,0.0018
3595.00,0.0018
3592.00,0.0019
3589.00,0.0019
3586.00,0.0019
3583.00,0.0019
3580.00,0.0019
3577.00,0.0019
3574.00,0.0019
3571.00,0.0019
3568.00,0.0019
3565.00,0.0019
3562.00,0.0019
3559.00,0.0019
3556.00,0.0019
3553.00,0.0019
3550.00,0.0020
3547.00,0.0020
3544.00,0.0020
3541.00,0.0020
3538.00,0.0020
3535.00,0.0020
3532.00,0.0021
3529.00,0.0021
3526.00,0.0021
3523.00,0.0021
3520.00,0.0020
3517.00,0.0021
3514.00,0.0021
3511.00,0.0021
3508.00,0.0021
3505.00,0.0022
3502.00,0.0022
3499.00,0.0022
3496.00,0.0022
3493.00,0.0023
3490.00,0.0022
3487.00,0.0022
3484.00,0.0022
3481.00,0.0022
3478.00,0.0022
3475.00,0.0023
3472.00,0.0022
3469.00,0.0023
3466.00,0.0023
3463.00,0.0023
3460.00,0.0023
3457.00,0.0023
3454.00,0.0023
3451.00,0.0023
3448.00,0.0023
3445.00,0.0023
3442.00,0.0023
3439.00,0.0023
3436.00,0.0024
3433.00,0.0024
3430.00,0.0023
3427.00,0.0023
3424.00,0.0023
3421.00,0.0023
3418.00,0.0023
3415.00,0.0024
3412.00,0.0024
3409.00,0.0023
3406.00,0.0023
3403.00,0.0023
3400.00,0.0023
3397.00,0.0023
3394.00,0.0024
3391.00,0.0024
3388.00,0.0023
3385.00,0.0023
3382.00,0.0024
3379.00,0.0023
3376.00,0.0023
3373.00,0.0024
3370.00,0.0024
3367.00,0.0023
3364.00,0.0023
3361.00,0.0024
3358.00,0.0024
3355.00,0.0024
3352.00,0.0024
3349.00,0.0024
3346.00,0.0023
3343.00,0.0023
3340.00,0.0023
3337.00,0.0023
3334.00,0.0024
3331.00,0.0024
3328.00,0.0024
3325.00,0.0023
3322.00,0.0024
3319.00,0.0023
3316.00,0.0023
3313.00,0.0024
3310.00,0.0024
3307.00,0.0024
3304.00,0.0023
3301.00,0.0023
3298.00,0.0024
3295.00,0.0023
3292.00,0.0023
3289.00,0.0023
3286.00,0.0023
3283.00,0.0023
3280.00,0.0023
3277.00,0.0024
3274.00,0.0024
3271.00,0.0023
3268.00,0.0023
3265.00,0.0023
3262.00,0.0022
3259.00,0.0022
3256.00,0.0022
3253.00,0.0023
3250.00,0.0022
3247.00,0.0022
3244.00,0.0022
3241.00,0.0022
3238.00,0.0021
3235.00,0.0021
3232.00,0.0021
3229.00,0.0021
3226.00,0.0021
3223.00,0.0021
3220.00,0.0022
3217.00,0.0022
3214.00,0.0022
3211.00,0.0022
3208.00,0.0022
3205.00,0.0023
3202.00,0.0022
3199.00,0.0022
3196.00,0.0022
3193.00,0.0021
3190.00,0.0021
3187.00,0.0021
3184.00,0.0021
3181.00,0.0021
3178.00,0.0021
3175.00,0.0021
3172.00,0.0021
3169.00,0.0022
3166.00,0.0022
3163.00,0.0023
3160.00,0.0022
3157.00,0.0022
3154.00,0.0021
3151.00,0.0021
3148.00,0.0022
3145.00,0.0022
3142.00,0.0022
3139.00,0.0021
3136.00,0.0021
3133.00,0.0021
3130.00,0.0022
3127.00,0.0022
3124.00,0.0022
3121.00,0.0024
3118.00,0.0025
3115.00,0.0027
3112.00,0.0031
3109.00,0.0037
3106.00,0.0043
3103.00,0.0046
3100.00,0.0045
3097.00,0.0043
3094.00,0.0046
3091.00,0.0055
3088.00,0.0073
3085.00,0.0093
3082.00,0.0102
3079.00,0.0093
3076.00,0.0080
3073.00,0.0077
3070.00,0.0082
3067.00,0.0097
3064.00,0.0119
3061.00,0.0137
3058.00,0.0135
3055.00,0.0115
3052.00,0.0094
3049.00,0.0080
3046.00,0.0074
3043.00,0.0076
3040.00,0.0086
3037.00,0.0105
3034.00,0.0138
3031.00,0.0188
3028.00,0.0241
3025.00,0.0261
3022.00,0.0225
3019.00,0.0161
3016.00,0.0108
3013.00,0.0077
3010.00,0.0061
3007.00,0.0054
3004.00,0.0054
3001.00,0.0050
2998.00,0.0035
2995.00,0.0018
2992.00,0.0006
2989.00,-0.0000
2986.00,-0.0008
2983.00,-0.0027
2980.00,-0.0031
2977.00,-0.0018
2974.00,-0.0012
2971.00,-0.0010
2968.00,0.0002
2965.00,0.0014
2962.00,0.0025
2959.00,0.0036
2956.00,0.0048
2953.00,0.0061
2950.00,0.0076
2947.00,0.0095
2944.00,0.0117
2941.00,0.0144
2938.00,0.0174
2935.00,0.0209
2932.00,0.0245
2929.00,0.0278
2926.00,0.0304
2923.00,0.0318
2920.00,0.0318
2917.00,0.0306
2914.00,0.0285
2911.00,0.0259
2908.00,0.0232
2905.00,0.0207
2902.00,0.0182
2899.00,0.0157
2896.00,0.0136
2893.00,0.0119
2890.00,0.0105
2887.00,0.0095
2884.00,0.0088
2881.00,0.0084
2878.00,0.0080
2875.00,0.0077
2872.00,0.0075
2869.00,0.0075
2866.00,0.0079
2863.00,0.0089
2860.00,0.0103
2857.00,0.0120
2854.00,0.0137
2851.00,0.0148
2848.00,0.0148
2845.00,0.0134
2842.00,0.0111
2839.00,0.0086
2836.00,0.0066
2833.00,0.0052
2830.00,0.0044
2827.00,0.0040
2824.00,0.0038
2821.00,0.0036
2818.00,0.0035
2815.00,0.0035
2812.00,0.0035
2809.00,0.0034
2806.00,0.0033
2803.00,0.0032
2800.00,0.0032
2797.00,0.0031
2794.00,0.0030
2791.00,0.0029
2788.00,0.0029
2785.00,0.0029
2782.00,0.0029
2779.00,0.0028
2776.00,0.0028
2773.00,0.0028
2770.00,0.0027
2767.00,0.0027
2764.00,0.0027
2761.00,0.0026
2758.00,0.0026
2755.00,0.0026
2752.00,0.0026
2749.00,0.0026
2746.00,0.0026
2743.00,0.0026
2740.00,0.0026
2737.00,0.0026
2734.00,0.0026
2731.00,0.0026
2728.00,0.0026
2725.00,0.0027
2722.00,0.0026
2719.00,0.0026
2716.00,0.0026
2713.00,0.0027
2710.00,0.0026
2707.00,0.0026
2704.00,0.0026
2701.00,0.0026
2698.00,0.0026
2695.00,0.0026
2692.00,0.0026
2689.00,0.0026
2686.00,0.0026
2683.00,0.0026
2680.00,0.0026
2677.00,0.0026
2674.00,0.0026
2671.00,0.0026
2668.00,0.0026
2665.00,0.0027
2662.00,0.0029
2659.00,0.0030
2656.00,0.0030
2653.00,0.0031
2650.00,0.0031
2647.00,0.0031
2644.00,0.0031
2641.00,0.0031
2638.00,0.0031
2635.00,0.0032
2632.00,0.0031
2629.00,0.0031
2626.00,0.0030
2623.00,0.0029
2620.00,0.0029
2617.00,0.0028
2614.00,0.0028
2611.00,0.0028
2608.00,0.0029
2605.00,0.0029
2602.00,0.0029
2599.00,0.0029
2596.00,0.0028
2593.00,0.0027
2590.00,0.0026
2587.00,0.0026
2584.00,0.0027
2581.00,0.0027
2578.00,0.0026
2575.00,0.0025
2572.00,0.0025
2569.00,0.0025
2566.00,0.0025
2563.00,0.0024
2560.00,0.0024
2557.00,0.0023
2554.00,0.0023
2551.00,0.0024
2548.00,0.0024
2545.00,0.0023
2542.00,0.0022
2539.00,0.0022
2536.00,0.0022
2533.00,0.0023
2530.00,0.0022
2527.00,0.0022
2524.00,0.0022
2521.00,0.0023
2518.00,0.0023
2515.00,0.0023
2512.00,0.0023
2509.00,0.0023
2506.00,0.0023
2503.00,0.0023
2500.00,0.0023
2497.00,0.0022
2494.00,0.0022
2491.00,0.0022
2488.00,0.0022
2485.00,0.0022
2482.00,0.0021
2479.00,0.0021
2476.00,0.0020
2473.00,0.0020
2470.00,0.0020
2467.00,0.0020
2464.00,0.0021
2461.00,0.0021
2458.00,0.0021
2455.00,0.0021
2452.00,0.0021
2449.00,0.0021
2446.00,0.0021
2443.00,0.0020
2440.00,0.0020
2437.00,0.0020
2434.00,0.0019
2431.00,0.0019
2428.00,0.0019
2425.00,0.0018
2422.00,0.0018
2419.00,0.0018
2416.00,0.0018
2413.00,0.0019
2410.00,0.0018
2407.00,0.0017
2404.00,0.0017
2401.00,0.0017
2398.00,0.0016
2395.00,0.0017
2392.00,0.0017
2389.00,0.0017
2386.00,0.0016
2383.00,0.0016
2380.00,0.0017
2377.00,0.0016
2374.00,0.0017
2371.00,0.0016
2368.00,0.0016
2365.00,0.0017
2362.00,0.0018
2359.00,0.0019
2356.00,0.0018
2353.00,0.0017
2350.00,0.0017
2347.00,0.0022
2344.00,0.0024
2341.00,0.0024
2338.00,0.0025
2335.00,0.0024
2332.00,0.0023
2329.00,0.0024
2326.00,0.0033
2323.00,0.0031
2320.00,0.0027
2317.00,0.0026
2314.00,0.0027
2311.00,0.0027
2308.00,0.0026
2305.00,0.0024
2302.00,0.0024
2299.00,0.0025
2296.00,0.0026
2293.00,0.0028
2290.00,0.0030
2287.00,0.0031
2284.00,0.0029
2281.00,0.0028
2278.00,0.0027
2275.00,0.0026
2272.00,0.0026
2269.00,0.0024
2266.00,0.0022
2263.00,0.0023
2260.00,0.0025
2257.00,0.0023
2254.00,0.0021
2251.00,0.0022
2248.00,0.0021
2245.00,0.0021
2242.00,0.0023
2239.00,0.0021
2236.00,0.0021
2233.00,0.0021
2230.00,0.0020
2227.00,0.0020
2224.00,0.0020
2221.00,0.0020
2218.00,0.0020
2215.00,0.0020
2212.00,0.0020
2209.00,0.0020
2206.00,0.0020
2203.00,0.0020
2200.00,0.0020
2197.00,0.0019
2194.00,0.0022
2191.00,0.0023
2188.00,0.0021
2185.00,0.0017
2182.00,0.0012
2179.00,0.0016
2176.00,0.0014
2173.00,0.0016
2170.00,0.0023
2167.00,0.0026
2164.00,0.0033
2161.00,0.0019
2158.00,-0.0015
2155.00,-0.0008
2152.00,-0.0001
2149.00,-0.0001
2146.00,-0.0003
2143.00,-0.0002
2140.00,-0.0001
2137.00,-0.0004
2134.00,-0.0007
2131.00,-0.0002
2128.00,0.0001
2125.00,0.0006
2122.00,0.0009
2119.00,0.0011
2116.00,0.0015
2113.00,0.0017
2110.00,0.0016
2107.00,0.0014
2104.00,0.0014
2101.00,0.0014
2098.00,0.0013
2095.00,0.0010
2092.00,0.0013
2089.00,0.0014
2086.00,0.0015
2083.00,0.0018
2080.00,0.0018
2077.00,0.0016
2074.00,0.0014
2071.00,0.0014
2068.00,0.0014
2065.00,0.0013
2062.00,0.0014
2059.00,0.0015
2056.00,0.0013
2053.00,0.0020
2050.00,0.0022
2047.00,0.0014
2044.00,0.0014
2041.00,0.0013
2038.00,0.0017
2035.00,0.0013
2032.00,0.0009
2029.00,0.0011
2026.00,0.0010
2023.00,0.0008
2020.00,0.0006
2017.00,0.0006
2014.00,0.0006
2011.00,0.0007
2008.00,0.0002
2005.00,-0.0001
2002.00,0.0005
1999.00,0.0010
1996.00,0.0012
1993.00,0.0012
1990.00,0.0014
1987.00,0.0020
1984.00,0.0027
1981.00,0.0031
1978.00,0.0015
1975.00,0.0012
1972.00,0.0014
1969.00,0.0016
1966.00,0.0017
1963.00,0.0017
1960.00,0.0014
1957.00,0.0022
1954.00,0.0028
1951.00,0.0034
1948.00,0.0038
1945.00,0.0040
1942.00,0.0040
1939.00,0.0039
1936.00,0.0035
1933.00,0.0027
1930.00,0.0021
1927.00,0.0018
1924.00,0.0016
1921.00,0.0017
1918.00,0.0016
1915.00,0.0016
1912.00,0.0015
1909.00,0.0015
1906.00,0.0016
1903.00,0.0017
1900.00,0.0019
1897.00,0.0021
1894.00,0.0024
1891.00,0.0027
1888.00,0.0030
1885.00,0.0033
1882.00,0.0036
1879.00,0.0037
1876.00,0.0039
1873.00,0.0041
1870.00,0.0042
1867.00,0.0041
1864.00,0.0038
1861.00,0.0033
1858.00,0.0028
1855.00,0.0025
1852.00,0.0021
1849.00,0.0019
1846.00,0.0017
1843.00,0.0016
1840.00,0.0017
1837.00,0.0017
1834.00,0.0018
1831.00,0.0021
1828.00,0.0023
1825.00,0.0025
1822.00,0.0028
1819.00,0.0029
1816.00,0.0032
1813.00,0.0037
1810.00,0.0041
1807.00,0.0045
1804.00,0.0048
1801.00,0.0048
1798.00,0.0046
1795.00,0.0041
1792.00,0.0035
1789.00,0.0031
1786.00,0.0028
1783.00,0.0027
1780.00,0.0027
1777.00,0.0028
1774.00,0.0028
1771.00,0.0028
1768.00,0.0029
1765.00,0.0030
1762.00,0.0033
1759.00,0.0037
1756.00,0.0042
1753.00,0.0046
1750.00,0.0051
1747.00,0.0055
1744.00,0.0058
1741.00,0.0059
1738.00,0.0057
1735.00,0.0055
1732.00,0.0053
1729.00,0.0050
1726.00,0.0048
1723.00,0.0046
1720.00,0.0044
1717.00,0.0043
1714.00,0.0041
1711.00,0.0040
1708.00,0.0039
1705.00,0.0039
1702.00,0.0039
1699.00,0.0038
1696.00,0.0038
1693.00,0.0037
1690.00,0.0038
1687.00,0.0039
1684.00,0.0041
1681.00,0.0041
1678.00,0.0042
1675.00,0.0043
1672.00,0.0044
1669.00,0.0044
1666.00,0.0044
1663.00,0.0043
1660.00,0.0042
1657.00,0.0041
1654.00,0.0040
1651.00,0.0038
1648.00,0.0037
1645.00,0.0036
1642.00,0.0036
1639.00,0.0036
1636.00,0.0036
1633.00,0.0037
1630.00,0.0038
1627.00,0.0039
1624.00,0.0040
1621.00,0.0042
1618.00,0.0045
1615.00,0.0052
1612.00,0.0063
1609.00,0.0094
1606.00,0.0163
1603.00,0.0250
1600.00,0.0266
1597.00,0.0192
1594.00,0.0127
1591.00,0.0096
1588.00,0.0089
1585.00,0.0113
1582.00,0.0118
1579.00,0.0084
1576.00,0.0062
1573.00,0.0051
1570.00,0.0045
1567.00,0.0041
1564.00,0.0039
1561.00,0.0040
1558.00,0.0040
1555.00,0.0042
1552.00,0.0045
1549.00,0.0050
1546.00,0.0053
1543.00,0.0056
1540.00,0.0056
1537.00,0.0053
1534.00,0.0049
1531.00,0.0044
1528.00,0.0042
1525.00,0.0040
1522.00,0.0039
1519.00,0.0039
1516.00,0.0039
1513.00,0.0042
1510.00,0.0045
1507.00,0.0051
1504.00,0.0066
1501.00,0.0097
1498.00,0.0208
1495.00,0.0518
1492.00,0.0662
1489.00,0.0401
1486.00,0.0212
1483.00,0.0131
1480.00,0.0094
1477.00,0.0078
1474.00,0.0070
1471.00,0.0071
1468.00,0.0077
1465.00,0.0083
1462.00,0.0098
1459.00,0.0148
1456.00,0.0384
1453.00,0.0652
1450.00,0.0639
1447.00,0.0485
1444.00,0.0380
1441.00,0.0294
1438.00,0.0231
1435.00,0.0167
1432.00,0.0127
1429.00,0.0098
1426.00,0.0083
1423.00,0.0074
1420.00,0.0069
1417.00,0.0064
1414.00,0.0061
1411.00,0.0059
1408.00,0.0056
1405.00,0.0053
1402.00,0.0049
1399.00,0.0045
1396.00,0.0045
1393.00,0.0051
1390.00,0.0062
1387.00,0.0075
1384.00,0.0090
1381.00,0.0103
1378.00,0.0118
1375.00,0.0131
1372.00,0.0138
1369.00,0.0139
1366.00,0.0139
1363.00,0.0136
1360.00,0.0132
1357.00,0.0127
1354.00,0.0125
1351.00,0.0125
1348.00,0.0124
1345.00,0.0120
1342.00,0.0114
1339.00,0.0109
1336.00,0.0111
1333.00,0.0119
1330.00,0.0128
1327.00,0.0130
1324.00,0.0125
1321.00,0.0121
1318.00,0.0122
1315.00,0.0126
1312.00,0.0129
1309.00,0.0126
1306.00,0.0120
1303.00,0.0114
1300.00,0.0109
1297.00,0.0104
1294.00,0.0102
1291.00,0.0099
1288.00,0.0095
1285.00,0.0093
1282.00,0.0092
1279.00,0.0089
1276.00,0.0082
1273.00,0.0075
1270.00,0.0069
1267.00,0.0064
1264.00,0.0062
1261.00,0.0060
1258.00,0.0059
1255.00,0.0058
1252.00,0.0058
1249.00,0.0060
1246.00,0.0063
1243.00,0.0063
1240.00,0.0063
1237.00,0.0063
1234.00,0.0065
1231.00,0.0066
1228.00,0.0069
1225.00,0.0070
1222.00,0.0070
1219.00,0.0071
1216.00,0.0074
1213.00,0.0077
1210.00,0.0081
1207.00,0.0086
1204.00,0.0094
1201.00,0.0102
1198.00,0.0107
1195.00,0.0109
1192.00,0.0110
1189.00,0.0111
1186.00,0.0121
1183.00,0.0139
1180.00,0.0138
1177.00,0.0110
1174.00,0.0086
1171.00,0.0075
1168.00,0.0071
1165.00,0.0069
1162.00,0.0075
1159.00,0.0095
1156.00,0.0123
1153.00,0.0122
1150.00,0.0089
1147.00,0.0065
1144.00,0.0054
1141.00,0.0048
1138.00,0.0045
1135.00,0.0044
1132.00,0.0045
1129.00,0.0047
1126.00,0.0049
1123.00,0.0053
1120.00,0.0060
1117.00,0.0069
1114.00,0.0076
1111.00,0.0079
1108.00,0.0078
1105.00,0.0078
1102.00,0.0078
1099.00,0.0079
1096.00,0.0082
1093.00,0.0084
1090.00,0.0086
1087.00,0.0092
1084.00,0.0102
1081.00,0.0116
1078.00,0.0130
1075.00,0.0150
1072.00,0.0175
1069.00,0.0188
1066.00,0.0180
1063.00,0.0159
1060.00,0.0139
1057.00,0.0125
1054.00,0.0117
1051.00,0.0111
1048.00,0.0106
1045.00,0.0104
1042.00,0.0105
1039.00,0.0116
1036.00,0.0156
1033.00,0.0244
1030.00,0.0333
1027.00,0.0351
1024.00,0.0288
1021.00,0.0226
1018.00,0.0189
1015.00,0.0165
1012.00,0.0150
1009.00,0.0142
1006.00,0.0148
1003.00,0.0153
1000.00,0.0133
997.00,0.0113
994.00,0.0108
991.00,0.0109
988.00,0.0115
985.00,0.0124
982.00,0.0132
979.00,0.0132
976.00,0.0122
973.00,0.0112
970.00,0.0114
967.00,0.0125
964.00,0.0132
961.00,0.0121
958.00,0.0100
955.00,0.0087
952.00,0.0086
949.00,0.0091
946.00,0.0098
943.00,0.0102
940.00,0.0099
937.00,0.0092
934.00,0.0084
931.00,0.0080
928.00,0.0079
925.00,0.0083
922.00,0.0091
919.00,0.0103
916.00,0.0126
913.00,0.0165
910.00,0.0215
907.00,0.0247
904.00,0.0233
901.00,0.0184
898.00,0.0134
895.00,0.0104
892.00,0.0090
889.00,0.0083
886.00,0.0077
883.00,0.0073
880.00,0.0070
877.00,0.0066
874.00,0.0064
871.00,0.0063
868.00,0.0062
865.00,0.0062
862.00,0.0062
859.00,0.0063
856.00,0.0065
853.00,0.0073
850.00,0.0086
847.00,0.0107
844.00,0.0125
841.00,0.0130
838.00,0.0115
835.00,0.0090
832.00,0.0070
829.00,0.0061
826.00,0.0059
823.00,0.0058
820.00,0.0057
817.00,0.0057
814.00,0.0057
811.00,0.0061
808.00,0.0063
805.00,0.0065
802.00,0.0069
799.00,0.0075
796.00,0.0086
793.00,0.0101
790.00,0.0121
787.00,0.0146
784.00,0.0172
781.00,0.0207
778.00,0.0263
775.00,0.0344
772.00,0.0448
769.00,0.0575
766.00,0.0705
763.00,0.0831
760.00,0.0968
757.00,0.1074
754.00,0.1104
751.00,0.1091
748.00,0.1078
745.00,0.0982
742.00,0.0773
739.00,0.0567
736.00,0.0405
733.00,0.0270
730.00,0.0184
727.00,0.0146
724.00,0.0131
721.00,0.0128
718.00,0.0135
715.00,0.0161
712.00,0.0236
709.00,0.0431
706.00,0.0833
703.00,0.1489
700.00,0.2360
697.00,0.3299
694.00,0.3554
691.00,0.2519
688.00,0.1551
685.00,0.1060
682.00,0.0804
679.00,0.0647
676.00,0.0550
673.00,0.0485
670.00,0.0439
667.00,0.0385
664.00,0.0344
661.00,0.0301
658.00,0.0264
655.00,0.0232
652.00,0.0209
649.00,0.0190
646.00,0.0175
643.00,0.0167
640.00,0.0167
637.00,0.0176
634.00,0.0189
631.00,0.0203
628.00,0.0213
625.00,0.0219
622.00,0.0232
619.00,0.0227
616.00,0.0207
613.00,0.0195
610.00,0.0180
607.00,0.0180
604.00,0.0179
601.00,0.0183
598.00,0.0190
595.00,0.0196
592.00,0.0205
589.00,0.0214
586.00,0.0224
583.00,0.0239
580.00,0.0264
577.00,0.0301
574.00,0.0344
571.00,0.0399
568.00,0.0439
565.00,0.0478
562.00,0.0518
559.00,0.0561
556.00,0.0608
553.00,0.0660
550.00,0.0722
547.00,0.0810
544.00,0.0916
541.00,0.1028
538.00,0.1083
535.00,0.1026
532.00,0.0872
529.00,0.0706
526.00,0.0563
523.00,0.0465
520.00,0.0400
517.00,0.0353
514.00,0.0325
511.00,0.0295
508.00,0.0267
505.00,0.0242
502.00,0.0218
499.00,0.0200
496.00,0.0189
493.00,0.0180
490.00,0.0171
487.00,0.0164
484.00,0.0157
481.00,0.0151
478.00,0.0147
475.00,0.0145
472.00,0.0144
469.00,0.0139
466.00,0.0132
463.00,0.0129
460.00,0.0121
457.00,0.0126
454.00,0.0120
451.00,0.0128
448.00,0.0126
445.00,0.0119
442.00,0.0114
439.00,0.0116
436.00,0.0115
433.00,0.0100
430.00,0.0100
427.00,0.0111
424.00,0.0109
421.00,0.0100
418.00,0.0092
415.00,0.0100
412.00,0.0097
409.00,0.0108
406.00,0.0135
403.00,0.0128
400.00,0.0090