File: FTIR/Olivia/2025_06_05_Putative_Cocrystal_Sorbic_CBD_Scan1.csv
Created as New Dataset,Sample 588 By YargerLab Date Thursday, June 05 2025
cm-1,A
4000.00,0.0030
3997.00,0.0030
3994.00,0.0030
3991.00,0.0030
3988.00,0.0030
3985.00,0.0030
3982.00,0.0030
3979.00,0.0030
3976.00,0.0030
3973.00,0.0030
3970.00,0.0030
3967.00,0.0030
3964.00,0.0030
3961.00,0.0030
3958.00,0.0030
3955.00,0.0030
3952.00,0.0030
3949.00,0.0030
3946.00,0.0030
3943.00,0.0030
3940.00,0.0030
3937.00,0.0030
3934.00,0.0029
3931.00,0.0029
3928.00,0.0030
3925.00,0.0030
3922.00,0.0029
3919.00,0.0029
3916.00,0.0029
3913.00,0.0029
3910.00,0.0029
3907.00,0.0029
3904.00,0.0029
3901.00,0.0028
3898.00,0.0029
3895.00,0.0029
3892.00,0.0030
3889.00,0.0029
3886.00,0.0028
3883.00,0.0028
3880.00,0.0028
3877.00,0.0029
3874.00,0.0028
3871.00,0.0028
3868.00,0.0028
3865.00,0.0028
3862.00,0.0029
3859.00,0.0028
3856.00,0.0029
3853.00,0.0028
3850.00,0.0028
3847.00,0.0028
3844.00,0.0029
3841.00,0.0028
3838.00,0.0028
3835.00,0.0028
3832.00,0.0028
3829.00,0.0028
3826.00,0.0028
3823.00,0.0028
3820.00,0.0028
3817.00,0.0027
3814.00,0.0028
3811.00,0.0027
3808.00,0.0028
3805.00,0.0029
3802.00,0.0028
3799.00,0.0028
3796.00,0.0028
3793.00,0.0028
3790.00,0.0028
3787.00,0.0028
3784.00,0.0028
3781.00,0.0028
3778.00,0.0028
3775.00,0.0027
3772.00,0.0028
3769.00,0.0027
3766.00,0.0027
3763.00,0.0028
3760.00,0.0027
3757.00,0.0028
3754.00,0.0027
3751.00,0.0026
3748.00,0.0026
3745.00,0.0026
3742.00,0.0026
3739.00,0.0025
3736.00,0.0025
3733.00,0.0024
3730.00,0.0025
3727.00,0.0025
3724.00,0.0026
3721.00,0.0025
3718.00,0.0025
3715.00,0.0026
3712.00,0.0026
3709.00,0.0026
3706.00,0.0025
3703.00,0.0025
3700.00,0.0025
3697.00,0.0025
3694.00,0.0026
3691.00,0.0024
3688.00,0.0023
3685.00,0.0023
3682.00,0.0024
3679.00,0.0024
3676.00,0.0022
3673.00,0.0022
3670.00,0.0021
3667.00,0.0021
3664.00,0.0022
3661.00,0.0022
3658.00,0.0021
3655.00,0.0021
3652.00,0.0021
3649.00,0.0021
3646.00,0.0022
3643.00,0.0021
3640.00,0.0022
3637.00,0.0022
3634.00,0.0023
3631.00,0.0023
3628.00,0.0023
3625.00,0.0023
3622.00,0.0023
3619.00,0.0023
3616.00,0.0024
3613.00,0.0024
3610.00,0.0023
3607.00,0.0023
3604.00,0.0023
3601.00,0.0024
3598.00,0.0024
3595.00,0.0024
3592.00,0.0024
3589.00,0.0024
3586.00,0.0025
3583.00,0.0025
3580.00,0.0025
3577.00,0.0026
3574.00,0.0025
3571.00,0.0025
3568.00,0.0025
3565.00,0.0026
3562.00,0.0026
3559.00,0.0027
3556.00,0.0028
3553.00,0.0028
3550.00,0.0028
3547.00,0.0028
3544.00,0.0029
3541.00,0.0030
3538.00,0.0031
3535.00,0.0031
3532.00,0.0032
3529.00,0.0033
3526.00,0.0033
3523.00,0.0034
3520.00,0.0036
3517.00,0.0037
3514.00,0.0038
3511.00,0.0040
3508.00,0.0042
3505.00,0.0043
3502.00,0.0045
3499.00,0.0047
3496.00,0.0051
3493.00,0.0055
3490.00,0.0058
3487.00,0.0061
3484.00,0.0066
3481.00,0.0070
3478.00,0.0075
3475.00,0.0081
3472.00,0.0089
3469.00,0.0099
3466.00,0.0113
3463.00,0.0134
3460.00,0.0165
3457.00,0.0202
3454.00,0.0240
3451.00,0.0263
3448.00,0.0259
3445.00,0.0235
3442.00,0.0202
3439.00,0.0173
3436.00,0.0149
3433.00,0.0130
3430.00,0.0116
3427.00,0.0105
3424.00,0.0096
3421.00,0.0089
3418.00,0.0085
3415.00,0.0080
3412.00,0.0077
3409.00,0.0075
3406.00,0.0073
3403.00,0.0072
3400.00,0.0071
3397.00,0.0070
3394.00,0.0069
3391.00,0.0069
3388.00,0.0069
3385.00,0.0069
3382.00,0.0069
3379.00,0.0069
3376.00,0.0069
3373.00,0.0069
3370.00,0.0068
3367.00,0.0069
3364.00,0.0069
3361.00,0.0069
3358.00,0.0069
3355.00,0.0070
3352.00,0.0071
3349.00,0.0072
3346.00,0.0072
3343.00,0.0072
3340.00,0.0073
3337.00,0.0074
3334.00,0.0075
3331.00,0.0076
3328.00,0.0076
3325.00,0.0077
3322.00,0.0078
3319.00,0.0079
3316.00,0.0080
3313.00,0.0081
3310.00,0.0082
3307.00,0.0083
3304.00,0.0085
3301.00,0.0086
3298.00,0.0087
3295.00,0.0088
3292.00,0.0090
3289.00,0.0092
3286.00,0.0095
3283.00,0.0096
3280.00,0.0098
3277.00,0.0099
3274.00,0.0100
3271.00,0.0101
3268.00,0.0105
3265.00,0.0107
3262.00,0.0108
3259.00,0.0110
3256.00,0.0110
3253.00,0.0111
3250.00,0.0112
3247.00,0.0113
3244.00,0.0115
3241.00,0.0116
3238.00,0.0118
3235.00,0.0119
3232.00,0.0121
3229.00,0.0123
3226.00,0.0123
3223.00,0.0125
3220.00,0.0126
3217.00,0.0127
3214.00,0.0128
3211.00,0.0130
3208.00,0.0132
3205.00,0.0133
3202.00,0.0135
3199.00,0.0137
3196.00,0.0138
3193.00,0.0139
3190.00,0.0140
3187.00,0.0141
3184.00,0.0142
3181.00,0.0143
3178.00,0.0144
3175.00,0.0146
3172.00,0.0146
3169.00,0.0146
3166.00,0.0147
3163.00,0.0148
3160.00,0.0148
3157.00,0.0148
3154.00,0.0146
3151.00,0.0149
3148.00,0.0152
3145.00,0.0154
3142.00,0.0154
3139.00,0.0155
3136.00,0.0158
3133.00,0.0158
3130.00,0.0159
3127.00,0.0160
3124.00,0.0160
3121.00,0.0159
3118.00,0.0160
3115.00,0.0163
3112.00,0.0164
3109.00,0.0165
3106.00,0.0167
3103.00,0.0168
3100.00,0.0168
3097.00,0.0169
3094.00,0.0169
3091.00,0.0169
3088.00,0.0169
3085.00,0.0170
3082.00,0.0171
3079.00,0.0173
3076.00,0.0177
3073.00,0.0182
3070.00,0.0183
3067.00,0.0180
3064.00,0.0176
3061.00,0.0169
3058.00,0.0163
3055.00,0.0159
3052.00,0.0157
3049.00,0.0155
3046.00,0.0153
3043.00,0.0151
3040.00,0.0151
3037.00,0.0150
3034.00,0.0149
3031.00,0.0148
3028.00,0.0147
3025.00,0.0144
3022.00,0.0142
3019.00,0.0141
3016.00,0.0138
3013.00,0.0137
3010.00,0.0136
3007.00,0.0134
3004.00,0.0132
3001.00,0.0131
2998.00,0.0132
2995.00,0.0135
2992.00,0.0139
2989.00,0.0142
2986.00,0.0143
2983.00,0.0139
2980.00,0.0144
2977.00,0.0155
2974.00,0.0162
2971.00,0.0164
2968.00,0.0171
2965.00,0.0183
2962.00,0.0202
2959.00,0.0224
2956.00,0.0240
2953.00,0.0246
2950.00,0.0239
2947.00,0.0227
2944.00,0.0228
2941.00,0.0242
2938.00,0.0263
2935.00,0.0289
2932.00,0.0321
2929.00,0.0355
2926.00,0.0374
2923.00,0.0371
2920.00,0.0353
2917.00,0.0328
2914.00,0.0302
2911.00,0.0276
2908.00,0.0250
2905.00,0.0229
2902.00,0.0216
2899.00,0.0206
2896.00,0.0198
2893.00,0.0193
2890.00,0.0188
2887.00,0.0187
2884.00,0.0186
2881.00,0.0187
2878.00,0.0191
2875.00,0.0201
2872.00,0.0212
2869.00,0.0212
2866.00,0.0203
2863.00,0.0208
2860.00,0.0225
2857.00,0.0234
2854.00,0.0226
2851.00,0.0206
2848.00,0.0188
2845.00,0.0178
2842.00,0.0172
2839.00,0.0166
2836.00,0.0168
2833.00,0.0167
2830.00,0.0157
2827.00,0.0142
2824.00,0.0132
2821.00,0.0124
2818.00,0.0120
2815.00,0.0117
2812.00,0.0115
2809.00,0.0113
2806.00,0.0112
2803.00,0.0111
2800.00,0.0110
2797.00,0.0109
2794.00,0.0108
2791.00,0.0107
2788.00,0.0107
2785.00,0.0108
2782.00,0.0108
2779.00,0.0109
2776.00,0.0109
2773.00,0.0110
2770.00,0.0112
2767.00,0.0113
2764.00,0.0113
2761.00,0.0114
2758.00,0.0115
2755.00,0.0116
2752.00,0.0116
2749.00,0.0116
2746.00,0.0117
2743.00,0.0117
2740.00,0.0117
2737.00,0.0118
2734.00,0.0119
2731.00,0.0120
2728.00,0.0120
2725.00,0.0120
2722.00,0.0120
2719.00,0.0120
2716.00,0.0120
2713.00,0.0120
2710.00,0.0121
2707.00,0.0121
2704.00,0.0122
2701.00,0.0122
2698.00,0.0122
2695.00,0.0122
2692.00,0.0122
2689.00,0.0122
2686.00,0.0122
2683.00,0.0122
2680.00,0.0122
2677.00,0.0122
2674.00,0.0122
2671.00,0.0122
2668.00,0.0123
2665.00,0.0123
2662.00,0.0124
2659.00,0.0124
2656.00,0.0124
2653.00,0.0123
2650.00,0.0122
2647.00,0.0122
2644.00,0.0121
2641.00,0.0121
2638.00,0.0120
2635.00,0.0119
2632.00,0.0118
2629.00,0.0118
2626.00,0.0117
2623.00,0.0116
2620.00,0.0115
2617.00,0.0115
2614.00,0.0114
2611.00,0.0113
2608.00,0.0112
2605.00,0.0112
2602.00,0.0112
2599.00,0.0111
2596.00,0.0109
2593.00,0.0107
2590.00,0.0107
2587.00,0.0106
2584.00,0.0105
2581.00,0.0105
2578.00,0.0105
2575.00,0.0104
2572.00,0.0104
2569.00,0.0104
2566.00,0.0104
2563.00,0.0105
2560.00,0.0106
2557.00,0.0105
2554.00,0.0105
2551.00,0.0105
2548.00,0.0103
2545.00,0.0102
2542.00,0.0101
2539.00,0.0100
2536.00,0.0099
2533.00,0.0098
2530.00,0.0097
2527.00,0.0097
2524.00,0.0097
2521.00,0.0096
2518.00,0.0094
2515.00,0.0092
2512.00,0.0092
2509.00,0.0091
2506.00,0.0090
2503.00,0.0090
2500.00,0.0090
2497.00,0.0089
2494.00,0.0089
2491.00,0.0088
2488.00,0.0088
2485.00,0.0088
2482.00,0.0087
2479.00,0.0088
2476.00,0.0087
2473.00,0.0087
2470.00,0.0087
2467.00,0.0086
2464.00,0.0086
2461.00,0.0088
2458.00,0.0089
2455.00,0.0089
2452.00,0.0089
2449.00,0.0089
2446.00,0.0089
2443.00,0.0089
2440.00,0.0089
2437.00,0.0088
2434.00,0.0088
2431.00,0.0087
2428.00,0.0087
2425.00,0.0086
2422.00,0.0085
2419.00,0.0085
2416.00,0.0084
2413.00,0.0083
2410.00,0.0082
2407.00,0.0079
2404.00,0.0078
2401.00,0.0077
2398.00,0.0076
2395.00,0.0075
2392.00,0.0073
2389.00,0.0071
2386.00,0.0069
2383.00,0.0066
2380.00,0.0064
2377.00,0.0065
2374.00,0.0064
2371.00,0.0063
2368.00,0.0061
2365.00,0.0061
2362.00,0.0061
2359.00,0.0061
2356.00,0.0060
2353.00,0.0059
2350.00,0.0058
2347.00,0.0061
2344.00,0.0059
2341.00,0.0059
2338.00,0.0059
2335.00,0.0057
2332.00,0.0055
2329.00,0.0056
2326.00,0.0068
2323.00,0.0065
2320.00,0.0060
2317.00,0.0059
2314.00,0.0056
2311.00,0.0053
2308.00,0.0052
2305.00,0.0052
2302.00,0.0052
2299.00,0.0052
2296.00,0.0053
2293.00,0.0055
2290.00,0.0059
2287.00,0.0059
2284.00,0.0057
2281.00,0.0055
2278.00,0.0052
2275.00,0.0051
2272.00,0.0050
2269.00,0.0048
2266.00,0.0047
2263.00,0.0047
2260.00,0.0048
2257.00,0.0046
2254.00,0.0043
2251.00,0.0044
2248.00,0.0044
2245.00,0.0043
2242.00,0.0042
2239.00,0.0042
2236.00,0.0043
2233.00,0.0043
2230.00,0.0044
2227.00,0.0043
2224.00,0.0043
2221.00,0.0042
2218.00,0.0040
2215.00,0.0040
2212.00,0.0040
2209.00,0.0038
2206.00,0.0038
2203.00,0.0039
2200.00,0.0039
2197.00,0.0040
2194.00,0.0040
2191.00,0.0041
2188.00,0.0043
2185.00,0.0041
2182.00,0.0032
2179.00,0.0032
2176.00,0.0031
2173.00,0.0033
2170.00,0.0041
2167.00,0.0044
2164.00,0.0048
2161.00,0.0035
2158.00,0.0003
2155.00,0.0009
2152.00,0.0015
2149.00,0.0017
2146.00,0.0013
2143.00,0.0016
2140.00,0.0019
2137.00,0.0014
2134.00,0.0009
2131.00,0.0014
2128.00,0.0019
2125.00,0.0022
2122.00,0.0024
2119.00,0.0027
2116.00,0.0029
2113.00,0.0027
2110.00,0.0027
2107.00,0.0027
2104.00,0.0026
2101.00,0.0026
2098.00,0.0025
2095.00,0.0023
2092.00,0.0024
2089.00,0.0026
2086.00,0.0027
2083.00,0.0029
2080.00,0.0029
2077.00,0.0029
2074.00,0.0027
2071.00,0.0026
2068.00,0.0024
2065.00,0.0023
2062.00,0.0024
2059.00,0.0025
2056.00,0.0027
2053.00,0.0035
2050.00,0.0036
2047.00,0.0028
2044.00,0.0028
2041.00,0.0027
2038.00,0.0029
2035.00,0.0024
2032.00,0.0023
2029.00,0.0021
2026.00,0.0021
2023.00,0.0021
2020.00,0.0017
2017.00,0.0018
2014.00,0.0023
2011.00,0.0028
2008.00,0.0017
2005.00,0.0012
2002.00,0.0014
1999.00,0.0018
1996.00,0.0022
1993.00,0.0024
1990.00,0.0028
1987.00,0.0030
1984.00,0.0035
1981.00,0.0039
1978.00,0.0026
1975.00,0.0019
1972.00,0.0020
1969.00,0.0019
1966.00,0.0017
1963.00,0.0015
1960.00,0.0015
1957.00,0.0017
1954.00,0.0018
1951.00,0.0018
1948.00,0.0018
1945.00,0.0018
1942.00,0.0021
1939.00,0.0021
1936.00,0.0021
1933.00,0.0020
1930.00,0.0019
1927.00,0.0020
1924.00,0.0021
1921.00,0.0022
1918.00,0.0022
1915.00,0.0022
1912.00,0.0023
1909.00,0.0024
1906.00,0.0022
1903.00,0.0023
1900.00,0.0023
1897.00,0.0023
1894.00,0.0023
1891.00,0.0023
1888.00,0.0023
1885.00,0.0024
1882.00,0.0023
1879.00,0.0024
1876.00,0.0025
1873.00,0.0025
1870.00,0.0026
1867.00,0.0026
1864.00,0.0025
1861.00,0.0025
1858.00,0.0025
1855.00,0.0025
1852.00,0.0025
1849.00,0.0027
1846.00,0.0027
1843.00,0.0026
1840.00,0.0026
1837.00,0.0027
1834.00,0.0027
1831.00,0.0028
1828.00,0.0027
1825.00,0.0028
1822.00,0.0027
1819.00,0.0025
1816.00,0.0025
1813.00,0.0028
1810.00,0.0029
1807.00,0.0029
1804.00,0.0031
1801.00,0.0032
1798.00,0.0032
1795.00,0.0033
1792.00,0.0034
1789.00,0.0035
1786.00,0.0037
1783.00,0.0037
1780.00,0.0036
1777.00,0.0035
1774.00,0.0037
1771.00,0.0037
1768.00,0.0036
1765.00,0.0035
1762.00,0.0035
1759.00,0.0035
1756.00,0.0035
1753.00,0.0036
1750.00,0.0035
1747.00,0.0034
1744.00,0.0034
1741.00,0.0034
1738.00,0.0035
1735.00,0.0035
1732.00,0.0034
1729.00,0.0034
1726.00,0.0034
1723.00,0.0036
1720.00,0.0038
1717.00,0.0040
1714.00,0.0043
1711.00,0.0045
1708.00,0.0046
1705.00,0.0048
1702.00,0.0049
1699.00,0.0051
1696.00,0.0053
1693.00,0.0054
1690.00,0.0056
1687.00,0.0057
1684.00,0.0059
1681.00,0.0061
1678.00,0.0064
1675.00,0.0068
1672.00,0.0072
1669.00,0.0080
1666.00,0.0088
1663.00,0.0099
1660.00,0.0112
1657.00,0.0126
1654.00,0.0148
1651.00,0.0195
1648.00,0.0231
1645.00,0.0328
1642.00,0.0407
1639.00,0.0467
1636.00,0.0538
1633.00,0.0588
1630.00,0.0551
1627.00,0.0481
1624.00,0.0405
1621.00,0.0342
1618.00,0.0294
1615.00,0.0266
1612.00,0.0242
1609.00,0.0226
1606.00,0.0218
1603.00,0.0220
1600.00,0.0231
1597.00,0.0256
1594.00,0.0308
1591.00,0.0389
1588.00,0.0476
1585.00,0.0542
1582.00,0.0590
1579.00,0.0610
1576.00,0.0627
1573.00,0.0615
1570.00,0.0583
1567.00,0.0550
1564.00,0.0499
1561.00,0.0442
1558.00,0.0398
1555.00,0.0352
1552.00,0.0310
1549.00,0.0277
1546.00,0.0250
1543.00,0.0230
1540.00,0.0217
1537.00,0.0209
1534.00,0.0203
1531.00,0.0210
1528.00,0.0220
1525.00,0.0232
1522.00,0.0224
1519.00,0.0203
1516.00,0.0175
1513.00,0.0157
1510.00,0.0147
1507.00,0.0139
1504.00,0.0134
1501.00,0.0127
1498.00,0.0122
1495.00,0.0119
1492.00,0.0117
1489.00,0.0117
1486.00,0.0118
1483.00,0.0122
1480.00,0.0133
1477.00,0.0146
1474.00,0.0164
1471.00,0.0205
1468.00,0.0230
1465.00,0.0227
1462.00,0.0245
1459.00,0.0287
1456.00,0.0383
1453.00,0.0454
1450.00,0.0541
1447.00,0.0617
1444.00,0.0636
1441.00,0.0599
1438.00,0.0527
1435.00,0.0475
1432.00,0.0422
1429.00,0.0368
1426.00,0.0326
1423.00,0.0300
1420.00,0.0287
1417.00,0.0289
1414.00,0.0288
1411.00,0.0291
1408.00,0.0296
1405.00,0.0305
1402.00,0.0311
1399.00,0.0311
1396.00,0.0304
1393.00,0.0291
1390.00,0.0275
1387.00,0.0266
1384.00,0.0271
1381.00,0.0309
1378.00,0.0351
1375.00,0.0343
1372.00,0.0318
1369.00,0.0323
1366.00,0.0329
1363.00,0.0315
1360.00,0.0310
1357.00,0.0322
1354.00,0.0357
1351.00,0.0390
1348.00,0.0392
1345.00,0.0363
1342.00,0.0342
1339.00,0.0349
1336.00,0.0364
1333.00,0.0348
1330.00,0.0326
1327.00,0.0341
1324.00,0.0396
1321.00,0.0462
1318.00,0.0475
1315.00,0.0414
1312.00,0.0350
1309.00,0.0325
1306.00,0.0333
1303.00,0.0324
1300.00,0.0302
1297.00,0.0300
1294.00,0.0309
1291.00,0.0334
1288.00,0.0372
1285.00,0.0406
1282.00,0.0442
1279.00,0.0437
1276.00,0.0373
1273.00,0.0302
1270.00,0.0251
1267.00,0.0217
1264.00,0.0197
1261.00,0.0189
1258.00,0.0201
1255.00,0.0236
1252.00,0.0271
1249.00,0.0296
1246.00,0.0349
1243.00,0.0369
1240.00,0.0320
1237.00,0.0262
1234.00,0.0233
1231.00,0.0243
1228.00,0.0260
1225.00,0.0241
1222.00,0.0230
1219.00,0.0239
1216.00,0.0226
1213.00,0.0214
1210.00,0.0252
1207.00,0.0344
1204.00,0.0358
1201.00,0.0278
1198.00,0.0211
1195.00,0.0181
1192.00,0.0177
1189.00,0.0182
1186.00,0.0178
1183.00,0.0175
1180.00,0.0191
1177.00,0.0244
1174.00,0.0313
1171.00,0.0345
1168.00,0.0292
1165.00,0.0226
1162.00,0.0188
1159.00,0.0173
1156.00,0.0174
1153.00,0.0201
1150.00,0.0274
1147.00,0.0269
1144.00,0.0180
1141.00,0.0139
1138.00,0.0131
1135.00,0.0127
1132.00,0.0116
1129.00,0.0106
1126.00,0.0099
1123.00,0.0095
1120.00,0.0093
1117.00,0.0093
1114.00,0.0097
1111.00,0.0103
1108.00,0.0113
1105.00,0.0126
1102.00,0.0143
1099.00,0.0150
1096.00,0.0138
1093.00,0.0126
1090.00,0.0120
1087.00,0.0118
1084.00,0.0123
1081.00,0.0127
1078.00,0.0123
1075.00,0.0114
1072.00,0.0109
1069.00,0.0112
1066.00,0.0123
1063.00,0.0148
1060.00,0.0195
1057.00,0.0276
1054.00,0.0351
1051.00,0.0310
1048.00,0.0243
1045.00,0.0230
1042.00,0.0253
1039.00,0.0308
1036.00,0.0391
1033.00,0.0443
1030.00,0.0420
1027.00,0.0344
1024.00,0.0268
1021.00,0.0226
1018.00,0.0203
1015.00,0.0186
1012.00,0.0176
1009.00,0.0169
1006.00,0.0158
1003.00,0.0164
1000.00,0.0194
997.00,0.0191
994.00,0.0162
991.00,0.0153
988.00,0.0156
985.00,0.0159
982.00,0.0150
979.00,0.0138
976.00,0.0132
973.00,0.0131
970.00,0.0134
967.00,0.0139
964.00,0.0153
961.00,0.0176
958.00,0.0180
955.00,0.0172
952.00,0.0166
949.00,0.0165
946.00,0.0166
943.00,0.0169
940.00,0.0167
937.00,0.0156
934.00,0.0152
931.00,0.0157
928.00,0.0169
925.00,0.0179
922.00,0.0191
919.00,0.0211
916.00,0.0229
913.00,0.0232
910.00,0.0208
907.00,0.0204
904.00,0.0229
901.00,0.0245
898.00,0.0234
895.00,0.0245
892.00,0.0360
889.00,0.0460
886.00,0.0434
883.00,0.0408
880.00,0.0317
877.00,0.0276
874.00,0.0262
871.00,0.0260
868.00,0.0277
865.00,0.0333
862.00,0.0412
859.00,0.0431
856.00,0.0428
853.00,0.0395
850.00,0.0357
847.00,0.0353
844.00,0.0368
841.00,0.0373
838.00,0.0372
835.00,0.0326
832.00,0.0292
829.00,0.0295
826.00,0.0275
823.00,0.0234
820.00,0.0212
817.00,0.0201
814.00,0.0200
811.00,0.0209
808.00,0.0238
805.00,0.0293
802.00,0.0298
799.00,0.0292
796.00,0.0319
793.00,0.0311
790.00,0.0267
787.00,0.0242
784.00,0.0233
781.00,0.0227
778.00,0.0228
775.00,0.0237
772.00,0.0249
769.00,0.0252
766.00,0.0246
763.00,0.0238
760.00,0.0233
757.00,0.0231
754.00,0.0228
751.00,0.0211
748.00,0.0200
745.00,0.0203
742.00,0.0210
739.00,0.0226
736.00,0.0253
733.00,0.0279
730.00,0.0260
727.00,0.0235
724.00,0.0227
721.00,0.0223
718.00,0.0222
715.00,0.0222
712.00,0.0224
709.00,0.0221
706.00,0.0220
703.00,0.0221
700.00,0.0222
697.00,0.0224
694.00,0.0228
691.00,0.0234
688.00,0.0245
685.00,0.0260
682.00,0.0276
679.00,0.0287
676.00,0.0286
673.00,0.0283
670.00,0.0277
667.00,0.0258
664.00,0.0235
661.00,0.0225
658.00,0.0223
655.00,0.0222
652.00,0.0227
649.00,0.0231
646.00,0.0227
643.00,0.0224
640.00,0.0230
637.00,0.0239
634.00,0.0246
631.00,0.0245
628.00,0.0237
625.00,0.0228
622.00,0.0223
619.00,0.0228
616.00,0.0246
613.00,0.0250
610.00,0.0242
607.00,0.0239
604.00,0.0234
601.00,0.0230
598.00,0.0231
595.00,0.0236
592.00,0.0237
589.00,0.0233
586.00,0.0235
583.00,0.0257
580.00,0.0328
577.00,0.0338
574.00,0.0260
571.00,0.0223
568.00,0.0210
565.00,0.0205
562.00,0.0210
559.00,0.0227
556.00,0.0271
553.00,0.0346
550.00,0.0337
547.00,0.0280
544.00,0.0268
541.00,0.0275
538.00,0.0314
535.00,0.0358
532.00,0.0317
529.00,0.0282
526.00,0.0312
523.00,0.0307
520.00,0.0287
517.00,0.0246
514.00,0.0236
511.00,0.0242
508.00,0.0254
505.00,0.0270
502.00,0.0303
499.00,0.0340
496.00,0.0395
493.00,0.0441
490.00,0.0475
487.00,0.0487
484.00,0.0481
481.00,0.0476
478.00,0.0484
475.00,0.0480
472.00,0.0470
469.00,0.0469
466.00,0.0461
463.00,0.0437
460.00,0.0411
457.00,0.0396
454.00,0.0391
451.00,0.0377
448.00,0.0369
445.00,0.0364
442.00,0.0362
439.00,0.0356
436.00,0.0355
433.00,0.0339
430.00,0.0322
427.00,0.0314
424.00,0.0304
421.00,0.0303
418.00,0.0281
415.00,0.0288
412.00,0.0285
409.00,0.0267
406.00,0.0276
403.00,0.0294
400.00,0.0297