File: FTIR/Olivia/2025_08_06_1CBN_3PVP10_MP_Powder_Scan2.csv
Created as New Dataset,Sample 1089 By YargerLab Date Wednesday, August 06 2025
cm-1,A
4000.00,0.0084
3997.00,0.0084
3994.00,0.0085
3991.00,0.0085
3988.00,0.0084
3985.00,0.0084
3982.00,0.0084
3979.00,0.0084
3976.00,0.0085
3973.00,0.0085
3970.00,0.0085
3967.00,0.0084
3964.00,0.0084
3961.00,0.0085
3958.00,0.0085
3955.00,0.0084
3952.00,0.0084
3949.00,0.0084
3946.00,0.0083
3943.00,0.0084
3940.00,0.0083
3937.00,0.0084
3934.00,0.0084
3931.00,0.0083
3928.00,0.0083
3925.00,0.0084
3922.00,0.0083
3919.00,0.0083
3916.00,0.0083
3913.00,0.0083
3910.00,0.0084
3907.00,0.0082
3904.00,0.0081
3901.00,0.0080
3898.00,0.0081
3895.00,0.0082
3892.00,0.0082
3889.00,0.0081
3886.00,0.0082
3883.00,0.0081
3880.00,0.0082
3877.00,0.0082
3874.00,0.0081
3871.00,0.0080
3868.00,0.0080
3865.00,0.0081
3862.00,0.0082
3859.00,0.0082
3856.00,0.0080
3853.00,0.0080
3850.00,0.0081
3847.00,0.0083
3844.00,0.0082
3841.00,0.0081
3838.00,0.0081
3835.00,0.0081
3832.00,0.0082
3829.00,0.0082
3826.00,0.0083
3823.00,0.0081
3820.00,0.0081
3817.00,0.0081
3814.00,0.0082
3811.00,0.0082
3808.00,0.0081
3805.00,0.0080
3802.00,0.0081
3799.00,0.0081
3796.00,0.0082
3793.00,0.0082
3790.00,0.0083
3787.00,0.0082
3784.00,0.0082
3781.00,0.0082
3778.00,0.0082
3775.00,0.0082
3772.00,0.0081
3769.00,0.0081
3766.00,0.0081
3763.00,0.0082
3760.00,0.0082
3757.00,0.0082
3754.00,0.0080
3751.00,0.0079
3748.00,0.0078
3745.00,0.0079
3742.00,0.0079
3739.00,0.0079
3736.00,0.0078
3733.00,0.0077
3730.00,0.0078
3727.00,0.0078
3724.00,0.0079
3721.00,0.0080
3718.00,0.0080
3715.00,0.0080
3712.00,0.0079
3709.00,0.0079
3706.00,0.0079
3703.00,0.0080
3700.00,0.0080
3697.00,0.0081
3694.00,0.0080
3691.00,0.0080
3688.00,0.0081
3685.00,0.0082
3682.00,0.0083
3679.00,0.0082
3676.00,0.0082
3673.00,0.0081
3670.00,0.0082
3667.00,0.0084
3664.00,0.0086
3661.00,0.0087
3658.00,0.0086
3655.00,0.0087
3652.00,0.0085
3649.00,0.0086
3646.00,0.0089
3643.00,0.0092
3640.00,0.0094
3637.00,0.0095
3634.00,0.0096
3631.00,0.0096
3628.00,0.0098
3625.00,0.0101
3622.00,0.0102
3619.00,0.0104
3616.00,0.0106
3613.00,0.0109
3610.00,0.0111
3607.00,0.0114
3604.00,0.0116
3601.00,0.0120
3598.00,0.0122
3595.00,0.0125
3592.00,0.0127
3589.00,0.0129
3586.00,0.0134
3583.00,0.0138
3580.00,0.0141
3577.00,0.0145
3574.00,0.0148
3571.00,0.0151
3568.00,0.0155
3565.00,0.0159
3562.00,0.0164
3559.00,0.0167
3556.00,0.0170
3553.00,0.0174
3550.00,0.0177
3547.00,0.0181
3544.00,0.0185
3541.00,0.0187
3538.00,0.0191
3535.00,0.0194
3532.00,0.0197
3529.00,0.0200
3526.00,0.0203
3523.00,0.0206
3520.00,0.0208
3517.00,0.0211
3514.00,0.0213
3511.00,0.0215
3508.00,0.0217
3505.00,0.0219
3502.00,0.0222
3499.00,0.0224
3496.00,0.0227
3493.00,0.0230
3490.00,0.0232
3487.00,0.0235
3484.00,0.0238
3481.00,0.0242
3478.00,0.0244
3475.00,0.0248
3472.00,0.0252
3469.00,0.0255
3466.00,0.0258
3463.00,0.0262
3460.00,0.0267
3457.00,0.0270
3454.00,0.0274
3451.00,0.0278
3448.00,0.0281
3445.00,0.0285
3442.00,0.0289
3439.00,0.0294
3436.00,0.0299
3433.00,0.0305
3430.00,0.0310
3427.00,0.0315
3424.00,0.0321
3421.00,0.0327
3418.00,0.0333
3415.00,0.0339
3412.00,0.0343
3409.00,0.0348
3406.00,0.0351
3403.00,0.0354
3400.00,0.0355
3397.00,0.0354
3394.00,0.0352
3391.00,0.0349
3388.00,0.0345
3385.00,0.0341
3382.00,0.0336
3379.00,0.0331
3376.00,0.0326
3373.00,0.0320
3370.00,0.0314
3367.00,0.0310
3364.00,0.0306
3361.00,0.0302
3358.00,0.0298
3355.00,0.0295
3352.00,0.0291
3349.00,0.0288
3346.00,0.0286
3343.00,0.0283
3340.00,0.0280
3337.00,0.0280
3334.00,0.0279
3331.00,0.0278
3328.00,0.0277
3325.00,0.0276
3322.00,0.0277
3319.00,0.0277
3316.00,0.0277
3313.00,0.0277
3310.00,0.0275
3307.00,0.0275
3304.00,0.0278
3301.00,0.0280
3298.00,0.0280
3295.00,0.0281
3292.00,0.0283
3289.00,0.0286
3286.00,0.0288
3283.00,0.0289
3280.00,0.0290
3277.00,0.0291
3274.00,0.0291
3271.00,0.0291
3268.00,0.0295
3265.00,0.0297
3262.00,0.0298
3259.00,0.0298
3256.00,0.0299
3253.00,0.0300
3250.00,0.0301
3247.00,0.0301
3244.00,0.0303
3241.00,0.0303
3238.00,0.0302
3235.00,0.0300
3232.00,0.0300
3229.00,0.0299
3226.00,0.0298
3223.00,0.0296
3220.00,0.0294
3217.00,0.0291
3214.00,0.0289
3211.00,0.0285
3208.00,0.0281
3205.00,0.0277
3202.00,0.0273
3199.00,0.0269
3196.00,0.0265
3193.00,0.0260
3190.00,0.0255
3187.00,0.0250
3184.00,0.0246
3181.00,0.0241
3178.00,0.0237
3175.00,0.0233
3172.00,0.0229
3169.00,0.0224
3166.00,0.0220
3163.00,0.0215
3160.00,0.0210
3157.00,0.0205
3154.00,0.0200
3151.00,0.0196
3148.00,0.0193
3145.00,0.0188
3142.00,0.0184
3139.00,0.0180
3136.00,0.0178
3133.00,0.0175
3130.00,0.0172
3127.00,0.0170
3124.00,0.0167
3121.00,0.0165
3118.00,0.0162
3115.00,0.0159
3112.00,0.0157
3109.00,0.0155
3106.00,0.0152
3103.00,0.0150
3100.00,0.0148
3097.00,0.0146
3094.00,0.0146
3091.00,0.0146
3088.00,0.0146
3085.00,0.0146
3082.00,0.0145
3079.00,0.0144
3076.00,0.0143
3073.00,0.0142
3070.00,0.0140
3067.00,0.0140
3064.00,0.0140
3061.00,0.0139
3058.00,0.0140
3055.00,0.0140
3052.00,0.0139
3049.00,0.0138
3046.00,0.0137
3043.00,0.0137
3040.00,0.0139
3037.00,0.0142
3034.00,0.0144
3031.00,0.0144
3028.00,0.0142
3025.00,0.0139
3022.00,0.0137
3019.00,0.0136
3016.00,0.0137
3013.00,0.0138
3010.00,0.0142
3007.00,0.0149
3004.00,0.0158
3001.00,0.0170
2998.00,0.0186
2995.00,0.0204
2992.00,0.0219
2989.00,0.0234
2986.00,0.0251
2983.00,0.0273
2980.00,0.0301
2977.00,0.0318
2974.00,0.0337
2971.00,0.0368
2968.00,0.0390
2965.00,0.0405
2962.00,0.0423
2959.00,0.0428
2956.00,0.0412
2953.00,0.0388
2950.00,0.0371
2947.00,0.0367
2944.00,0.0376
2941.00,0.0394
2938.00,0.0425
2935.00,0.0471
2932.00,0.0526
2929.00,0.0572
2926.00,0.0586
2923.00,0.0565
2920.00,0.0528
2917.00,0.0486
2914.00,0.0448
2911.00,0.0415
2908.00,0.0389
2905.00,0.0367
2902.00,0.0350
2899.00,0.0336
2896.00,0.0326
2893.00,0.0318
2890.00,0.0310
2887.00,0.0304
2884.00,0.0300
2881.00,0.0301
2878.00,0.0312
2875.00,0.0328
2872.00,0.0337
2869.00,0.0334
2866.00,0.0333
2863.00,0.0352
2860.00,0.0389
2857.00,0.0417
2854.00,0.0416
2851.00,0.0392
2848.00,0.0345
2845.00,0.0296
2842.00,0.0257
2839.00,0.0230
2836.00,0.0212
2833.00,0.0199
2830.00,0.0188
2827.00,0.0179
2824.00,0.0170
2821.00,0.0163
2818.00,0.0158
2815.00,0.0153
2812.00,0.0150
2809.00,0.0146
2806.00,0.0144
2803.00,0.0142
2800.00,0.0139
2797.00,0.0137
2794.00,0.0135
2791.00,0.0133
2788.00,0.0131
2785.00,0.0130
2782.00,0.0129
2779.00,0.0127
2776.00,0.0126
2773.00,0.0125
2770.00,0.0124
2767.00,0.0124
2764.00,0.0123
2761.00,0.0122
2758.00,0.0123
2755.00,0.0123
2752.00,0.0123
2749.00,0.0122
2746.00,0.0123
2743.00,0.0124
2740.00,0.0124
2737.00,0.0125
2734.00,0.0126
2731.00,0.0128
2728.00,0.0128
2725.00,0.0127
2722.00,0.0125
2719.00,0.0124
2716.00,0.0123
2713.00,0.0122
2710.00,0.0122
2707.00,0.0121
2704.00,0.0121
2701.00,0.0121
2698.00,0.0120
2695.00,0.0119
2692.00,0.0118
2689.00,0.0117
2686.00,0.0116
2683.00,0.0116
2680.00,0.0116
2677.00,0.0116
2674.00,0.0116
2671.00,0.0116
2668.00,0.0117
2665.00,0.0119
2662.00,0.0120
2659.00,0.0122
2656.00,0.0122
2653.00,0.0123
2650.00,0.0123
2647.00,0.0122
2644.00,0.0122
2641.00,0.0121
2638.00,0.0120
2635.00,0.0120
2632.00,0.0119
2629.00,0.0117
2626.00,0.0116
2623.00,0.0115
2620.00,0.0114
2617.00,0.0114
2614.00,0.0114
2611.00,0.0113
2608.00,0.0113
2605.00,0.0114
2602.00,0.0114
2599.00,0.0114
2596.00,0.0115
2593.00,0.0115
2590.00,0.0115
2587.00,0.0115
2584.00,0.0115
2581.00,0.0114
2578.00,0.0114
2575.00,0.0114
2572.00,0.0114
2569.00,0.0113
2566.00,0.0113
2563.00,0.0113
2560.00,0.0111
2557.00,0.0109
2554.00,0.0108
2551.00,0.0109
2548.00,0.0108
2545.00,0.0108
2542.00,0.0108
2539.00,0.0108
2536.00,0.0109
2533.00,0.0108
2530.00,0.0107
2527.00,0.0107
2524.00,0.0106
2521.00,0.0105
2518.00,0.0105
2515.00,0.0105
2512.00,0.0105
2509.00,0.0103
2506.00,0.0102
2503.00,0.0102
2500.00,0.0102
2497.00,0.0102
2494.00,0.0101
2491.00,0.0101
2488.00,0.0101
2485.00,0.0100
2482.00,0.0100
2479.00,0.0099
2476.00,0.0099
2473.00,0.0099
2470.00,0.0098
2467.00,0.0099
2464.00,0.0099
2461.00,0.0099
2458.00,0.0100
2455.00,0.0101
2452.00,0.0102
2449.00,0.0101
2446.00,0.0099
2443.00,0.0098
2440.00,0.0098
2437.00,0.0096
2434.00,0.0097
2431.00,0.0097
2428.00,0.0097
2425.00,0.0097
2422.00,0.0096
2419.00,0.0096
2416.00,0.0096
2413.00,0.0097
2410.00,0.0096
2407.00,0.0095
2404.00,0.0095
2401.00,0.0096
2398.00,0.0095
2395.00,0.0095
2392.00,0.0096
2389.00,0.0094
2386.00,0.0092
2383.00,0.0091
2380.00,0.0089
2377.00,0.0089
2374.00,0.0089
2371.00,0.0088
2368.00,0.0087
2365.00,0.0089
2362.00,0.0089
2359.00,0.0089
2356.00,0.0091
2353.00,0.0093
2350.00,0.0093
2347.00,0.0093
2344.00,0.0092
2341.00,0.0092
2338.00,0.0095
2335.00,0.0095
2332.00,0.0095
2329.00,0.0099
2326.00,0.0109
2323.00,0.0107
2320.00,0.0102
2317.00,0.0100
2314.00,0.0099
2311.00,0.0097
2308.00,0.0095
2305.00,0.0096
2302.00,0.0097
2299.00,0.0098
2296.00,0.0100
2293.00,0.0103
2290.00,0.0105
2287.00,0.0107
2284.00,0.0105
2281.00,0.0103
2278.00,0.0101
2275.00,0.0100
2272.00,0.0099
2269.00,0.0099
2266.00,0.0097
2263.00,0.0096
2260.00,0.0096
2257.00,0.0093
2254.00,0.0092
2251.00,0.0093
2248.00,0.0095
2245.00,0.0096
2242.00,0.0094
2239.00,0.0098
2236.00,0.0097
2233.00,0.0095
2230.00,0.0097
2227.00,0.0097
2224.00,0.0095
2221.00,0.0093
2218.00,0.0092
2215.00,0.0096
2212.00,0.0095
2209.00,0.0093
2206.00,0.0095
2203.00,0.0095
2200.00,0.0095
2197.00,0.0095
2194.00,0.0095
2191.00,0.0097
2188.00,0.0102
2185.00,0.0100
2182.00,0.0090
2179.00,0.0091
2176.00,0.0089
2173.00,0.0093
2170.00,0.0100
2167.00,0.0103
2164.00,0.0108
2161.00,0.0084
2158.00,0.0055
2155.00,0.0063
2152.00,0.0074
2149.00,0.0074
2146.00,0.0074
2143.00,0.0076
2140.00,0.0078
2137.00,0.0071
2134.00,0.0069
2131.00,0.0076
2128.00,0.0080
2125.00,0.0084
2122.00,0.0085
2119.00,0.0086
2116.00,0.0091
2113.00,0.0089
2110.00,0.0090
2107.00,0.0090
2104.00,0.0089
2101.00,0.0087
2098.00,0.0087
2095.00,0.0085
2092.00,0.0088
2089.00,0.0089
2086.00,0.0090
2083.00,0.0090
2080.00,0.0093
2077.00,0.0091
2074.00,0.0090
2071.00,0.0091
2068.00,0.0088
2065.00,0.0086
2062.00,0.0084
2059.00,0.0086
2056.00,0.0084
2053.00,0.0091
2050.00,0.0093
2047.00,0.0085
2044.00,0.0084
2041.00,0.0084
2038.00,0.0084
2035.00,0.0081
2032.00,0.0080
2029.00,0.0080
2026.00,0.0077
2023.00,0.0076
2020.00,0.0076
2017.00,0.0072
2014.00,0.0073
2011.00,0.0073
2008.00,0.0066
2005.00,0.0067
2002.00,0.0075
1999.00,0.0076
1996.00,0.0080
1993.00,0.0085
1990.00,0.0083
1987.00,0.0086
1984.00,0.0088
1981.00,0.0092
1978.00,0.0075
1975.00,0.0071
1972.00,0.0069
1969.00,0.0067
1966.00,0.0070
1963.00,0.0069
1960.00,0.0064
1957.00,0.0067
1954.00,0.0072
1951.00,0.0073
1948.00,0.0071
1945.00,0.0071
1942.00,0.0074
1939.00,0.0073
1936.00,0.0073
1933.00,0.0075
1930.00,0.0075
1927.00,0.0076
1924.00,0.0077
1921.00,0.0079
1918.00,0.0078
1915.00,0.0078
1912.00,0.0084
1909.00,0.0091
1906.00,0.0089
1903.00,0.0084
1900.00,0.0081
1897.00,0.0083
1894.00,0.0087
1891.00,0.0084
1888.00,0.0081
1885.00,0.0080
1882.00,0.0081
1879.00,0.0080
1876.00,0.0080
1873.00,0.0079
1870.00,0.0080
1867.00,0.0081
1864.00,0.0081
1861.00,0.0082
1858.00,0.0081
1855.00,0.0083
1852.00,0.0084
1849.00,0.0085
1846.00,0.0086
1843.00,0.0084
1840.00,0.0084
1837.00,0.0083
1834.00,0.0082
1831.00,0.0082
1828.00,0.0082
1825.00,0.0083
1822.00,0.0083
1819.00,0.0081
1816.00,0.0079
1813.00,0.0081
1810.00,0.0083
1807.00,0.0083
1804.00,0.0083
1801.00,0.0086
1798.00,0.0085
1795.00,0.0087
1792.00,0.0085
1789.00,0.0085
1786.00,0.0086
1783.00,0.0086
1780.00,0.0088
1777.00,0.0090
1774.00,0.0091
1771.00,0.0089
1768.00,0.0090
1765.00,0.0090
1762.00,0.0091
1759.00,0.0093
1756.00,0.0093
1753.00,0.0090
1750.00,0.0091
1747.00,0.0093
1744.00,0.0094
1741.00,0.0093
1738.00,0.0093
1735.00,0.0095
1732.00,0.0099
1729.00,0.0112
1726.00,0.0117
1723.00,0.0125
1720.00,0.0128
1717.00,0.0134
1714.00,0.0148
1711.00,0.0163
1708.00,0.0178
1705.00,0.0202
1702.00,0.0223
1699.00,0.0277
1696.00,0.0346
1693.00,0.0425
1690.00,0.0510
1687.00,0.0590
1684.00,0.0698
1681.00,0.0800
1678.00,0.0872
1675.00,0.0954
1672.00,0.1025
1669.00,0.1107
1666.00,0.1167
1663.00,0.1218
1660.00,0.1274
1657.00,0.1291
1654.00,0.1288
1651.00,0.1321
1648.00,0.1280
1645.00,0.1236
1642.00,0.1163
1639.00,0.1073
1636.00,0.0978
1633.00,0.0915
1630.00,0.0903
1627.00,0.0962
1624.00,0.1014
1621.00,0.1017
1618.00,0.0926
1615.00,0.0795
1612.00,0.0760
1609.00,0.0720
1606.00,0.0625
1603.00,0.0522
1600.00,0.0445
1597.00,0.0403
1594.00,0.0399
1591.00,0.0444
1588.00,0.0525
1585.00,0.0581
1582.00,0.0577
1579.00,0.0533
1576.00,0.0461
1573.00,0.0409
1570.00,0.0380
1567.00,0.0352
1564.00,0.0311
1561.00,0.0267
1558.00,0.0226
1555.00,0.0217
1552.00,0.0212
1549.00,0.0209
1546.00,0.0200
1543.00,0.0193
1540.00,0.0182
1537.00,0.0179
1534.00,0.0181
1531.00,0.0179
1528.00,0.0180
1525.00,0.0182
1522.00,0.0184
1519.00,0.0195
1516.00,0.0216
1513.00,0.0231
1510.00,0.0247
1507.00,0.0267
1504.00,0.0293
1501.00,0.0353
1498.00,0.0458
1495.00,0.0528
1492.00,0.0482
1489.00,0.0397
1486.00,0.0326
1483.00,0.0284
1480.00,0.0265
1477.00,0.0269
1474.00,0.0300
1471.00,0.0400
1468.00,0.0539
1465.00,0.0671
1462.00,0.0725
1459.00,0.0717
1456.00,0.0640
1453.00,0.0584
1450.00,0.0577
1447.00,0.0630
1444.00,0.0720
1441.00,0.0824
1438.00,0.0893
1435.00,0.0964
1432.00,0.1006
1429.00,0.1052
1426.00,0.1095
1423.00,0.1123
1420.00,0.1069
1417.00,0.0928
1414.00,0.0781
1411.00,0.0679
1408.00,0.0647
1405.00,0.0677
1402.00,0.0717
1399.00,0.0708
1396.00,0.0639
1393.00,0.0546
1390.00,0.0504
1387.00,0.0535
1384.00,0.0536
1381.00,0.0543
1378.00,0.0564
1375.00,0.0546
1372.00,0.0504
1369.00,0.0514
1366.00,0.0565
1363.00,0.0585
1360.00,0.0622
1357.00,0.0562
1354.00,0.0490
1351.00,0.0464
1348.00,0.0462
1345.00,0.0451
1342.00,0.0422
1339.00,0.0392
1336.00,0.0380
1333.00,0.0399
1330.00,0.0428
1327.00,0.0450
1324.00,0.0469
1321.00,0.0493
1318.00,0.0508
1315.00,0.0494
1312.00,0.0474
1309.00,0.0474
1306.00,0.0517
1303.00,0.0613
1300.00,0.0709
1297.00,0.0786
1294.00,0.0910
1291.00,0.1035
1288.00,0.1133
1285.00,0.1196
1282.00,0.1173
1279.00,0.1086
1276.00,0.1026
1273.00,0.1008
1270.00,0.0975
1267.00,0.0907
1264.00,0.0813
1261.00,0.0714
1258.00,0.0629
1255.00,0.0569
1252.00,0.0536
1249.00,0.0539
1246.00,0.0575
1243.00,0.0616
1240.00,0.0650
1237.00,0.0711
1234.00,0.0771
1231.00,0.0763
1228.00,0.0707
1225.00,0.0659
1222.00,0.0634
1219.00,0.0636
1216.00,0.0656
1213.00,0.0649
1210.00,0.0589
1207.00,0.0530
1204.00,0.0517
1201.00,0.0556
1198.00,0.0630
1195.00,0.0698
1192.00,0.0679
1189.00,0.0591
1186.00,0.0502
1183.00,0.0443
1180.00,0.0416
1177.00,0.0409
1174.00,0.0412
1171.00,0.0418
1168.00,0.0421
1165.00,0.0423
1162.00,0.0441
1159.00,0.0513
1156.00,0.0638
1153.00,0.0640
1150.00,0.0491
1147.00,0.0386
1144.00,0.0348
1141.00,0.0336
1138.00,0.0345
1135.00,0.0402
1132.00,0.0547
1129.00,0.0691
1126.00,0.0677
1123.00,0.0566
1120.00,0.0456
1117.00,0.0407
1114.00,0.0396
1111.00,0.0377
1108.00,0.0359
1105.00,0.0380
1102.00,0.0464
1099.00,0.0525
1096.00,0.0459
1093.00,0.0368
1090.00,0.0323
1087.00,0.0303
1084.00,0.0296
1081.00,0.0295
1078.00,0.0303
1075.00,0.0312
1072.00,0.0321
1069.00,0.0336
1066.00,0.0359
1063.00,0.0409
1060.00,0.0518
1057.00,0.0699
1054.00,0.0848
1051.00,0.0885
1048.00,0.0852
1045.00,0.0735
1042.00,0.0593
1039.00,0.0507
1036.00,0.0498
1033.00,0.0527
1030.00,0.0641
1027.00,0.0793
1024.00,0.0749
1021.00,0.0600
1018.00,0.0496
1015.00,0.0428
1012.00,0.0386
1009.00,0.0391
1006.00,0.0449
1003.00,0.0496
1000.00,0.0474
997.00,0.0433
994.00,0.0401
991.00,0.0363
988.00,0.0323
985.00,0.0296
982.00,0.0281
979.00,0.0275
976.00,0.0273
973.00,0.0269
970.00,0.0264
967.00,0.0263
964.00,0.0269
961.00,0.0273
958.00,0.0252
955.00,0.0231
952.00,0.0223
949.00,0.0231
946.00,0.0235
943.00,0.0242
940.00,0.0267
937.00,0.0294
934.00,0.0317
931.00,0.0318
928.00,0.0299
925.00,0.0302
922.00,0.0320
919.00,0.0300
916.00,0.0261
913.00,0.0240
910.00,0.0235
907.00,0.0240
904.00,0.0266
901.00,0.0321
898.00,0.0345
895.00,0.0311
892.00,0.0318
889.00,0.0335
886.00,0.0274
883.00,0.0252
880.00,0.0265
877.00,0.0318
874.00,0.0432
871.00,0.0556
868.00,0.0562
865.00,0.0485
862.00,0.0413
859.00,0.0376
856.00,0.0417
853.00,0.0497
850.00,0.0583
847.00,0.0589
844.00,0.0519
841.00,0.0478
838.00,0.0500
835.00,0.0573
832.00,0.0579
829.00,0.0490
826.00,0.0393
823.00,0.0436
820.00,0.0614
817.00,0.0681
814.00,0.0641
811.00,0.0424
808.00,0.0327
805.00,0.0289
802.00,0.0272
799.00,0.0264
796.00,0.0262
793.00,0.0260
790.00,0.0259
787.00,0.0259
784.00,0.0264
781.00,0.0269
778.00,0.0286
775.00,0.0329
772.00,0.0327
769.00,0.0307
766.00,0.0310
763.00,0.0326
760.00,0.0355
757.00,0.0365
754.00,0.0367
751.00,0.0378
748.00,0.0393
745.00,0.0411
742.00,0.0441
739.00,0.0497
736.00,0.0598
733.00,0.0620
730.00,0.0598
727.00,0.0576
724.00,0.0493
721.00,0.0449
718.00,0.0461
715.00,0.0494
712.00,0.0485
709.00,0.0461
706.00,0.0457
703.00,0.0474
700.00,0.0498
697.00,0.0516
694.00,0.0507
691.00,0.0525
688.00,0.0568
685.00,0.0561
682.00,0.0553
679.00,0.0571
676.00,0.0610
673.00,0.0660
670.00,0.0691
667.00,0.0707
664.00,0.0720
661.00,0.0754
658.00,0.0756
655.00,0.0753
652.00,0.0765
649.00,0.0771
646.00,0.0768
643.00,0.0754
640.00,0.0735
637.00,0.0716
634.00,0.0701
631.00,0.0689
628.00,0.0685
625.00,0.0695
622.00,0.0720
619.00,0.0734
616.00,0.0707
613.00,0.0675
610.00,0.0679
607.00,0.0735
604.00,0.0805
601.00,0.0839
598.00,0.0847
595.00,0.0851
592.00,0.0853
589.00,0.0851
586.00,0.0857
583.00,0.0885
580.00,0.0930
577.00,0.1002
574.00,0.1000
571.00,0.0944
568.00,0.0906
565.00,0.0906
562.00,0.0938
559.00,0.0955
556.00,0.0913
553.00,0.0879
550.00,0.0895
547.00,0.0940
544.00,0.0932
541.00,0.0887
538.00,0.0854
535.00,0.0863
532.00,0.0906
529.00,0.0903
526.00,0.0855
523.00,0.0810
520.00,0.0789
517.00,0.0773
514.00,0.0763
511.00,0.0765
508.00,0.0778
505.00,0.0786
502.00,0.0773
499.00,0.0761
496.00,0.0760
493.00,0.0782
490.00,0.0784
487.00,0.0773
484.00,0.0760
481.00,0.0754
478.00,0.0745
475.00,0.0740
472.00,0.0742
469.00,0.0744
466.00,0.0735
463.00,0.0735
460.00,0.0730
457.00,0.0719
454.00,0.0723
451.00,0.0703
448.00,0.0691
445.00,0.0689
442.00,0.0687
439.00,0.0681
436.00,0.0664
433.00,0.0652
430.00,0.0648
427.00,0.0629
424.00,0.0615
421.00,0.0619
418.00,0.0629
415.00,0.0620
412.00,0.0634
409.00,0.0657
406.00,0.0636
403.00,0.0597
400.00,0.0593