File: FTIR/Olivia/2025_08_01_1CBN_3PVP29_mortar_dry_scan1.csv
Created as New Dataset,Sample 1020 By YargerLab Date Friday, August 01 2025
cm-1,A
4000.00,0.0067
3997.00,0.0067
3994.00,0.0067
3991.00,0.0067
3988.00,0.0067
3985.00,0.0067
3982.00,0.0067
3979.00,0.0067
3976.00,0.0067
3973.00,0.0068
3970.00,0.0068
3967.00,0.0068
3964.00,0.0067
3961.00,0.0067
3958.00,0.0067
3955.00,0.0067
3952.00,0.0067
3949.00,0.0066
3946.00,0.0066
3943.00,0.0066
3940.00,0.0066
3937.00,0.0066
3934.00,0.0066
3931.00,0.0066
3928.00,0.0066
3925.00,0.0066
3922.00,0.0067
3919.00,0.0067
3916.00,0.0067
3913.00,0.0067
3910.00,0.0067
3907.00,0.0066
3904.00,0.0065
3901.00,0.0066
3898.00,0.0066
3895.00,0.0066
3892.00,0.0066
3889.00,0.0066
3886.00,0.0065
3883.00,0.0065
3880.00,0.0066
3877.00,0.0066
3874.00,0.0065
3871.00,0.0065
3868.00,0.0065
3865.00,0.0066
3862.00,0.0066
3859.00,0.0067
3856.00,0.0066
3853.00,0.0066
3850.00,0.0065
3847.00,0.0066
3844.00,0.0066
3841.00,0.0066
3838.00,0.0066
3835.00,0.0065
3832.00,0.0066
3829.00,0.0066
3826.00,0.0066
3823.00,0.0066
3820.00,0.0066
3817.00,0.0066
3814.00,0.0066
3811.00,0.0066
3808.00,0.0066
3805.00,0.0066
3802.00,0.0065
3799.00,0.0065
3796.00,0.0066
3793.00,0.0066
3790.00,0.0066
3787.00,0.0066
3784.00,0.0066
3781.00,0.0066
3778.00,0.0066
3775.00,0.0065
3772.00,0.0065
3769.00,0.0066
3766.00,0.0066
3763.00,0.0066
3760.00,0.0066
3757.00,0.0066
3754.00,0.0066
3751.00,0.0066
3748.00,0.0065
3745.00,0.0065
3742.00,0.0065
3739.00,0.0066
3736.00,0.0066
3733.00,0.0065
3730.00,0.0065
3727.00,0.0064
3724.00,0.0064
3721.00,0.0064
3718.00,0.0065
3715.00,0.0064
3712.00,0.0064
3709.00,0.0065
3706.00,0.0065
3703.00,0.0064
3700.00,0.0065
3697.00,0.0065
3694.00,0.0065
3691.00,0.0064
3688.00,0.0064
3685.00,0.0065
3682.00,0.0066
3679.00,0.0067
3676.00,0.0067
3673.00,0.0067
3670.00,0.0067
3667.00,0.0068
3664.00,0.0069
3661.00,0.0070
3658.00,0.0071
3655.00,0.0071
3652.00,0.0071
3649.00,0.0073
3646.00,0.0074
3643.00,0.0076
3640.00,0.0077
3637.00,0.0079
3634.00,0.0079
3631.00,0.0080
3628.00,0.0082
3625.00,0.0084
3622.00,0.0086
3619.00,0.0088
3616.00,0.0089
3613.00,0.0091
3610.00,0.0093
3607.00,0.0095
3604.00,0.0097
3601.00,0.0099
3598.00,0.0101
3595.00,0.0103
3592.00,0.0105
3589.00,0.0107
3586.00,0.0109
3583.00,0.0112
3580.00,0.0115
3577.00,0.0118
3574.00,0.0121
3571.00,0.0123
3568.00,0.0126
3565.00,0.0129
3562.00,0.0132
3559.00,0.0136
3556.00,0.0139
3553.00,0.0142
3550.00,0.0145
3547.00,0.0148
3544.00,0.0152
3541.00,0.0156
3538.00,0.0159
3535.00,0.0162
3532.00,0.0165
3529.00,0.0169
3526.00,0.0172
3523.00,0.0174
3520.00,0.0177
3517.00,0.0180
3514.00,0.0183
3511.00,0.0185
3508.00,0.0188
3505.00,0.0190
3502.00,0.0193
3499.00,0.0196
3496.00,0.0199
3493.00,0.0202
3490.00,0.0205
3487.00,0.0208
3484.00,0.0211
3481.00,0.0215
3478.00,0.0218
3475.00,0.0222
3472.00,0.0226
3469.00,0.0230
3466.00,0.0234
3463.00,0.0238
3460.00,0.0242
3457.00,0.0247
3454.00,0.0251
3451.00,0.0256
3448.00,0.0261
3445.00,0.0266
3442.00,0.0271
3439.00,0.0276
3436.00,0.0283
3433.00,0.0289
3430.00,0.0296
3427.00,0.0302
3424.00,0.0309
3421.00,0.0316
3418.00,0.0323
3415.00,0.0331
3412.00,0.0337
3409.00,0.0342
3406.00,0.0347
3403.00,0.0351
3400.00,0.0353
3397.00,0.0354
3394.00,0.0353
3391.00,0.0351
3388.00,0.0347
3385.00,0.0343
3382.00,0.0339
3379.00,0.0335
3376.00,0.0330
3373.00,0.0325
3370.00,0.0320
3367.00,0.0316
3364.00,0.0311
3361.00,0.0307
3358.00,0.0303
3355.00,0.0299
3352.00,0.0295
3349.00,0.0292
3346.00,0.0290
3343.00,0.0288
3340.00,0.0285
3337.00,0.0283
3334.00,0.0282
3331.00,0.0281
3328.00,0.0279
3325.00,0.0279
3322.00,0.0279
3319.00,0.0280
3316.00,0.0280
3313.00,0.0280
3310.00,0.0280
3307.00,0.0281
3304.00,0.0283
3301.00,0.0285
3298.00,0.0287
3295.00,0.0287
3292.00,0.0290
3289.00,0.0293
3286.00,0.0295
3283.00,0.0297
3280.00,0.0298
3277.00,0.0300
3274.00,0.0301
3271.00,0.0302
3268.00,0.0304
3265.00,0.0306
3262.00,0.0308
3259.00,0.0309
3256.00,0.0310
3253.00,0.0312
3250.00,0.0313
3247.00,0.0312
3244.00,0.0314
3241.00,0.0314
3238.00,0.0314
3235.00,0.0312
3232.00,0.0311
3229.00,0.0310
3226.00,0.0309
3223.00,0.0307
3220.00,0.0304
3217.00,0.0301
3214.00,0.0297
3211.00,0.0294
3208.00,0.0289
3205.00,0.0284
3202.00,0.0279
3199.00,0.0275
3196.00,0.0270
3193.00,0.0264
3190.00,0.0259
3187.00,0.0254
3184.00,0.0249
3181.00,0.0244
3178.00,0.0239
3175.00,0.0234
3172.00,0.0229
3169.00,0.0223
3166.00,0.0218
3163.00,0.0213
3160.00,0.0208
3157.00,0.0203
3154.00,0.0197
3151.00,0.0193
3148.00,0.0188
3145.00,0.0184
3142.00,0.0180
3139.00,0.0176
3136.00,0.0173
3133.00,0.0168
3130.00,0.0165
3127.00,0.0163
3124.00,0.0160
3121.00,0.0157
3118.00,0.0155
3115.00,0.0152
3112.00,0.0148
3109.00,0.0145
3106.00,0.0142
3103.00,0.0140
3100.00,0.0138
3097.00,0.0135
3094.00,0.0134
3091.00,0.0134
3088.00,0.0135
3085.00,0.0134
3082.00,0.0133
3079.00,0.0132
3076.00,0.0131
3073.00,0.0129
3070.00,0.0128
3067.00,0.0126
3064.00,0.0126
3061.00,0.0125
3058.00,0.0126
3055.00,0.0126
3052.00,0.0125
3049.00,0.0125
3046.00,0.0123
3043.00,0.0123
3040.00,0.0125
3037.00,0.0127
3034.00,0.0129
3031.00,0.0129
3028.00,0.0127
3025.00,0.0123
3022.00,0.0120
3019.00,0.0118
3016.00,0.0117
3013.00,0.0118
3010.00,0.0120
3007.00,0.0125
3004.00,0.0131
3001.00,0.0141
2998.00,0.0153
2995.00,0.0168
2992.00,0.0180
2989.00,0.0190
2986.00,0.0200
2983.00,0.0217
2980.00,0.0241
2977.00,0.0254
2974.00,0.0267
2971.00,0.0297
2968.00,0.0317
2965.00,0.0330
2962.00,0.0347
2959.00,0.0354
2956.00,0.0337
2953.00,0.0311
2950.00,0.0293
2947.00,0.0288
2944.00,0.0298
2941.00,0.0317
2938.00,0.0347
2935.00,0.0394
2932.00,0.0448
2929.00,0.0495
2926.00,0.0513
2923.00,0.0493
2920.00,0.0456
2917.00,0.0415
2914.00,0.0378
2911.00,0.0348
2908.00,0.0325
2905.00,0.0305
2902.00,0.0289
2899.00,0.0275
2896.00,0.0263
2893.00,0.0253
2890.00,0.0246
2887.00,0.0238
2884.00,0.0234
2881.00,0.0234
2878.00,0.0245
2875.00,0.0264
2872.00,0.0275
2869.00,0.0273
2866.00,0.0272
2863.00,0.0290
2860.00,0.0329
2857.00,0.0363
2854.00,0.0367
2851.00,0.0347
2848.00,0.0304
2845.00,0.0256
2842.00,0.0218
2839.00,0.0192
2836.00,0.0176
2833.00,0.0165
2830.00,0.0156
2827.00,0.0148
2824.00,0.0142
2821.00,0.0137
2818.00,0.0132
2815.00,0.0129
2812.00,0.0125
2809.00,0.0123
2806.00,0.0121
2803.00,0.0119
2800.00,0.0118
2797.00,0.0115
2794.00,0.0114
2791.00,0.0112
2788.00,0.0110
2785.00,0.0109
2782.00,0.0108
2779.00,0.0107
2776.00,0.0106
2773.00,0.0105
2770.00,0.0104
2767.00,0.0104
2764.00,0.0104
2761.00,0.0103
2758.00,0.0103
2755.00,0.0104
2752.00,0.0103
2749.00,0.0103
2746.00,0.0103
2743.00,0.0104
2740.00,0.0105
2737.00,0.0107
2734.00,0.0108
2731.00,0.0109
2728.00,0.0109
2725.00,0.0108
2722.00,0.0107
2719.00,0.0106
2716.00,0.0105
2713.00,0.0104
2710.00,0.0104
2707.00,0.0103
2704.00,0.0103
2701.00,0.0103
2698.00,0.0102
2695.00,0.0101
2692.00,0.0100
2689.00,0.0099
2686.00,0.0099
2683.00,0.0099
2680.00,0.0098
2677.00,0.0098
2674.00,0.0098
2671.00,0.0098
2668.00,0.0099
2665.00,0.0101
2662.00,0.0103
2659.00,0.0104
2656.00,0.0104
2653.00,0.0104
2650.00,0.0104
2647.00,0.0104
2644.00,0.0104
2641.00,0.0103
2638.00,0.0103
2635.00,0.0102
2632.00,0.0101
2629.00,0.0100
2626.00,0.0098
2623.00,0.0097
2620.00,0.0097
2617.00,0.0097
2614.00,0.0097
2611.00,0.0097
2608.00,0.0097
2605.00,0.0097
2602.00,0.0097
2599.00,0.0097
2596.00,0.0098
2593.00,0.0099
2590.00,0.0098
2587.00,0.0099
2584.00,0.0099
2581.00,0.0098
2578.00,0.0097
2575.00,0.0097
2572.00,0.0097
2569.00,0.0097
2566.00,0.0097
2563.00,0.0096
2560.00,0.0095
2557.00,0.0094
2554.00,0.0093
2551.00,0.0092
2548.00,0.0092
2545.00,0.0093
2542.00,0.0092
2539.00,0.0092
2536.00,0.0093
2533.00,0.0093
2530.00,0.0092
2527.00,0.0091
2524.00,0.0090
2521.00,0.0090
2518.00,0.0090
2515.00,0.0089
2512.00,0.0088
2509.00,0.0088
2506.00,0.0088
2503.00,0.0087
2500.00,0.0087
2497.00,0.0086
2494.00,0.0086
2491.00,0.0086
2488.00,0.0085
2485.00,0.0086
2482.00,0.0086
2479.00,0.0085
2476.00,0.0085
2473.00,0.0085
2470.00,0.0084
2467.00,0.0084
2464.00,0.0085
2461.00,0.0086
2458.00,0.0086
2455.00,0.0086
2452.00,0.0086
2449.00,0.0085
2446.00,0.0085
2443.00,0.0085
2440.00,0.0084
2437.00,0.0083
2434.00,0.0083
2431.00,0.0083
2428.00,0.0083
2425.00,0.0083
2422.00,0.0082
2419.00,0.0082
2416.00,0.0082
2413.00,0.0082
2410.00,0.0083
2407.00,0.0082
2404.00,0.0082
2401.00,0.0082
2398.00,0.0082
2395.00,0.0083
2392.00,0.0082
2389.00,0.0081
2386.00,0.0081
2383.00,0.0080
2380.00,0.0080
2377.00,0.0079
2374.00,0.0080
2371.00,0.0079
2368.00,0.0079
2365.00,0.0080
2362.00,0.0081
2359.00,0.0081
2356.00,0.0082
2353.00,0.0081
2350.00,0.0085
2347.00,0.0084
2344.00,0.0084
2341.00,0.0085
2338.00,0.0084
2335.00,0.0084
2332.00,0.0084
2329.00,0.0086
2326.00,0.0096
2323.00,0.0094
2320.00,0.0088
2317.00,0.0087
2314.00,0.0085
2311.00,0.0084
2308.00,0.0085
2305.00,0.0086
2302.00,0.0086
2299.00,0.0087
2296.00,0.0088
2293.00,0.0091
2290.00,0.0094
2287.00,0.0095
2284.00,0.0093
2281.00,0.0090
2278.00,0.0090
2275.00,0.0088
2272.00,0.0087
2269.00,0.0086
2266.00,0.0083
2263.00,0.0083
2260.00,0.0083
2257.00,0.0081
2254.00,0.0080
2251.00,0.0081
2248.00,0.0082
2245.00,0.0082
2242.00,0.0082
2239.00,0.0083
2236.00,0.0083
2233.00,0.0083
2230.00,0.0084
2227.00,0.0084
2224.00,0.0085
2221.00,0.0085
2218.00,0.0083
2215.00,0.0082
2212.00,0.0084
2209.00,0.0084
2206.00,0.0084
2203.00,0.0084
2200.00,0.0085
2197.00,0.0084
2194.00,0.0084
2191.00,0.0086
2188.00,0.0085
2185.00,0.0084
2182.00,0.0084
2179.00,0.0084
2176.00,0.0080
2173.00,0.0084
2170.00,0.0089
2167.00,0.0091
2164.00,0.0096
2161.00,0.0079
2158.00,0.0052
2155.00,0.0059
2152.00,0.0065
2149.00,0.0066
2146.00,0.0065
2143.00,0.0067
2140.00,0.0067
2137.00,0.0066
2134.00,0.0061
2131.00,0.0065
2128.00,0.0068
2125.00,0.0071
2122.00,0.0075
2119.00,0.0077
2116.00,0.0079
2113.00,0.0079
2110.00,0.0077
2107.00,0.0078
2104.00,0.0077
2101.00,0.0076
2098.00,0.0074
2095.00,0.0070
2092.00,0.0074
2089.00,0.0076
2086.00,0.0076
2083.00,0.0078
2080.00,0.0079
2077.00,0.0078
2074.00,0.0077
2071.00,0.0076
2068.00,0.0075
2065.00,0.0073
2062.00,0.0074
2059.00,0.0075
2056.00,0.0073
2053.00,0.0079
2050.00,0.0080
2047.00,0.0072
2044.00,0.0073
2041.00,0.0075
2038.00,0.0074
2035.00,0.0072
2032.00,0.0069
2029.00,0.0068
2026.00,0.0066
2023.00,0.0066
2020.00,0.0066
2017.00,0.0063
2014.00,0.0062
2011.00,0.0065
2008.00,0.0060
2005.00,0.0056
2002.00,0.0059
1999.00,0.0063
1996.00,0.0065
1993.00,0.0068
1990.00,0.0072
1987.00,0.0073
1984.00,0.0076
1981.00,0.0081
1978.00,0.0068
1975.00,0.0061
1972.00,0.0057
1969.00,0.0060
1966.00,0.0061
1963.00,0.0061
1960.00,0.0056
1957.00,0.0057
1954.00,0.0062
1951.00,0.0063
1948.00,0.0064
1945.00,0.0064
1942.00,0.0064
1939.00,0.0064
1936.00,0.0065
1933.00,0.0064
1930.00,0.0065
1927.00,0.0067
1924.00,0.0067
1921.00,0.0070
1918.00,0.0070
1915.00,0.0070
1912.00,0.0074
1909.00,0.0080
1906.00,0.0078
1903.00,0.0073
1900.00,0.0071
1897.00,0.0071
1894.00,0.0074
1891.00,0.0074
1888.00,0.0070
1885.00,0.0070
1882.00,0.0069
1879.00,0.0069
1876.00,0.0069
1873.00,0.0069
1870.00,0.0070
1867.00,0.0070
1864.00,0.0070
1861.00,0.0071
1858.00,0.0070
1855.00,0.0071
1852.00,0.0071
1849.00,0.0073
1846.00,0.0076
1843.00,0.0076
1840.00,0.0073
1837.00,0.0070
1834.00,0.0070
1831.00,0.0070
1828.00,0.0071
1825.00,0.0072
1822.00,0.0071
1819.00,0.0069
1816.00,0.0068
1813.00,0.0069
1810.00,0.0070
1807.00,0.0071
1804.00,0.0071
1801.00,0.0073
1798.00,0.0074
1795.00,0.0074
1792.00,0.0075
1789.00,0.0074
1786.00,0.0075
1783.00,0.0074
1780.00,0.0074
1777.00,0.0075
1774.00,0.0077
1771.00,0.0079
1768.00,0.0079
1765.00,0.0077
1762.00,0.0078
1759.00,0.0080
1756.00,0.0079
1753.00,0.0078
1750.00,0.0076
1747.00,0.0077
1744.00,0.0078
1741.00,0.0079
1738.00,0.0080
1735.00,0.0080
1732.00,0.0083
1729.00,0.0089
1726.00,0.0093
1723.00,0.0098
1720.00,0.0101
1717.00,0.0104
1714.00,0.0112
1711.00,0.0119
1708.00,0.0125
1705.00,0.0133
1702.00,0.0144
1699.00,0.0155
1696.00,0.0170
1693.00,0.0192
1690.00,0.0217
1687.00,0.0243
1684.00,0.0285
1681.00,0.0330
1678.00,0.0375
1675.00,0.0431
1672.00,0.0481
1669.00,0.0539
1666.00,0.0590
1663.00,0.0645
1660.00,0.0694
1657.00,0.0735
1654.00,0.0774
1651.00,0.0807
1648.00,0.0831
1645.00,0.0843
1642.00,0.0847
1639.00,0.0838
1636.00,0.0814
1633.00,0.0793
1630.00,0.0819
1627.00,0.0896
1624.00,0.0964
1621.00,0.0966
1618.00,0.0900
1615.00,0.0760
1612.00,0.0732
1609.00,0.0698
1606.00,0.0608
1603.00,0.0510
1600.00,0.0434
1597.00,0.0391
1594.00,0.0384
1591.00,0.0426
1588.00,0.0508
1585.00,0.0571
1582.00,0.0571
1579.00,0.0528
1576.00,0.0455
1573.00,0.0403
1570.00,0.0376
1567.00,0.0345
1564.00,0.0302
1561.00,0.0266
1558.00,0.0226
1555.00,0.0213
1552.00,0.0204
1549.00,0.0197
1546.00,0.0191
1543.00,0.0182
1540.00,0.0172
1537.00,0.0172
1534.00,0.0171
1531.00,0.0167
1528.00,0.0167
1525.00,0.0168
1522.00,0.0172
1519.00,0.0182
1516.00,0.0199
1513.00,0.0215
1510.00,0.0227
1507.00,0.0235
1504.00,0.0258
1501.00,0.0303
1498.00,0.0400
1495.00,0.0463
1492.00,0.0419
1489.00,0.0331
1486.00,0.0270
1483.00,0.0237
1480.00,0.0223
1477.00,0.0228
1474.00,0.0252
1471.00,0.0333
1468.00,0.0455
1465.00,0.0562
1462.00,0.0587
1459.00,0.0585
1456.00,0.0516
1453.00,0.0478
1450.00,0.0488
1447.00,0.0538
1444.00,0.0612
1441.00,0.0683
1438.00,0.0725
1435.00,0.0740
1432.00,0.0769
1429.00,0.0796
1426.00,0.0818
1423.00,0.0817
1420.00,0.0775
1417.00,0.0663
1414.00,0.0576
1411.00,0.0526
1408.00,0.0531
1405.00,0.0585
1402.00,0.0642
1399.00,0.0646
1396.00,0.0583
1393.00,0.0491
1390.00,0.0451
1387.00,0.0481
1384.00,0.0475
1381.00,0.0468
1378.00,0.0479
1375.00,0.0457
1372.00,0.0409
1369.00,0.0419
1366.00,0.0482
1363.00,0.0506
1360.00,0.0546
1357.00,0.0503
1354.00,0.0441
1351.00,0.0422
1348.00,0.0424
1345.00,0.0417
1342.00,0.0389
1339.00,0.0354
1336.00,0.0340
1333.00,0.0359
1330.00,0.0386
1327.00,0.0401
1324.00,0.0409
1321.00,0.0420
1318.00,0.0419
1315.00,0.0398
1312.00,0.0379
1309.00,0.0387
1306.00,0.0435
1303.00,0.0531
1300.00,0.0620
1297.00,0.0667
1294.00,0.0738
1291.00,0.0792
1288.00,0.0830
1285.00,0.0867
1282.00,0.0858
1279.00,0.0791
1276.00,0.0730
1273.00,0.0692
1270.00,0.0645
1267.00,0.0589
1264.00,0.0532
1261.00,0.0477
1258.00,0.0433
1255.00,0.0405
1252.00,0.0393
1249.00,0.0406
1246.00,0.0445
1243.00,0.0485
1240.00,0.0518
1237.00,0.0579
1234.00,0.0639
1231.00,0.0630
1228.00,0.0571
1225.00,0.0521
1222.00,0.0496
1219.00,0.0500
1216.00,0.0525
1213.00,0.0525
1210.00,0.0475
1207.00,0.0425
1204.00,0.0419
1201.00,0.0464
1198.00,0.0541
1195.00,0.0614
1192.00,0.0602
1189.00,0.0523
1186.00,0.0435
1183.00,0.0375
1180.00,0.0346
1177.00,0.0336
1174.00,0.0334
1171.00,0.0333
1168.00,0.0330
1165.00,0.0332
1162.00,0.0351
1159.00,0.0426
1156.00,0.0561
1153.00,0.0584
1150.00,0.0443
1147.00,0.0336
1144.00,0.0298
1141.00,0.0288
1138.00,0.0302
1135.00,0.0360
1132.00,0.0505
1129.00,0.0663
1126.00,0.0671
1123.00,0.0567
1120.00,0.0448
1117.00,0.0391
1114.00,0.0377
1111.00,0.0357
1108.00,0.0336
1105.00,0.0353
1102.00,0.0437
1099.00,0.0501
1096.00,0.0435
1093.00,0.0343
1090.00,0.0298
1087.00,0.0278
1084.00,0.0270
1081.00,0.0271
1078.00,0.0276
1075.00,0.0284
1072.00,0.0295
1069.00,0.0313
1066.00,0.0336
1063.00,0.0383
1060.00,0.0488
1057.00,0.0670
1054.00,0.0836
1051.00,0.0886
1048.00,0.0857
1045.00,0.0738
1042.00,0.0594
1039.00,0.0501
1036.00,0.0488
1033.00,0.0514
1030.00,0.0623
1027.00,0.0768
1024.00,0.0714
1021.00,0.0559
1018.00,0.0453
1015.00,0.0388
1012.00,0.0353
1009.00,0.0364
1006.00,0.0427
1003.00,0.0474
1000.00,0.0455
997.00,0.0420
994.00,0.0398
991.00,0.0365
988.00,0.0323
985.00,0.0295
982.00,0.0278
979.00,0.0271
976.00,0.0270
973.00,0.0267
970.00,0.0261
967.00,0.0259
964.00,0.0264
961.00,0.0266
958.00,0.0242
955.00,0.0223
952.00,0.0215
949.00,0.0223
946.00,0.0228
943.00,0.0232
940.00,0.0254
937.00,0.0275
934.00,0.0294
931.00,0.0295
928.00,0.0280
925.00,0.0286
922.00,0.0313
919.00,0.0295
916.00,0.0251
913.00,0.0227
910.00,0.0220
907.00,0.0223
904.00,0.0245
901.00,0.0298
898.00,0.0324
895.00,0.0293
892.00,0.0305
889.00,0.0332
886.00,0.0271
883.00,0.0247
880.00,0.0260
877.00,0.0316
874.00,0.0435
871.00,0.0572
868.00,0.0593
865.00,0.0509
862.00,0.0424
859.00,0.0372
856.00,0.0406
853.00,0.0484
850.00,0.0561
847.00,0.0563
844.00,0.0491
841.00,0.0449
838.00,0.0474
835.00,0.0555
832.00,0.0572
829.00,0.0490
826.00,0.0394
823.00,0.0442
820.00,0.0641
817.00,0.0717
814.00,0.0687
811.00,0.0467
808.00,0.0367
805.00,0.0328
802.00,0.0312
799.00,0.0305
796.00,0.0301
793.00,0.0299
790.00,0.0300
787.00,0.0302
784.00,0.0304
781.00,0.0309
778.00,0.0324
775.00,0.0368
772.00,0.0369
769.00,0.0345
766.00,0.0345
763.00,0.0361
760.00,0.0388
757.00,0.0394
754.00,0.0392
751.00,0.0399
748.00,0.0411
745.00,0.0426
742.00,0.0452
739.00,0.0506
736.00,0.0616
733.00,0.0647
730.00,0.0625
727.00,0.0615
724.00,0.0539
721.00,0.0498
718.00,0.0512
715.00,0.0551
712.00,0.0544
709.00,0.0521
706.00,0.0514
703.00,0.0527
700.00,0.0551
697.00,0.0565
694.00,0.0554
691.00,0.0572
688.00,0.0621
685.00,0.0609
682.00,0.0592
679.00,0.0604
676.00,0.0635
673.00,0.0682
670.00,0.0711
667.00,0.0702
664.00,0.0716
661.00,0.0742
658.00,0.0733
655.00,0.0718
652.00,0.0720
649.00,0.0726
646.00,0.0727
643.00,0.0718
640.00,0.0709
637.00,0.0699
634.00,0.0692
631.00,0.0690
628.00,0.0694
625.00,0.0706
622.00,0.0735
619.00,0.0751
616.00,0.0721
613.00,0.0686
610.00,0.0680
607.00,0.0738
604.00,0.0819
601.00,0.0860
598.00,0.0868
595.00,0.0867
592.00,0.0863
589.00,0.0852
586.00,0.0849
583.00,0.0862
580.00,0.0897
577.00,0.0962
574.00,0.0957
571.00,0.0897
568.00,0.0857
565.00,0.0865
562.00,0.0913
559.00,0.0948
556.00,0.0910
553.00,0.0874
550.00,0.0895
547.00,0.0955
544.00,0.0956
541.00,0.0908
538.00,0.0871
535.00,0.0876
532.00,0.0922
529.00,0.0919
526.00,0.0863
523.00,0.0814
520.00,0.0789
517.00,0.0776
514.00,0.0766
511.00,0.0762
508.00,0.0772
505.00,0.0782
502.00,0.0769
499.00,0.0749
496.00,0.0750
493.00,0.0768
490.00,0.0771
487.00,0.0752
484.00,0.0734
481.00,0.0733
478.00,0.0727
475.00,0.0718
472.00,0.0715
469.00,0.0710
466.00,0.0704
463.00,0.0702
460.00,0.0700
457.00,0.0700
454.00,0.0687
451.00,0.0683
448.00,0.0684
445.00,0.0672
442.00,0.0672
439.00,0.0668
436.00,0.0652
433.00,0.0641
430.00,0.0639
427.00,0.0636
424.00,0.0630
421.00,0.0629
418.00,0.0625
415.00,0.0619
412.00,0.0650
409.00,0.0680
406.00,0.0654
403.00,0.0623
400.00,0.0593