File: FTIR/Olivia/2025_08_06_1CBN_3PVP40_MP_Powder_Scan2.csv
Created as New Dataset,Sample 1086 By YargerLab Date Wednesday, August 06 2025
cm-1,A
4000.00,0.0098
3997.00,0.0097
3994.00,0.0097
3991.00,0.0098
3988.00,0.0098
3985.00,0.0098
3982.00,0.0097
3979.00,0.0098
3976.00,0.0098
3973.00,0.0098
3970.00,0.0098
3967.00,0.0097
3964.00,0.0097
3961.00,0.0097
3958.00,0.0097
3955.00,0.0097
3952.00,0.0097
3949.00,0.0097
3946.00,0.0097
3943.00,0.0097
3940.00,0.0097
3937.00,0.0097
3934.00,0.0097
3931.00,0.0096
3928.00,0.0096
3925.00,0.0097
3922.00,0.0097
3919.00,0.0097
3916.00,0.0096
3913.00,0.0096
3910.00,0.0096
3907.00,0.0097
3904.00,0.0097
3901.00,0.0097
3898.00,0.0096
3895.00,0.0096
3892.00,0.0096
3889.00,0.0096
3886.00,0.0096
3883.00,0.0095
3880.00,0.0095
3877.00,0.0095
3874.00,0.0095
3871.00,0.0095
3868.00,0.0095
3865.00,0.0095
3862.00,0.0095
3859.00,0.0096
3856.00,0.0096
3853.00,0.0095
3850.00,0.0095
3847.00,0.0095
3844.00,0.0096
3841.00,0.0095
3838.00,0.0094
3835.00,0.0095
3832.00,0.0095
3829.00,0.0095
3826.00,0.0095
3823.00,0.0096
3820.00,0.0096
3817.00,0.0094
3814.00,0.0094
3811.00,0.0095
3808.00,0.0095
3805.00,0.0094
3802.00,0.0094
3799.00,0.0094
3796.00,0.0094
3793.00,0.0094
3790.00,0.0094
3787.00,0.0095
3784.00,0.0095
3781.00,0.0094
3778.00,0.0094
3775.00,0.0095
3772.00,0.0095
3769.00,0.0095
3766.00,0.0095
3763.00,0.0095
3760.00,0.0095
3757.00,0.0095
3754.00,0.0094
3751.00,0.0094
3748.00,0.0094
3745.00,0.0095
3742.00,0.0093
3739.00,0.0093
3736.00,0.0093
3733.00,0.0092
3730.00,0.0093
3727.00,0.0092
3724.00,0.0092
3721.00,0.0092
3718.00,0.0093
3715.00,0.0092
3712.00,0.0091
3709.00,0.0092
3706.00,0.0092
3703.00,0.0092
3700.00,0.0092
3697.00,0.0092
3694.00,0.0092
3691.00,0.0093
3688.00,0.0094
3685.00,0.0094
3682.00,0.0096
3679.00,0.0096
3676.00,0.0096
3673.00,0.0096
3670.00,0.0097
3667.00,0.0098
3664.00,0.0098
3661.00,0.0099
3658.00,0.0101
3655.00,0.0101
3652.00,0.0102
3649.00,0.0103
3646.00,0.0105
3643.00,0.0106
3640.00,0.0108
3637.00,0.0109
3634.00,0.0111
3631.00,0.0114
3628.00,0.0117
3625.00,0.0118
3622.00,0.0120
3619.00,0.0122
3616.00,0.0125
3613.00,0.0128
3610.00,0.0131
3607.00,0.0134
3604.00,0.0136
3601.00,0.0138
3598.00,0.0141
3595.00,0.0145
3592.00,0.0148
3589.00,0.0151
3586.00,0.0156
3583.00,0.0160
3580.00,0.0163
3577.00,0.0167
3574.00,0.0172
3571.00,0.0175
3568.00,0.0180
3565.00,0.0185
3562.00,0.0189
3559.00,0.0193
3556.00,0.0197
3553.00,0.0201
3550.00,0.0206
3547.00,0.0210
3544.00,0.0215
3541.00,0.0218
3538.00,0.0221
3535.00,0.0225
3532.00,0.0228
3529.00,0.0231
3526.00,0.0234
3523.00,0.0238
3520.00,0.0242
3517.00,0.0245
3514.00,0.0247
3511.00,0.0249
3508.00,0.0252
3505.00,0.0255
3502.00,0.0260
3499.00,0.0262
3496.00,0.0264
3493.00,0.0268
3490.00,0.0271
3487.00,0.0275
3484.00,0.0279
3481.00,0.0284
3478.00,0.0288
3475.00,0.0292
3472.00,0.0297
3469.00,0.0302
3466.00,0.0307
3463.00,0.0312
3460.00,0.0318
3457.00,0.0322
3454.00,0.0328
3451.00,0.0333
3448.00,0.0338
3445.00,0.0345
3442.00,0.0351
3439.00,0.0358
3436.00,0.0364
3433.00,0.0371
3430.00,0.0379
3427.00,0.0386
3424.00,0.0394
3421.00,0.0403
3418.00,0.0412
3415.00,0.0419
3412.00,0.0427
3409.00,0.0433
3406.00,0.0437
3403.00,0.0440
3400.00,0.0440
3397.00,0.0439
3394.00,0.0436
3391.00,0.0432
3388.00,0.0427
3385.00,0.0420
3382.00,0.0413
3379.00,0.0406
3376.00,0.0399
3373.00,0.0391
3370.00,0.0383
3367.00,0.0377
3364.00,0.0373
3361.00,0.0367
3358.00,0.0362
3355.00,0.0358
3352.00,0.0353
3349.00,0.0349
3346.00,0.0347
3343.00,0.0343
3340.00,0.0340
3337.00,0.0339
3334.00,0.0339
3331.00,0.0338
3328.00,0.0337
3325.00,0.0336
3322.00,0.0337
3319.00,0.0339
3316.00,0.0339
3313.00,0.0339
3310.00,0.0338
3307.00,0.0337
3304.00,0.0341
3301.00,0.0346
3298.00,0.0347
3295.00,0.0347
3292.00,0.0350
3289.00,0.0355
3286.00,0.0358
3283.00,0.0360
3280.00,0.0363
3277.00,0.0364
3274.00,0.0365
3271.00,0.0366
3268.00,0.0370
3265.00,0.0373
3262.00,0.0375
3259.00,0.0376
3256.00,0.0378
3253.00,0.0380
3250.00,0.0381
3247.00,0.0381
3244.00,0.0384
3241.00,0.0385
3238.00,0.0384
3235.00,0.0381
3232.00,0.0380
3229.00,0.0380
3226.00,0.0378
3223.00,0.0375
3220.00,0.0372
3217.00,0.0368
3214.00,0.0365
3211.00,0.0360
3208.00,0.0355
3205.00,0.0349
3202.00,0.0342
3199.00,0.0336
3196.00,0.0330
3193.00,0.0324
3190.00,0.0318
3187.00,0.0311
3184.00,0.0305
3181.00,0.0299
3178.00,0.0292
3175.00,0.0287
3172.00,0.0281
3169.00,0.0274
3166.00,0.0267
3163.00,0.0261
3160.00,0.0255
3157.00,0.0249
3154.00,0.0242
3151.00,0.0237
3148.00,0.0232
3145.00,0.0227
3142.00,0.0222
3139.00,0.0217
3136.00,0.0214
3133.00,0.0210
3130.00,0.0206
3127.00,0.0203
3124.00,0.0200
3121.00,0.0197
3118.00,0.0194
3115.00,0.0191
3112.00,0.0188
3109.00,0.0184
3106.00,0.0181
3103.00,0.0177
3100.00,0.0175
3097.00,0.0173
3094.00,0.0173
3091.00,0.0173
3088.00,0.0174
3085.00,0.0174
3082.00,0.0173
3079.00,0.0171
3076.00,0.0169
3073.00,0.0167
3070.00,0.0166
3067.00,0.0166
3064.00,0.0166
3061.00,0.0166
3058.00,0.0167
3055.00,0.0167
3052.00,0.0166
3049.00,0.0165
3046.00,0.0165
3043.00,0.0165
3040.00,0.0167
3037.00,0.0171
3034.00,0.0173
3031.00,0.0173
3028.00,0.0171
3025.00,0.0167
3022.00,0.0164
3019.00,0.0163
3016.00,0.0163
3013.00,0.0165
3010.00,0.0170
3007.00,0.0177
3004.00,0.0188
3001.00,0.0202
2998.00,0.0223
2995.00,0.0245
2992.00,0.0264
2989.00,0.0281
2986.00,0.0300
2983.00,0.0329
2980.00,0.0366
2977.00,0.0386
2974.00,0.0410
2971.00,0.0454
2968.00,0.0482
2965.00,0.0503
2962.00,0.0530
2959.00,0.0537
2956.00,0.0513
2953.00,0.0480
2950.00,0.0458
2947.00,0.0454
2944.00,0.0469
2941.00,0.0496
2938.00,0.0540
2935.00,0.0609
2932.00,0.0690
2929.00,0.0758
2926.00,0.0778
2923.00,0.0746
2920.00,0.0692
2917.00,0.0631
2914.00,0.0574
2911.00,0.0528
2908.00,0.0491
2905.00,0.0462
2902.00,0.0438
2899.00,0.0418
2896.00,0.0403
2893.00,0.0391
2890.00,0.0381
2887.00,0.0372
2884.00,0.0366
2881.00,0.0368
2878.00,0.0385
2875.00,0.0408
2872.00,0.0420
2869.00,0.0415
2866.00,0.0415
2863.00,0.0446
2860.00,0.0502
2857.00,0.0545
2854.00,0.0546
2851.00,0.0511
2848.00,0.0442
2845.00,0.0372
2842.00,0.0319
2839.00,0.0282
2836.00,0.0259
2833.00,0.0242
2830.00,0.0228
2827.00,0.0215
2824.00,0.0205
2821.00,0.0197
2818.00,0.0190
2815.00,0.0184
2812.00,0.0179
2809.00,0.0176
2806.00,0.0173
2803.00,0.0170
2800.00,0.0167
2797.00,0.0164
2794.00,0.0162
2791.00,0.0159
2788.00,0.0157
2785.00,0.0155
2782.00,0.0152
2779.00,0.0151
2776.00,0.0149
2773.00,0.0148
2770.00,0.0147
2767.00,0.0147
2764.00,0.0146
2761.00,0.0146
2758.00,0.0145
2755.00,0.0146
2752.00,0.0145
2749.00,0.0145
2746.00,0.0146
2743.00,0.0147
2740.00,0.0148
2737.00,0.0149
2734.00,0.0151
2731.00,0.0153
2728.00,0.0153
2725.00,0.0151
2722.00,0.0150
2719.00,0.0148
2716.00,0.0147
2713.00,0.0146
2710.00,0.0145
2707.00,0.0144
2704.00,0.0144
2701.00,0.0143
2698.00,0.0142
2695.00,0.0142
2692.00,0.0140
2689.00,0.0139
2686.00,0.0138
2683.00,0.0137
2680.00,0.0137
2677.00,0.0137
2674.00,0.0138
2671.00,0.0138
2668.00,0.0139
2665.00,0.0141
2662.00,0.0143
2659.00,0.0144
2656.00,0.0144
2653.00,0.0144
2650.00,0.0144
2647.00,0.0144
2644.00,0.0144
2641.00,0.0143
2638.00,0.0142
2635.00,0.0140
2632.00,0.0139
2629.00,0.0138
2626.00,0.0136
2623.00,0.0135
2620.00,0.0134
2617.00,0.0134
2614.00,0.0134
2611.00,0.0133
2608.00,0.0133
2605.00,0.0134
2602.00,0.0134
2599.00,0.0135
2596.00,0.0135
2593.00,0.0136
2590.00,0.0136
2587.00,0.0136
2584.00,0.0136
2581.00,0.0135
2578.00,0.0134
2575.00,0.0134
2572.00,0.0133
2569.00,0.0134
2566.00,0.0133
2563.00,0.0133
2560.00,0.0131
2557.00,0.0130
2554.00,0.0129
2551.00,0.0128
2548.00,0.0127
2545.00,0.0127
2542.00,0.0128
2539.00,0.0128
2536.00,0.0128
2533.00,0.0127
2530.00,0.0127
2527.00,0.0125
2524.00,0.0124
2521.00,0.0124
2518.00,0.0123
2515.00,0.0122
2512.00,0.0122
2509.00,0.0121
2506.00,0.0121
2503.00,0.0120
2500.00,0.0119
2497.00,0.0119
2494.00,0.0118
2491.00,0.0118
2488.00,0.0118
2485.00,0.0118
2482.00,0.0118
2479.00,0.0117
2476.00,0.0116
2473.00,0.0116
2470.00,0.0116
2467.00,0.0116
2464.00,0.0116
2461.00,0.0116
2458.00,0.0117
2455.00,0.0117
2452.00,0.0117
2449.00,0.0116
2446.00,0.0115
2443.00,0.0115
2440.00,0.0114
2437.00,0.0114
2434.00,0.0113
2431.00,0.0113
2428.00,0.0114
2425.00,0.0113
2422.00,0.0113
2419.00,0.0113
2416.00,0.0113
2413.00,0.0114
2410.00,0.0114
2407.00,0.0112
2404.00,0.0112
2401.00,0.0112
2398.00,0.0112
2395.00,0.0112
2392.00,0.0111
2389.00,0.0110
2386.00,0.0109
2383.00,0.0108
2380.00,0.0107
2377.00,0.0107
2374.00,0.0108
2371.00,0.0108
2368.00,0.0108
2365.00,0.0107
2362.00,0.0108
2359.00,0.0110
2356.00,0.0111
2353.00,0.0110
2350.00,0.0110
2347.00,0.0110
2344.00,0.0110
2341.00,0.0113
2338.00,0.0114
2335.00,0.0115
2332.00,0.0113
2329.00,0.0116
2326.00,0.0129
2323.00,0.0125
2320.00,0.0121
2317.00,0.0119
2314.00,0.0116
2311.00,0.0115
2308.00,0.0114
2305.00,0.0114
2302.00,0.0114
2299.00,0.0116
2296.00,0.0118
2293.00,0.0121
2290.00,0.0124
2287.00,0.0125
2284.00,0.0122
2281.00,0.0119
2278.00,0.0118
2275.00,0.0117
2272.00,0.0115
2269.00,0.0113
2266.00,0.0111
2263.00,0.0110
2260.00,0.0111
2257.00,0.0109
2254.00,0.0106
2251.00,0.0108
2248.00,0.0108
2245.00,0.0109
2242.00,0.0111
2239.00,0.0111
2236.00,0.0109
2233.00,0.0110
2230.00,0.0110
2227.00,0.0112
2224.00,0.0112
2221.00,0.0109
2218.00,0.0109
2215.00,0.0111
2212.00,0.0110
2209.00,0.0108
2206.00,0.0109
2203.00,0.0110
2200.00,0.0108
2197.00,0.0109
2194.00,0.0109
2191.00,0.0112
2188.00,0.0114
2185.00,0.0111
2182.00,0.0106
2179.00,0.0110
2176.00,0.0105
2173.00,0.0107
2170.00,0.0115
2167.00,0.0121
2164.00,0.0125
2161.00,0.0104
2158.00,0.0070
2155.00,0.0080
2152.00,0.0088
2149.00,0.0087
2146.00,0.0087
2143.00,0.0091
2140.00,0.0091
2137.00,0.0088
2134.00,0.0082
2131.00,0.0088
2128.00,0.0094
2125.00,0.0096
2122.00,0.0100
2119.00,0.0102
2116.00,0.0107
2113.00,0.0105
2110.00,0.0103
2107.00,0.0102
2104.00,0.0103
2101.00,0.0102
2098.00,0.0099
2095.00,0.0096
2092.00,0.0098
2089.00,0.0101
2086.00,0.0103
2083.00,0.0105
2080.00,0.0105
2077.00,0.0105
2074.00,0.0104
2071.00,0.0103
2068.00,0.0101
2065.00,0.0099
2062.00,0.0095
2059.00,0.0099
2056.00,0.0098
2053.00,0.0104
2050.00,0.0104
2047.00,0.0097
2044.00,0.0097
2041.00,0.0099
2038.00,0.0099
2035.00,0.0096
2032.00,0.0089
2029.00,0.0091
2026.00,0.0088
2023.00,0.0091
2020.00,0.0092
2017.00,0.0093
2014.00,0.0090
2011.00,0.0086
2008.00,0.0080
2005.00,0.0078
2002.00,0.0085
1999.00,0.0089
1996.00,0.0090
1993.00,0.0094
1990.00,0.0097
1987.00,0.0098
1984.00,0.0102
1981.00,0.0107
1978.00,0.0086
1975.00,0.0082
1972.00,0.0085
1969.00,0.0086
1966.00,0.0085
1963.00,0.0083
1960.00,0.0080
1957.00,0.0082
1954.00,0.0083
1951.00,0.0087
1948.00,0.0088
1945.00,0.0089
1942.00,0.0089
1939.00,0.0087
1936.00,0.0086
1933.00,0.0088
1930.00,0.0089
1927.00,0.0090
1924.00,0.0094
1921.00,0.0094
1918.00,0.0092
1915.00,0.0094
1912.00,0.0101
1909.00,0.0110
1906.00,0.0105
1903.00,0.0098
1900.00,0.0097
1897.00,0.0099
1894.00,0.0100
1891.00,0.0099
1888.00,0.0095
1885.00,0.0095
1882.00,0.0093
1879.00,0.0094
1876.00,0.0093
1873.00,0.0094
1870.00,0.0097
1867.00,0.0096
1864.00,0.0096
1861.00,0.0096
1858.00,0.0096
1855.00,0.0095
1852.00,0.0097
1849.00,0.0102
1846.00,0.0102
1843.00,0.0097
1840.00,0.0098
1837.00,0.0098
1834.00,0.0096
1831.00,0.0097
1828.00,0.0096
1825.00,0.0096
1822.00,0.0096
1819.00,0.0094
1816.00,0.0092
1813.00,0.0098
1810.00,0.0097
1807.00,0.0097
1804.00,0.0099
1801.00,0.0100
1798.00,0.0101
1795.00,0.0103
1792.00,0.0100
1789.00,0.0100
1786.00,0.0101
1783.00,0.0103
1780.00,0.0105
1777.00,0.0107
1774.00,0.0110
1771.00,0.0106
1768.00,0.0107
1765.00,0.0106
1762.00,0.0108
1759.00,0.0113
1756.00,0.0111
1753.00,0.0114
1750.00,0.0119
1747.00,0.0123
1744.00,0.0126
1741.00,0.0120
1738.00,0.0122
1735.00,0.0126
1732.00,0.0135
1729.00,0.0142
1726.00,0.0148
1723.00,0.0157
1720.00,0.0163
1717.00,0.0177
1714.00,0.0187
1711.00,0.0207
1708.00,0.0225
1705.00,0.0254
1702.00,0.0271
1699.00,0.0342
1696.00,0.0418
1693.00,0.0503
1690.00,0.0594
1687.00,0.0680
1684.00,0.0800
1681.00,0.0915
1678.00,0.0986
1675.00,0.1077
1672.00,0.1159
1669.00,0.1244
1666.00,0.1309
1663.00,0.1363
1660.00,0.1428
1657.00,0.1450
1654.00,0.1449
1651.00,0.1509
1648.00,0.1466
1645.00,0.1428
1642.00,0.1360
1639.00,0.1268
1636.00,0.1166
1633.00,0.1117
1630.00,0.1118
1627.00,0.1218
1624.00,0.1298
1621.00,0.1309
1618.00,0.1176
1615.00,0.1017
1612.00,0.0973
1609.00,0.0922
1606.00,0.0797
1603.00,0.0666
1600.00,0.0569
1597.00,0.0516
1594.00,0.0510
1591.00,0.0567
1588.00,0.0671
1585.00,0.0745
1582.00,0.0742
1579.00,0.0684
1576.00,0.0594
1573.00,0.0526
1570.00,0.0483
1567.00,0.0449
1564.00,0.0392
1561.00,0.0332
1558.00,0.0279
1555.00,0.0275
1552.00,0.0267
1549.00,0.0254
1546.00,0.0246
1543.00,0.0240
1540.00,0.0236
1537.00,0.0228
1534.00,0.0222
1531.00,0.0219
1528.00,0.0222
1525.00,0.0223
1522.00,0.0229
1519.00,0.0242
1516.00,0.0265
1513.00,0.0283
1510.00,0.0308
1507.00,0.0326
1504.00,0.0360
1501.00,0.0424
1498.00,0.0561
1495.00,0.0653
1492.00,0.0587
1489.00,0.0484
1486.00,0.0394
1483.00,0.0342
1480.00,0.0315
1477.00,0.0318
1474.00,0.0355
1471.00,0.0480
1468.00,0.0654
1465.00,0.0811
1462.00,0.0876
1459.00,0.0867
1456.00,0.0781
1453.00,0.0709
1450.00,0.0695
1447.00,0.0759
1444.00,0.0871
1441.00,0.0997
1438.00,0.1078
1435.00,0.1180
1432.00,0.1232
1429.00,0.1288
1426.00,0.1334
1423.00,0.1367
1420.00,0.1307
1417.00,0.1152
1414.00,0.0971
1411.00,0.0845
1408.00,0.0808
1405.00,0.0851
1402.00,0.0904
1399.00,0.0892
1396.00,0.0801
1393.00,0.0682
1390.00,0.0627
1387.00,0.0668
1384.00,0.0657
1381.00,0.0659
1378.00,0.0685
1375.00,0.0660
1372.00,0.0607
1369.00,0.0626
1366.00,0.0695
1363.00,0.0718
1360.00,0.0770
1357.00,0.0689
1354.00,0.0601
1351.00,0.0573
1348.00,0.0575
1345.00,0.0560
1342.00,0.0523
1339.00,0.0482
1336.00,0.0462
1333.00,0.0488
1330.00,0.0525
1327.00,0.0549
1324.00,0.0568
1321.00,0.0595
1318.00,0.0609
1315.00,0.0589
1312.00,0.0565
1309.00,0.0570
1306.00,0.0630
1303.00,0.0758
1300.00,0.0875
1297.00,0.0955
1294.00,0.1096
1291.00,0.1237
1288.00,0.1359
1285.00,0.1450
1282.00,0.1431
1279.00,0.1316
1276.00,0.1234
1273.00,0.1208
1270.00,0.1170
1267.00,0.1094
1264.00,0.0988
1261.00,0.0873
1258.00,0.0773
1255.00,0.0703
1252.00,0.0665
1249.00,0.0670
1246.00,0.0716
1243.00,0.0766
1240.00,0.0806
1237.00,0.0885
1234.00,0.0963
1231.00,0.0945
1228.00,0.0866
1225.00,0.0800
1222.00,0.0765
1219.00,0.0768
1216.00,0.0795
1213.00,0.0785
1210.00,0.0706
1207.00,0.0634
1204.00,0.0623
1201.00,0.0680
1198.00,0.0781
1195.00,0.0872
1192.00,0.0843
1189.00,0.0729
1186.00,0.0612
1183.00,0.0537
1180.00,0.0502
1177.00,0.0492
1174.00,0.0495
1171.00,0.0500
1168.00,0.0503
1165.00,0.0505
1162.00,0.0527
1159.00,0.0622
1156.00,0.0787
1153.00,0.0782
1150.00,0.0584
1147.00,0.0455
1144.00,0.0409
1141.00,0.0397
1138.00,0.0413
1135.00,0.0490
1132.00,0.0681
1129.00,0.0870
1126.00,0.0852
1123.00,0.0708
1120.00,0.0565
1117.00,0.0504
1114.00,0.0492
1111.00,0.0469
1108.00,0.0448
1105.00,0.0476
1102.00,0.0588
1099.00,0.0663
1096.00,0.0571
1093.00,0.0454
1090.00,0.0398
1087.00,0.0378
1084.00,0.0370
1081.00,0.0373
1078.00,0.0383
1075.00,0.0395
1072.00,0.0408
1069.00,0.0426
1066.00,0.0455
1063.00,0.0512
1060.00,0.0649
1057.00,0.0888
1054.00,0.1086
1051.00,0.1140
1048.00,0.1102
1045.00,0.0946
1042.00,0.0759
1039.00,0.0646
1036.00,0.0635
1033.00,0.0673
1030.00,0.0824
1027.00,0.1024
1024.00,0.0956
1021.00,0.0756
1018.00,0.0622
1015.00,0.0535
1012.00,0.0482
1009.00,0.0490
1006.00,0.0567
1003.00,0.0628
1000.00,0.0601
997.00,0.0549
994.00,0.0510
991.00,0.0459
988.00,0.0404
985.00,0.0369
982.00,0.0349
979.00,0.0341
976.00,0.0338
973.00,0.0332
970.00,0.0326
967.00,0.0324
964.00,0.0331
961.00,0.0333
958.00,0.0301
955.00,0.0277
952.00,0.0267
949.00,0.0278
946.00,0.0282
943.00,0.0291
940.00,0.0322
937.00,0.0354
934.00,0.0382
931.00,0.0381
928.00,0.0358
925.00,0.0363
922.00,0.0389
919.00,0.0361
916.00,0.0308
913.00,0.0281
910.00,0.0273
907.00,0.0281
904.00,0.0315
901.00,0.0387
898.00,0.0418
895.00,0.0377
892.00,0.0392
889.00,0.0412
886.00,0.0333
883.00,0.0307
880.00,0.0322
877.00,0.0394
874.00,0.0543
871.00,0.0701
868.00,0.0705
865.00,0.0600
862.00,0.0507
859.00,0.0459
856.00,0.0512
853.00,0.0617
850.00,0.0728
847.00,0.0732
844.00,0.0641
841.00,0.0591
838.00,0.0624
835.00,0.0720
832.00,0.0726
829.00,0.0607
826.00,0.0482
823.00,0.0547
820.00,0.0773
817.00,0.0856
814.00,0.0799
811.00,0.0515
808.00,0.0398
805.00,0.0353
802.00,0.0333
799.00,0.0325
796.00,0.0321
793.00,0.0318
790.00,0.0318
787.00,0.0320
784.00,0.0321
781.00,0.0327
778.00,0.0349
775.00,0.0402
772.00,0.0396
769.00,0.0372
766.00,0.0377
763.00,0.0402
760.00,0.0439
757.00,0.0451
754.00,0.0450
751.00,0.0462
748.00,0.0482
745.00,0.0506
742.00,0.0541
739.00,0.0613
736.00,0.0745
733.00,0.0771
730.00,0.0746
727.00,0.0719
724.00,0.0614
721.00,0.0560
718.00,0.0577
715.00,0.0619
712.00,0.0605
709.00,0.0575
706.00,0.0571
703.00,0.0594
700.00,0.0627
697.00,0.0645
694.00,0.0634
691.00,0.0655
688.00,0.0711
685.00,0.0699
682.00,0.0689
679.00,0.0712
676.00,0.0757
673.00,0.0821
670.00,0.0859
667.00,0.0873
664.00,0.0886
661.00,0.0928
658.00,0.0928
655.00,0.0924
652.00,0.0938
649.00,0.0949
646.00,0.0950
643.00,0.0932
640.00,0.0909
637.00,0.0888
634.00,0.0869
631.00,0.0854
628.00,0.0853
625.00,0.0869
622.00,0.0900
619.00,0.0918
616.00,0.0883
613.00,0.0837
610.00,0.0840
607.00,0.0912
604.00,0.1005
601.00,0.1048
598.00,0.1056
595.00,0.1060
592.00,0.1057
589.00,0.1053
586.00,0.1063
583.00,0.1094
580.00,0.1150
577.00,0.1246
574.00,0.1246
571.00,0.1177
568.00,0.1132
565.00,0.1132
562.00,0.1169
559.00,0.1192
556.00,0.1142
553.00,0.1097
550.00,0.1121
547.00,0.1182
544.00,0.1171
541.00,0.1109
538.00,0.1066
535.00,0.1078
532.00,0.1134
529.00,0.1128
526.00,0.1064
523.00,0.1008
520.00,0.0982
517.00,0.0967
514.00,0.0959
511.00,0.0959
508.00,0.0975
505.00,0.0978
502.00,0.0960
499.00,0.0944
496.00,0.0947
493.00,0.0972
490.00,0.0976
487.00,0.0962
484.00,0.0950
481.00,0.0943
478.00,0.0942
475.00,0.0945
472.00,0.0951
469.00,0.0948
466.00,0.0928
463.00,0.0922
460.00,0.0919
457.00,0.0918
454.00,0.0906
451.00,0.0893
448.00,0.0877
445.00,0.0864
442.00,0.0871
439.00,0.0861
436.00,0.0832
433.00,0.0818
430.00,0.0813
427.00,0.0796
424.00,0.0784
421.00,0.0779
418.00,0.0779
415.00,0.0791
412.00,0.0808
409.00,0.0808
406.00,0.0767
403.00,0.0737
400.00,0.0771