File: FTIR/Olivia/2025_08_01_Polystyrene_Std_scan2.csv
Created as New Dataset,Sample 1010 By YargerLab Date Friday, August 01 2025
cm-1,A
4000.00,0.0004
3997.00,0.0004
3994.00,0.0004
3991.00,0.0004
3988.00,0.0004
3985.00,0.0004
3982.00,0.0004
3979.00,0.0004
3976.00,0.0004
3973.00,0.0004
3970.00,0.0004
3967.00,0.0004
3964.00,0.0004
3961.00,0.0004
3958.00,0.0005
3955.00,0.0004
3952.00,0.0004
3949.00,0.0004
3946.00,0.0004
3943.00,0.0004
3940.00,0.0004
3937.00,0.0004
3934.00,0.0004
3931.00,0.0004
3928.00,0.0004
3925.00,0.0004
3922.00,0.0004
3919.00,0.0003
3916.00,0.0004
3913.00,0.0004
3910.00,0.0004
3907.00,0.0003
3904.00,0.0003
3901.00,0.0002
3898.00,0.0003
3895.00,0.0003
3892.00,0.0003
3889.00,0.0002
3886.00,0.0003
3883.00,0.0002
3880.00,0.0003
3877.00,0.0003
3874.00,0.0003
3871.00,0.0002
3868.00,0.0002
3865.00,0.0002
3862.00,0.0003
3859.00,0.0003
3856.00,0.0001
3853.00,0.0000
3850.00,0.0001
3847.00,0.0003
3844.00,0.0003
3841.00,0.0002
3838.00,0.0002
3835.00,0.0002
3832.00,0.0002
3829.00,0.0003
3826.00,0.0003
3823.00,0.0002
3820.00,0.0003
3817.00,0.0002
3814.00,0.0003
3811.00,0.0003
3808.00,0.0003
3805.00,0.0002
3802.00,0.0003
3799.00,0.0002
3796.00,0.0004
3793.00,0.0004
3790.00,0.0004
3787.00,0.0004
3784.00,0.0004
3781.00,0.0004
3778.00,0.0004
3775.00,0.0005
3772.00,0.0004
3769.00,0.0003
3766.00,0.0003
3763.00,0.0004
3760.00,0.0003
3757.00,0.0003
3754.00,0.0001
3751.00,0.0002
3748.00,0.0001
3745.00,0.0001
3742.00,0.0001
3739.00,0.0002
3736.00,0.0001
3733.00,0.0000
3730.00,0.0001
3727.00,0.0002
3724.00,0.0003
3721.00,0.0003
3718.00,0.0003
3715.00,0.0002
3712.00,0.0002
3709.00,0.0001
3706.00,0.0002
3703.00,0.0003
3700.00,0.0003
3697.00,0.0003
3694.00,0.0002
3691.00,0.0002
3688.00,0.0001
3685.00,0.0002
3682.00,0.0003
3679.00,0.0002
3676.00,0.0001
3673.00,0.0000
3670.00,0.0001
3667.00,0.0002
3664.00,0.0003
3661.00,0.0004
3658.00,0.0003
3655.00,0.0003
3652.00,0.0001
3649.00,0.0000
3646.00,0.0001
3643.00,0.0002
3640.00,0.0003
3637.00,0.0003
3634.00,0.0002
3631.00,0.0001
3628.00,0.0001
3625.00,0.0001
3622.00,0.0002
3619.00,0.0002
3616.00,0.0001
3613.00,0.0002
3610.00,0.0001
3607.00,0.0002
3604.00,0.0002
3601.00,0.0002
3598.00,0.0002
3595.00,0.0002
3592.00,0.0002
3589.00,0.0002
3586.00,0.0001
3583.00,0.0002
3580.00,0.0003
3577.00,0.0003
3574.00,0.0003
3571.00,0.0003
3568.00,0.0002
3565.00,0.0002
3562.00,0.0002
3559.00,0.0003
3556.00,0.0004
3553.00,0.0003
3550.00,0.0003
3547.00,0.0003
3544.00,0.0003
3541.00,0.0004
3538.00,0.0004
3535.00,0.0004
3532.00,0.0004
3529.00,0.0004
3526.00,0.0004
3523.00,0.0004
3520.00,0.0004
3517.00,0.0004
3514.00,0.0005
3511.00,0.0005
3508.00,0.0004
3505.00,0.0004
3502.00,0.0005
3499.00,0.0005
3496.00,0.0005
3493.00,0.0004
3490.00,0.0005
3487.00,0.0005
3484.00,0.0005
3481.00,0.0005
3478.00,0.0005
3475.00,0.0005
3472.00,0.0005
3469.00,0.0006
3466.00,0.0005
3463.00,0.0005
3460.00,0.0005
3457.00,0.0005
3454.00,0.0005
3451.00,0.0005
3448.00,0.0005
3445.00,0.0005
3442.00,0.0005
3439.00,0.0005
3436.00,0.0006
3433.00,0.0006
3430.00,0.0006
3427.00,0.0005
3424.00,0.0005
3421.00,0.0005
3418.00,0.0005
3415.00,0.0005
3412.00,0.0006
3409.00,0.0006
3406.00,0.0005
3403.00,0.0005
3400.00,0.0005
3397.00,0.0005
3394.00,0.0005
3391.00,0.0005
3388.00,0.0005
3385.00,0.0005
3382.00,0.0005
3379.00,0.0006
3376.00,0.0005
3373.00,0.0005
3370.00,0.0005
3367.00,0.0005
3364.00,0.0005
3361.00,0.0005
3358.00,0.0005
3355.00,0.0005
3352.00,0.0005
3349.00,0.0005
3346.00,0.0004
3343.00,0.0004
3340.00,0.0004
3337.00,0.0005
3334.00,0.0005
3331.00,0.0005
3328.00,0.0005
3325.00,0.0005
3322.00,0.0006
3319.00,0.0005
3316.00,0.0005
3313.00,0.0005
3310.00,0.0005
3307.00,0.0005
3304.00,0.0005
3301.00,0.0005
3298.00,0.0005
3295.00,0.0005
3292.00,0.0005
3289.00,0.0005
3286.00,0.0005
3283.00,0.0004
3280.00,0.0004
3277.00,0.0004
3274.00,0.0005
3271.00,0.0005
3268.00,0.0004
3265.00,0.0005
3262.00,0.0005
3259.00,0.0005
3256.00,0.0005
3253.00,0.0004
3250.00,0.0005
3247.00,0.0004
3244.00,0.0005
3241.00,0.0004
3238.00,0.0005
3235.00,0.0004
3232.00,0.0004
3229.00,0.0004
3226.00,0.0004
3223.00,0.0004
3220.00,0.0003
3217.00,0.0003
3214.00,0.0004
3211.00,0.0005
3208.00,0.0005
3205.00,0.0005
3202.00,0.0004
3199.00,0.0004
3196.00,0.0004
3193.00,0.0004
3190.00,0.0004
3187.00,0.0004
3184.00,0.0003
3181.00,0.0004
3178.00,0.0004
3175.00,0.0004
3172.00,0.0003
3169.00,0.0004
3166.00,0.0004
3163.00,0.0004
3160.00,0.0004
3157.00,0.0004
3154.00,0.0004
3151.00,0.0004
3148.00,0.0004
3145.00,0.0004
3142.00,0.0004
3139.00,0.0004
3136.00,0.0004
3133.00,0.0004
3130.00,0.0004
3127.00,0.0005
3124.00,0.0004
3121.00,0.0005
3118.00,0.0005
3115.00,0.0007
3112.00,0.0008
3109.00,0.0011
3106.00,0.0013
3103.00,0.0014
3100.00,0.0014
3097.00,0.0013
3094.00,0.0014
3091.00,0.0017
3088.00,0.0024
3085.00,0.0033
3082.00,0.0038
3079.00,0.0035
3076.00,0.0029
3073.00,0.0026
3070.00,0.0029
3067.00,0.0035
3064.00,0.0043
3061.00,0.0050
3058.00,0.0051
3055.00,0.0044
3052.00,0.0036
3049.00,0.0029
3046.00,0.0026
3043.00,0.0026
3040.00,0.0029
3037.00,0.0037
3034.00,0.0049
3031.00,0.0068
3028.00,0.0090
3025.00,0.0102
3022.00,0.0092
3019.00,0.0066
3016.00,0.0043
3013.00,0.0030
3010.00,0.0024
3007.00,0.0023
3004.00,0.0026
3001.00,0.0027
2998.00,0.0024
2995.00,0.0018
2992.00,0.0014
2989.00,0.0012
2986.00,0.0012
2983.00,0.0012
2980.00,0.0012
2977.00,0.0012
2974.00,0.0013
2971.00,0.0013
2968.00,0.0014
2965.00,0.0016
2962.00,0.0018
2959.00,0.0020
2956.00,0.0022
2953.00,0.0027
2950.00,0.0032
2947.00,0.0038
2944.00,0.0045
2941.00,0.0054
2938.00,0.0064
2935.00,0.0076
2932.00,0.0089
2929.00,0.0100
2926.00,0.0109
2923.00,0.0114
2920.00,0.0116
2917.00,0.0113
2914.00,0.0107
2911.00,0.0099
2908.00,0.0089
2905.00,0.0080
2902.00,0.0071
2899.00,0.0061
2896.00,0.0053
2893.00,0.0047
2890.00,0.0042
2887.00,0.0039
2884.00,0.0036
2881.00,0.0033
2878.00,0.0031
2875.00,0.0028
2872.00,0.0026
2869.00,0.0026
2866.00,0.0027
2863.00,0.0029
2860.00,0.0033
2857.00,0.0037
2854.00,0.0043
2851.00,0.0048
2848.00,0.0049
2845.00,0.0046
2842.00,0.0038
2839.00,0.0029
2836.00,0.0020
2833.00,0.0014
2830.00,0.0011
2827.00,0.0010
2824.00,0.0009
2821.00,0.0008
2818.00,0.0008
2815.00,0.0008
2812.00,0.0008
2809.00,0.0007
2806.00,0.0007
2803.00,0.0007
2800.00,0.0007
2797.00,0.0006
2794.00,0.0006
2791.00,0.0006
2788.00,0.0006
2785.00,0.0006
2782.00,0.0006
2779.00,0.0006
2776.00,0.0006
2773.00,0.0005
2770.00,0.0005
2767.00,0.0005
2764.00,0.0005
2761.00,0.0004
2758.00,0.0005
2755.00,0.0005
2752.00,0.0005
2749.00,0.0005
2746.00,0.0005
2743.00,0.0005
2740.00,0.0004
2737.00,0.0005
2734.00,0.0005
2731.00,0.0005
2728.00,0.0005
2725.00,0.0005
2722.00,0.0005
2719.00,0.0005
2716.00,0.0005
2713.00,0.0005
2710.00,0.0005
2707.00,0.0005
2704.00,0.0005
2701.00,0.0005
2698.00,0.0005
2695.00,0.0005
2692.00,0.0005
2689.00,0.0005
2686.00,0.0005
2683.00,0.0005
2680.00,0.0005
2677.00,0.0005
2674.00,0.0005
2671.00,0.0005
2668.00,0.0005
2665.00,0.0007
2662.00,0.0008
2659.00,0.0009
2656.00,0.0009
2653.00,0.0010
2650.00,0.0009
2647.00,0.0010
2644.00,0.0010
2641.00,0.0010
2638.00,0.0010
2635.00,0.0010
2632.00,0.0010
2629.00,0.0010
2626.00,0.0009
2623.00,0.0009
2620.00,0.0008
2617.00,0.0008
2614.00,0.0007
2611.00,0.0008
2608.00,0.0008
2605.00,0.0007
2602.00,0.0008
2599.00,0.0007
2596.00,0.0007
2593.00,0.0007
2590.00,0.0007
2587.00,0.0007
2584.00,0.0007
2581.00,0.0006
2578.00,0.0006
2575.00,0.0005
2572.00,0.0005
2569.00,0.0005
2566.00,0.0005
2563.00,0.0004
2560.00,0.0004
2557.00,0.0004
2554.00,0.0005
2551.00,0.0004
2548.00,0.0003
2545.00,0.0004
2542.00,0.0005
2539.00,0.0004
2536.00,0.0003
2533.00,0.0003
2530.00,0.0003
2527.00,0.0003
2524.00,0.0004
2521.00,0.0003
2518.00,0.0003
2515.00,0.0003
2512.00,0.0003
2509.00,0.0003
2506.00,0.0003
2503.00,0.0003
2500.00,0.0002
2497.00,0.0002
2494.00,0.0002
2491.00,0.0003
2488.00,0.0003
2485.00,0.0003
2482.00,0.0003
2479.00,0.0002
2476.00,0.0002
2473.00,0.0002
2470.00,0.0002
2467.00,0.0002
2464.00,0.0003
2461.00,0.0003
2458.00,0.0004
2455.00,0.0004
2452.00,0.0003
2449.00,0.0002
2446.00,0.0002
2443.00,0.0003
2440.00,0.0002
2437.00,0.0001
2434.00,0.0001
2431.00,0.0001
2428.00,0.0001
2425.00,0.0000
2422.00,0.0000
2419.00,0.0000
2416.00,0.0000
2413.00,0.0000
2410.00,0.0000
2407.00,-0.0001
2404.00,-0.0001
2401.00,-0.0001
2398.00,-0.0001
2395.00,-0.0001
2392.00,-0.0002
2389.00,-0.0002
2386.00,-0.0002
2383.00,-0.0002
2380.00,-0.0002
2377.00,-0.0002
2374.00,-0.0002
2371.00,-0.0002
2368.00,-0.0003
2365.00,-0.0003
2362.00,-0.0001
2359.00,-0.0000
2356.00,-0.0000
2353.00,-0.0001
2350.00,0.0000
2347.00,0.0001
2344.00,0.0002
2341.00,0.0003
2338.00,0.0003
2335.00,0.0003
2332.00,0.0003
2329.00,0.0005
2326.00,0.0014
2323.00,0.0014
2320.00,0.0010
2317.00,0.0009
2314.00,0.0007
2311.00,0.0007
2308.00,0.0006
2305.00,0.0007
2302.00,0.0007
2299.00,0.0007
2296.00,0.0009
2293.00,0.0010
2290.00,0.0011
2287.00,0.0012
2284.00,0.0010
2281.00,0.0009
2278.00,0.0009
2275.00,0.0008
2272.00,0.0007
2269.00,0.0007
2266.00,0.0004
2263.00,0.0004
2260.00,0.0005
2257.00,0.0005
2254.00,0.0002
2251.00,0.0003
2248.00,0.0003
2245.00,0.0004
2242.00,0.0004
2239.00,0.0004
2236.00,0.0004
2233.00,0.0003
2230.00,0.0003
2227.00,0.0002
2224.00,0.0003
2221.00,0.0004
2218.00,0.0004
2215.00,0.0004
2212.00,0.0004
2209.00,0.0004
2206.00,0.0003
2203.00,0.0001
2200.00,0.0003
2197.00,0.0005
2194.00,0.0004
2191.00,0.0003
2188.00,0.0003
2185.00,0.0003
2182.00,-0.0002
2179.00,-0.0002
2176.00,-0.0004
2173.00,0.0001
2170.00,0.0009
2167.00,0.0009
2164.00,0.0011
2161.00,0.0000
2158.00,-0.0028
2155.00,-0.0025
2152.00,-0.0019
2149.00,-0.0016
2146.00,-0.0015
2143.00,-0.0012
2140.00,-0.0012
2137.00,-0.0016
2134.00,-0.0019
2131.00,-0.0015
2128.00,-0.0011
2125.00,-0.0007
2122.00,-0.0007
2119.00,-0.0004
2116.00,-0.0001
2113.00,0.0000
2110.00,-0.0001
2107.00,-0.0001
2104.00,-0.0001
2101.00,-0.0001
2098.00,-0.0004
2095.00,-0.0008
2092.00,-0.0005
2089.00,-0.0002
2086.00,-0.0001
2083.00,0.0001
2080.00,0.0000
2077.00,0.0000
2074.00,0.0000
2071.00,0.0000
2068.00,0.0000
2065.00,-0.0000
2062.00,0.0000
2059.00,0.0001
2056.00,-0.0000
2053.00,0.0006
2050.00,0.0007
2047.00,0.0000
2044.00,-0.0003
2041.00,-0.0001
2038.00,0.0002
2035.00,0.0000
2032.00,-0.0004
2029.00,-0.0004
2026.00,-0.0007
2023.00,-0.0010
2020.00,-0.0007
2017.00,-0.0007
2014.00,-0.0007
2011.00,-0.0005
2008.00,-0.0012
2005.00,-0.0013
2002.00,-0.0008
1999.00,-0.0006
1996.00,-0.0005
1993.00,-0.0004
1990.00,-0.0001
1987.00,0.0003
1984.00,0.0006
1981.00,0.0011
1978.00,-0.0000
1975.00,-0.0011
1972.00,-0.0011
1969.00,-0.0009
1966.00,-0.0005
1963.00,-0.0004
1960.00,-0.0004
1957.00,-0.0003
1954.00,-0.0001
1951.00,0.0001
1948.00,0.0002
1945.00,0.0004
1942.00,0.0004
1939.00,0.0004
1936.00,0.0001
1933.00,-0.0002
1930.00,-0.0003
1927.00,-0.0004
1924.00,-0.0004
1921.00,-0.0005
1918.00,-0.0003
1915.00,-0.0004
1912.00,-0.0004
1909.00,-0.0004
1906.00,-0.0003
1903.00,-0.0003
1900.00,-0.0002
1897.00,-0.0002
1894.00,-0.0001
1891.00,0.0000
1888.00,0.0003
1885.00,0.0004
1882.00,0.0005
1879.00,0.0006
1876.00,0.0006
1873.00,0.0007
1870.00,0.0007
1867.00,0.0008
1864.00,0.0005
1861.00,0.0003
1858.00,0.0002
1855.00,0.0001
1852.00,-0.0000
1849.00,-0.0002
1846.00,-0.0002
1843.00,-0.0002
1840.00,-0.0002
1837.00,-0.0002
1834.00,-0.0002
1831.00,-0.0002
1828.00,-0.0000
1825.00,0.0001
1822.00,0.0003
1819.00,0.0003
1816.00,0.0003
1813.00,0.0006
1810.00,0.0008
1807.00,0.0010
1804.00,0.0011
1801.00,0.0011
1798.00,0.0010
1795.00,0.0009
1792.00,0.0006
1789.00,0.0004
1786.00,0.0004
1783.00,0.0003
1780.00,0.0003
1777.00,0.0003
1774.00,0.0003
1771.00,0.0003
1768.00,0.0004
1765.00,0.0004
1762.00,0.0006
1759.00,0.0007
1756.00,0.0008
1753.00,0.0010
1750.00,0.0010
1747.00,0.0011
1744.00,0.0012
1741.00,0.0012
1738.00,0.0012
1735.00,0.0012
1732.00,0.0009
1729.00,0.0009
1726.00,0.0008
1723.00,0.0008
1720.00,0.0008
1717.00,0.0008
1714.00,0.0007
1711.00,0.0007
1708.00,0.0007
1705.00,0.0006
1702.00,0.0007
1699.00,0.0007
1696.00,0.0007
1693.00,0.0007
1690.00,0.0009
1687.00,0.0009
1684.00,0.0010
1681.00,0.0011
1678.00,0.0013
1675.00,0.0013
1672.00,0.0014
1669.00,0.0014
1666.00,0.0015
1663.00,0.0015
1660.00,0.0014
1657.00,0.0013
1654.00,0.0013
1651.00,0.0012
1648.00,0.0011
1645.00,0.0009
1642.00,0.0009
1639.00,0.0008
1636.00,0.0008
1633.00,0.0008
1630.00,0.0008
1627.00,0.0009
1624.00,0.0010
1621.00,0.0010
1618.00,0.0012
1615.00,0.0013
1612.00,0.0018
1609.00,0.0030
1606.00,0.0055
1603.00,0.0090
1600.00,0.0099
1597.00,0.0071
1594.00,0.0044
1591.00,0.0031
1588.00,0.0027
1585.00,0.0035
1582.00,0.0039
1579.00,0.0026
1576.00,0.0015
1573.00,0.0010
1570.00,0.0008
1567.00,0.0007
1564.00,0.0006
1561.00,0.0006
1558.00,0.0006
1555.00,0.0007
1552.00,0.0009
1549.00,0.0011
1546.00,0.0012
1543.00,0.0013
1540.00,0.0013
1537.00,0.0011
1534.00,0.0011
1531.00,0.0009
1528.00,0.0008
1525.00,0.0007
1522.00,0.0007
1519.00,0.0007
1516.00,0.0009
1513.00,0.0010
1510.00,0.0011
1507.00,0.0014
1504.00,0.0020
1501.00,0.0033
1498.00,0.0074
1495.00,0.0188
1492.00,0.0265
1489.00,0.0162
1486.00,0.0079
1483.00,0.0047
1480.00,0.0031
1477.00,0.0025
1474.00,0.0023
1471.00,0.0022
1468.00,0.0024
1465.00,0.0028
1462.00,0.0035
1459.00,0.0053
1456.00,0.0136
1453.00,0.0241
1450.00,0.0250
1447.00,0.0187
1444.00,0.0146
1441.00,0.0112
1438.00,0.0088
1435.00,0.0058
1432.00,0.0042
1429.00,0.0031
1426.00,0.0024
1423.00,0.0021
1420.00,0.0019
1417.00,0.0017
1414.00,0.0017
1411.00,0.0016
1408.00,0.0016
1405.00,0.0016
1402.00,0.0017
1399.00,0.0017
1396.00,0.0018
1393.00,0.0021
1390.00,0.0027
1387.00,0.0032
1384.00,0.0038
1381.00,0.0043
1378.00,0.0048
1375.00,0.0053
1372.00,0.0054
1369.00,0.0054
1366.00,0.0053
1363.00,0.0051
1360.00,0.0048
1357.00,0.0046
1354.00,0.0045
1351.00,0.0045
1348.00,0.0044
1345.00,0.0042
1342.00,0.0039
1339.00,0.0037
1336.00,0.0038
1333.00,0.0042
1330.00,0.0045
1327.00,0.0046
1324.00,0.0044
1321.00,0.0042
1318.00,0.0042
1315.00,0.0043
1312.00,0.0045
1309.00,0.0044
1306.00,0.0041
1303.00,0.0039
1300.00,0.0037
1297.00,0.0036
1294.00,0.0036
1291.00,0.0035
1288.00,0.0033
1285.00,0.0032
1282.00,0.0032
1279.00,0.0031
1276.00,0.0029
1273.00,0.0026
1270.00,0.0024
1267.00,0.0022
1264.00,0.0021
1261.00,0.0021
1258.00,0.0021
1255.00,0.0021
1252.00,0.0021
1249.00,0.0022
1246.00,0.0022
1243.00,0.0022
1240.00,0.0021
1237.00,0.0021
1234.00,0.0022
1231.00,0.0022
1228.00,0.0022
1225.00,0.0023
1222.00,0.0022
1219.00,0.0022
1216.00,0.0023
1213.00,0.0024
1210.00,0.0025
1207.00,0.0028
1204.00,0.0032
1201.00,0.0035
1198.00,0.0037
1195.00,0.0039
1192.00,0.0040
1189.00,0.0041
1186.00,0.0045
1183.00,0.0053
1180.00,0.0055
1177.00,0.0044
1174.00,0.0034
1171.00,0.0030
1168.00,0.0028
1165.00,0.0029
1162.00,0.0032
1159.00,0.0040
1156.00,0.0053
1153.00,0.0054
1150.00,0.0041
1147.00,0.0030
1144.00,0.0024
1141.00,0.0020
1138.00,0.0018
1135.00,0.0018
1132.00,0.0018
1129.00,0.0018
1126.00,0.0018
1123.00,0.0020
1120.00,0.0022
1117.00,0.0025
1114.00,0.0027
1111.00,0.0028
1108.00,0.0028
1105.00,0.0028
1102.00,0.0029
1099.00,0.0030
1096.00,0.0033
1093.00,0.0035
1090.00,0.0036
1087.00,0.0038
1084.00,0.0044
1081.00,0.0051
1078.00,0.0057
1075.00,0.0066
1072.00,0.0077
1069.00,0.0082
1066.00,0.0078
1063.00,0.0068
1060.00,0.0060
1057.00,0.0053
1054.00,0.0048
1051.00,0.0043
1048.00,0.0040
1045.00,0.0038
1042.00,0.0038
1039.00,0.0043
1036.00,0.0059
1033.00,0.0095
1030.00,0.0135
1027.00,0.0144
1024.00,0.0118
1021.00,0.0090
1018.00,0.0075
1015.00,0.0064
1012.00,0.0056
1009.00,0.0053
1006.00,0.0056
1003.00,0.0060
1000.00,0.0052
997.00,0.0043
994.00,0.0041
991.00,0.0041
988.00,0.0044
985.00,0.0048
982.00,0.0053
979.00,0.0054
976.00,0.0051
973.00,0.0049
970.00,0.0053
967.00,0.0058
964.00,0.0061
961.00,0.0057
958.00,0.0048
955.00,0.0043
952.00,0.0041
949.00,0.0043
946.00,0.0046
943.00,0.0046
940.00,0.0045
937.00,0.0041
934.00,0.0036
931.00,0.0033
928.00,0.0031
925.00,0.0031
922.00,0.0035
919.00,0.0039
916.00,0.0049
913.00,0.0066
910.00,0.0088
907.00,0.0101
904.00,0.0095
901.00,0.0075
898.00,0.0052
895.00,0.0038
892.00,0.0032
889.00,0.0028
886.00,0.0026
883.00,0.0024
880.00,0.0023
877.00,0.0021
874.00,0.0021
871.00,0.0019
868.00,0.0018
865.00,0.0019
862.00,0.0020
859.00,0.0021
856.00,0.0022
853.00,0.0025
850.00,0.0031
847.00,0.0040
844.00,0.0047
841.00,0.0050
838.00,0.0045
835.00,0.0033
832.00,0.0025
829.00,0.0021
826.00,0.0019
823.00,0.0018
820.00,0.0018
817.00,0.0019
814.00,0.0021
811.00,0.0021
808.00,0.0022
805.00,0.0023
802.00,0.0024
799.00,0.0028
796.00,0.0032
793.00,0.0039
790.00,0.0048
787.00,0.0058
784.00,0.0070
781.00,0.0086
778.00,0.0110
775.00,0.0142
772.00,0.0187
769.00,0.0239
766.00,0.0290
763.00,0.0341
760.00,0.0394
757.00,0.0437
754.00,0.0449
751.00,0.0444
748.00,0.0440
745.00,0.0405
742.00,0.0322
739.00,0.0236
736.00,0.0168
733.00,0.0112
730.00,0.0073
727.00,0.0056
724.00,0.0051
721.00,0.0050
718.00,0.0054
715.00,0.0066
712.00,0.0098
709.00,0.0182
706.00,0.0350
703.00,0.0610
700.00,0.0926
697.00,0.1225
694.00,0.1318
691.00,0.1009
688.00,0.0656
685.00,0.0457
682.00,0.0348
679.00,0.0278
676.00,0.0233
673.00,0.0203
670.00,0.0187
667.00,0.0162
664.00,0.0144
661.00,0.0126
658.00,0.0109
655.00,0.0095
652.00,0.0084
649.00,0.0074
646.00,0.0067
643.00,0.0061
640.00,0.0062
637.00,0.0067
634.00,0.0073
631.00,0.0078
628.00,0.0082
625.00,0.0085
622.00,0.0091
619.00,0.0091
616.00,0.0082
613.00,0.0074
610.00,0.0069
607.00,0.0067
604.00,0.0069
601.00,0.0072
598.00,0.0074
595.00,0.0076
592.00,0.0080
589.00,0.0086
586.00,0.0093
583.00,0.0099
580.00,0.0109
577.00,0.0125
574.00,0.0145
571.00,0.0168
568.00,0.0184
565.00,0.0202
562.00,0.0222
559.00,0.0244
556.00,0.0264
553.00,0.0286
550.00,0.0317
547.00,0.0354
544.00,0.0401
541.00,0.0448
538.00,0.0474
535.00,0.0452
532.00,0.0388
529.00,0.0318
526.00,0.0257
523.00,0.0211
520.00,0.0181
517.00,0.0160
514.00,0.0146
511.00,0.0135
508.00,0.0119
505.00,0.0105
502.00,0.0097
499.00,0.0090
496.00,0.0081
493.00,0.0079
490.00,0.0075
487.00,0.0073
484.00,0.0071
481.00,0.0072
478.00,0.0070
475.00,0.0068
472.00,0.0066
469.00,0.0067
466.00,0.0062
463.00,0.0063
460.00,0.0057
457.00,0.0054
454.00,0.0053
451.00,0.0053
448.00,0.0054
445.00,0.0055
442.00,0.0055
439.00,0.0054
436.00,0.0052
433.00,0.0048
430.00,0.0054
427.00,0.0051
424.00,0.0044
421.00,0.0043
418.00,0.0049
415.00,0.0048
412.00,0.0044
409.00,0.0042
406.00,0.0049
403.00,0.0054
400.00,0.0026