File: FTIR/Olivia/2025_06_24_Polystyrene_Std_scan3.csv
Created as New Dataset,Sample 717 By YargerLab Date Tuesday, June 24 2025
cm-1,A
4000.00,0.0023
3997.00,0.0022
3994.00,0.0022
3991.00,0.0022
3988.00,0.0022
3985.00,0.0022
3982.00,0.0022
3979.00,0.0022
3976.00,0.0022
3973.00,0.0022
3970.00,0.0021
3967.00,0.0021
3964.00,0.0022
3961.00,0.0021
3958.00,0.0022
3955.00,0.0022
3952.00,0.0021
3949.00,0.0022
3946.00,0.0022
3943.00,0.0022
3940.00,0.0022
3937.00,0.0022
3934.00,0.0022
3931.00,0.0022
3928.00,0.0021
3925.00,0.0022
3922.00,0.0022
3919.00,0.0021
3916.00,0.0021
3913.00,0.0022
3910.00,0.0021
3907.00,0.0021
3904.00,0.0022
3901.00,0.0022
3898.00,0.0022
3895.00,0.0021
3892.00,0.0021
3889.00,0.0021
3886.00,0.0021
3883.00,0.0021
3880.00,0.0021
3877.00,0.0022
3874.00,0.0021
3871.00,0.0022
3868.00,0.0021
3865.00,0.0021
3862.00,0.0021
3859.00,0.0022
3856.00,0.0022
3853.00,0.0022
3850.00,0.0022
3847.00,0.0021
3844.00,0.0021
3841.00,0.0022
3838.00,0.0022
3835.00,0.0022
3832.00,0.0022
3829.00,0.0022
3826.00,0.0021
3823.00,0.0022
3820.00,0.0022
3817.00,0.0022
3814.00,0.0022
3811.00,0.0022
3808.00,0.0022
3805.00,0.0022
3802.00,0.0023
3799.00,0.0023
3796.00,0.0022
3793.00,0.0022
3790.00,0.0021
3787.00,0.0021
3784.00,0.0022
3781.00,0.0022
3778.00,0.0021
3775.00,0.0022
3772.00,0.0022
3769.00,0.0022
3766.00,0.0022
3763.00,0.0022
3760.00,0.0022
3757.00,0.0022
3754.00,0.0023
3751.00,0.0024
3748.00,0.0024
3745.00,0.0024
3742.00,0.0023
3739.00,0.0022
3736.00,0.0022
3733.00,0.0022
3730.00,0.0022
3727.00,0.0021
3724.00,0.0022
3721.00,0.0022
3718.00,0.0021
3715.00,0.0021
3712.00,0.0022
3709.00,0.0021
3706.00,0.0021
3703.00,0.0021
3700.00,0.0021
3697.00,0.0021
3694.00,0.0020
3691.00,0.0020
3688.00,0.0019
3685.00,0.0018
3682.00,0.0017
3679.00,0.0016
3676.00,0.0014
3673.00,0.0014
3670.00,0.0013
3667.00,0.0012
3664.00,0.0011
3661.00,0.0011
3658.00,0.0011
3655.00,0.0012
3652.00,0.0013
3649.00,0.0013
3646.00,0.0013
3643.00,0.0014
3640.00,0.0014
3637.00,0.0013
3634.00,0.0016
3631.00,0.0018
3628.00,0.0018
3625.00,0.0019
3622.00,0.0019
3619.00,0.0019
3616.00,0.0019
3613.00,0.0019
3610.00,0.0020
3607.00,0.0020
3604.00,0.0020
3601.00,0.0019
3598.00,0.0018
3595.00,0.0018
3592.00,0.0019
3589.00,0.0019
3586.00,0.0019
3583.00,0.0019
3580.00,0.0019
3577.00,0.0019
3574.00,0.0019
3571.00,0.0019
3568.00,0.0019
3565.00,0.0018
3562.00,0.0019
3559.00,0.0019
3556.00,0.0019
3553.00,0.0019
3550.00,0.0020
3547.00,0.0020
3544.00,0.0020
3541.00,0.0020
3538.00,0.0019
3535.00,0.0020
3532.00,0.0021
3529.00,0.0020
3526.00,0.0020
3523.00,0.0021
3520.00,0.0020
3517.00,0.0020
3514.00,0.0020
3511.00,0.0020
3508.00,0.0020
3505.00,0.0020
3502.00,0.0020
3499.00,0.0020
3496.00,0.0021
3493.00,0.0021
3490.00,0.0021
3487.00,0.0021
3484.00,0.0021
3481.00,0.0021
3478.00,0.0021
3475.00,0.0021
3472.00,0.0021
3469.00,0.0021
3466.00,0.0021
3463.00,0.0021
3460.00,0.0020
3457.00,0.0020
3454.00,0.0020
3451.00,0.0020
3448.00,0.0020
3445.00,0.0021
3442.00,0.0020
3439.00,0.0021
3436.00,0.0021
3433.00,0.0021
3430.00,0.0021
3427.00,0.0020
3424.00,0.0020
3421.00,0.0020
3418.00,0.0020
3415.00,0.0020
3412.00,0.0020
3409.00,0.0020
3406.00,0.0020
3403.00,0.0020
3400.00,0.0020
3397.00,0.0020
3394.00,0.0020
3391.00,0.0021
3388.00,0.0021
3385.00,0.0020
3382.00,0.0020
3379.00,0.0020
3376.00,0.0020
3373.00,0.0020
3370.00,0.0020
3367.00,0.0020
3364.00,0.0020
3361.00,0.0020
3358.00,0.0019
3355.00,0.0019
3352.00,0.0020
3349.00,0.0020
3346.00,0.0019
3343.00,0.0019
3340.00,0.0020
3337.00,0.0019
3334.00,0.0020
3331.00,0.0020
3328.00,0.0020
3325.00,0.0019
3322.00,0.0020
3319.00,0.0020
3316.00,0.0020
3313.00,0.0020
3310.00,0.0020
3307.00,0.0020
3304.00,0.0020
3301.00,0.0020
3298.00,0.0020
3295.00,0.0020
3292.00,0.0020
3289.00,0.0019
3286.00,0.0019
3283.00,0.0020
3280.00,0.0019
3277.00,0.0020
3274.00,0.0020
3271.00,0.0020
3268.00,0.0020
3265.00,0.0019
3262.00,0.0019
3259.00,0.0019
3256.00,0.0019
3253.00,0.0019
3250.00,0.0019
3247.00,0.0019
3244.00,0.0018
3241.00,0.0018
3238.00,0.0018
3235.00,0.0018
3232.00,0.0018
3229.00,0.0018
3226.00,0.0018
3223.00,0.0018
3220.00,0.0018
3217.00,0.0018
3214.00,0.0018
3211.00,0.0019
3208.00,0.0019
3205.00,0.0019
3202.00,0.0020
3199.00,0.0019
3196.00,0.0018
3193.00,0.0018
3190.00,0.0018
3187.00,0.0018
3184.00,0.0018
3181.00,0.0018
3178.00,0.0018
3175.00,0.0018
3172.00,0.0019
3169.00,0.0019
3166.00,0.0020
3163.00,0.0020
3160.00,0.0020
3157.00,0.0019
3154.00,0.0019
3151.00,0.0019
3148.00,0.0019
3145.00,0.0019
3142.00,0.0019
3139.00,0.0019
3136.00,0.0019
3133.00,0.0018
3130.00,0.0019
3127.00,0.0020
3124.00,0.0020
3121.00,0.0021
3118.00,0.0023
3115.00,0.0025
3112.00,0.0029
3109.00,0.0035
3106.00,0.0042
3103.00,0.0045
3100.00,0.0044
3097.00,0.0042
3094.00,0.0045
3091.00,0.0054
3088.00,0.0073
3085.00,0.0094
3082.00,0.0103
3079.00,0.0094
3076.00,0.0081
3073.00,0.0077
3070.00,0.0083
3067.00,0.0099
3064.00,0.0121
3061.00,0.0140
3058.00,0.0138
3055.00,0.0118
3052.00,0.0096
3049.00,0.0081
3046.00,0.0074
3043.00,0.0076
3040.00,0.0087
3037.00,0.0106
3034.00,0.0140
3031.00,0.0192
3028.00,0.0247
3025.00,0.0270
3022.00,0.0233
3019.00,0.0165
3016.00,0.0109
3013.00,0.0075
3010.00,0.0058
3007.00,0.0050
3004.00,0.0048
3001.00,0.0042
2998.00,0.0025
2995.00,0.0006
2992.00,-0.0008
2989.00,-0.0016
2986.00,-0.0026
2983.00,-0.0050
2980.00,-0.0056
2977.00,-0.0041
2974.00,-0.0035
2971.00,-0.0035
2968.00,-0.0022
2965.00,-0.0010
2962.00,0.0002
2959.00,0.0013
2956.00,0.0026
2953.00,0.0040
2950.00,0.0057
2947.00,0.0078
2944.00,0.0102
2941.00,0.0127
2938.00,0.0157
2935.00,0.0190
2932.00,0.0224
2929.00,0.0257
2926.00,0.0283
2923.00,0.0297
2920.00,0.0298
2917.00,0.0288
2914.00,0.0270
2911.00,0.0246
2908.00,0.0221
2905.00,0.0196
2902.00,0.0170
2899.00,0.0145
2896.00,0.0124
2893.00,0.0107
2890.00,0.0093
2887.00,0.0084
2884.00,0.0076
2881.00,0.0073
2878.00,0.0070
2875.00,0.0066
2872.00,0.0064
2869.00,0.0064
2866.00,0.0068
2863.00,0.0077
2860.00,0.0090
2857.00,0.0107
2854.00,0.0123
2851.00,0.0135
2848.00,0.0137
2845.00,0.0127
2842.00,0.0107
2839.00,0.0083
2836.00,0.0062
2833.00,0.0049
2830.00,0.0042
2827.00,0.0038
2824.00,0.0035
2821.00,0.0034
2818.00,0.0033
2815.00,0.0032
2812.00,0.0032
2809.00,0.0032
2806.00,0.0031
2803.00,0.0031
2800.00,0.0030
2797.00,0.0029
2794.00,0.0028
2791.00,0.0028
2788.00,0.0028
2785.00,0.0028
2782.00,0.0028
2779.00,0.0027
2776.00,0.0027
2773.00,0.0027
2770.00,0.0026
2767.00,0.0026
2764.00,0.0026
2761.00,0.0025
2758.00,0.0025
2755.00,0.0025
2752.00,0.0025
2749.00,0.0025
2746.00,0.0024
2743.00,0.0025
2740.00,0.0025
2737.00,0.0025
2734.00,0.0025
2731.00,0.0025
2728.00,0.0026
2725.00,0.0026
2722.00,0.0026
2719.00,0.0025
2716.00,0.0026
2713.00,0.0026
2710.00,0.0025
2707.00,0.0026
2704.00,0.0025
2701.00,0.0025
2698.00,0.0026
2695.00,0.0025
2692.00,0.0025
2689.00,0.0025
2686.00,0.0025
2683.00,0.0025
2680.00,0.0025
2677.00,0.0025
2674.00,0.0025
2671.00,0.0025
2668.00,0.0025
2665.00,0.0026
2662.00,0.0027
2659.00,0.0028
2656.00,0.0029
2653.00,0.0029
2650.00,0.0029
2647.00,0.0030
2644.00,0.0029
2641.00,0.0030
2638.00,0.0030
2635.00,0.0030
2632.00,0.0031
2629.00,0.0030
2626.00,0.0029
2623.00,0.0029
2620.00,0.0028
2617.00,0.0027
2614.00,0.0027
2611.00,0.0027
2608.00,0.0028
2605.00,0.0028
2602.00,0.0028
2599.00,0.0027
2596.00,0.0027
2593.00,0.0027
2590.00,0.0026
2587.00,0.0026
2584.00,0.0026
2581.00,0.0026
2578.00,0.0025
2575.00,0.0025
2572.00,0.0024
2569.00,0.0024
2566.00,0.0024
2563.00,0.0023
2560.00,0.0023
2557.00,0.0023
2554.00,0.0022
2551.00,0.0023
2548.00,0.0023
2545.00,0.0023
2542.00,0.0022
2539.00,0.0022
2536.00,0.0022
2533.00,0.0022
2530.00,0.0022
2527.00,0.0021
2524.00,0.0021
2521.00,0.0022
2518.00,0.0022
2515.00,0.0022
2512.00,0.0022
2509.00,0.0022
2506.00,0.0022
2503.00,0.0022
2500.00,0.0022
2497.00,0.0021
2494.00,0.0021
2491.00,0.0022
2488.00,0.0021
2485.00,0.0021
2482.00,0.0020
2479.00,0.0020
2476.00,0.0020
2473.00,0.0020
2470.00,0.0020
2467.00,0.0021
2464.00,0.0021
2461.00,0.0020
2458.00,0.0021
2455.00,0.0021
2452.00,0.0020
2449.00,0.0020
2446.00,0.0020
2443.00,0.0020
2440.00,0.0020
2437.00,0.0020
2434.00,0.0019
2431.00,0.0018
2428.00,0.0018
2425.00,0.0017
2422.00,0.0017
2419.00,0.0017
2416.00,0.0018
2413.00,0.0018
2410.00,0.0017
2407.00,0.0016
2404.00,0.0016
2401.00,0.0016
2398.00,0.0016
2395.00,0.0016
2392.00,0.0016
2389.00,0.0016
2386.00,0.0016
2383.00,0.0016
2380.00,0.0017
2377.00,0.0016
2374.00,0.0017
2371.00,0.0017
2368.00,0.0016
2365.00,0.0017
2362.00,0.0019
2359.00,0.0019
2356.00,0.0019
2353.00,0.0018
2350.00,0.0019
2347.00,0.0024
2344.00,0.0025
2341.00,0.0024
2338.00,0.0025
2335.00,0.0024
2332.00,0.0023
2329.00,0.0024
2326.00,0.0033
2323.00,0.0032
2320.00,0.0028
2317.00,0.0026
2314.00,0.0027
2311.00,0.0027
2308.00,0.0026
2305.00,0.0025
2302.00,0.0024
2299.00,0.0025
2296.00,0.0026
2293.00,0.0028
2290.00,0.0029
2287.00,0.0030
2284.00,0.0028
2281.00,0.0027
2278.00,0.0026
2275.00,0.0025
2272.00,0.0025
2269.00,0.0023
2266.00,0.0022
2263.00,0.0023
2260.00,0.0025
2257.00,0.0023
2254.00,0.0021
2251.00,0.0021
2248.00,0.0020
2245.00,0.0021
2242.00,0.0022
2239.00,0.0020
2236.00,0.0020
2233.00,0.0020
2230.00,0.0019
2227.00,0.0020
2224.00,0.0021
2221.00,0.0020
2218.00,0.0019
2215.00,0.0019
2212.00,0.0018
2209.00,0.0019
2206.00,0.0019
2203.00,0.0019
2200.00,0.0018
2197.00,0.0020
2194.00,0.0019
2191.00,0.0019
2188.00,0.0020
2185.00,0.0017
2182.00,0.0012
2179.00,0.0015
2176.00,0.0013
2173.00,0.0015
2170.00,0.0020
2167.00,0.0025
2164.00,0.0030
2161.00,0.0016
2158.00,-0.0014
2155.00,-0.0009
2152.00,-0.0003
2149.00,-0.0002
2146.00,-0.0003
2143.00,-0.0003
2140.00,-0.0001
2137.00,-0.0002
2134.00,-0.0006
2131.00,-0.0002
2128.00,0.0002
2125.00,0.0005
2122.00,0.0008
2119.00,0.0011
2116.00,0.0014
2113.00,0.0015
2110.00,0.0016
2107.00,0.0014
2104.00,0.0014
2101.00,0.0013
2098.00,0.0013
2095.00,0.0011
2092.00,0.0013
2089.00,0.0015
2086.00,0.0015
2083.00,0.0015
2080.00,0.0015
2077.00,0.0015
2074.00,0.0015
2071.00,0.0015
2068.00,0.0011
2065.00,0.0012
2062.00,0.0013
2059.00,0.0013
2056.00,0.0012
2053.00,0.0020
2050.00,0.0023
2047.00,0.0015
2044.00,0.0013
2041.00,0.0013
2038.00,0.0013
2035.00,0.0010
2032.00,0.0007
2029.00,0.0010
2026.00,0.0009
2023.00,0.0007
2020.00,0.0008
2017.00,0.0008
2014.00,0.0008
2011.00,0.0009
2008.00,0.0005
2005.00,0.0001
2002.00,0.0003
1999.00,0.0009
1996.00,0.0012
1993.00,0.0012
1990.00,0.0013
1987.00,0.0018
1984.00,0.0024
1981.00,0.0029
1978.00,0.0016
1975.00,0.0009
1972.00,0.0012
1969.00,0.0016
1966.00,0.0017
1963.00,0.0018
1960.00,0.0015
1957.00,0.0022
1954.00,0.0030
1951.00,0.0035
1948.00,0.0040
1945.00,0.0041
1942.00,0.0042
1939.00,0.0040
1936.00,0.0036
1933.00,0.0030
1930.00,0.0023
1927.00,0.0018
1924.00,0.0016
1921.00,0.0017
1918.00,0.0015
1915.00,0.0015
1912.00,0.0015
1909.00,0.0015
1906.00,0.0015
1903.00,0.0016
1900.00,0.0019
1897.00,0.0021
1894.00,0.0024
1891.00,0.0027
1888.00,0.0031
1885.00,0.0034
1882.00,0.0035
1879.00,0.0037
1876.00,0.0039
1873.00,0.0041
1870.00,0.0041
1867.00,0.0041
1864.00,0.0038
1861.00,0.0032
1858.00,0.0028
1855.00,0.0023
1852.00,0.0020
1849.00,0.0019
1846.00,0.0018
1843.00,0.0017
1840.00,0.0017
1837.00,0.0017
1834.00,0.0018
1831.00,0.0020
1828.00,0.0022
1825.00,0.0025
1822.00,0.0028
1819.00,0.0029
1816.00,0.0031
1813.00,0.0036
1810.00,0.0041
1807.00,0.0045
1804.00,0.0047
1801.00,0.0048
1798.00,0.0045
1795.00,0.0040
1792.00,0.0035
1789.00,0.0030
1786.00,0.0027
1783.00,0.0025
1780.00,0.0025
1777.00,0.0025
1774.00,0.0026
1771.00,0.0025
1768.00,0.0026
1765.00,0.0027
1762.00,0.0029
1759.00,0.0032
1756.00,0.0037
1753.00,0.0041
1750.00,0.0045
1747.00,0.0048
1744.00,0.0049
1741.00,0.0049
1738.00,0.0048
1735.00,0.0046
1732.00,0.0044
1729.00,0.0041
1726.00,0.0038
1723.00,0.0035
1720.00,0.0034
1717.00,0.0033
1714.00,0.0031
1711.00,0.0030
1708.00,0.0029
1705.00,0.0030
1702.00,0.0031
1699.00,0.0029
1696.00,0.0029
1693.00,0.0029
1690.00,0.0030
1687.00,0.0031
1684.00,0.0032
1681.00,0.0033
1678.00,0.0034
1675.00,0.0034
1672.00,0.0034
1669.00,0.0034
1666.00,0.0033
1663.00,0.0032
1660.00,0.0030
1657.00,0.0029
1654.00,0.0028
1651.00,0.0026
1648.00,0.0025
1645.00,0.0025
1642.00,0.0025
1639.00,0.0025
1636.00,0.0025
1633.00,0.0025
1630.00,0.0026
1627.00,0.0028
1624.00,0.0030
1621.00,0.0033
1618.00,0.0036
1615.00,0.0043
1612.00,0.0055
1609.00,0.0087
1606.00,0.0157
1603.00,0.0246
1600.00,0.0263
1597.00,0.0187
1594.00,0.0121
1591.00,0.0089
1588.00,0.0082
1585.00,0.0106
1582.00,0.0111
1579.00,0.0077
1576.00,0.0053
1573.00,0.0043
1570.00,0.0037
1567.00,0.0034
1564.00,0.0033
1561.00,0.0034
1558.00,0.0034
1555.00,0.0036
1552.00,0.0040
1549.00,0.0044
1546.00,0.0048
1543.00,0.0051
1540.00,0.0050
1537.00,0.0047
1534.00,0.0044
1531.00,0.0039
1528.00,0.0037
1525.00,0.0035
1522.00,0.0034
1519.00,0.0034
1516.00,0.0035
1513.00,0.0038
1510.00,0.0042
1507.00,0.0049
1504.00,0.0062
1501.00,0.0094
1498.00,0.0206
1495.00,0.0518
1492.00,0.0669
1489.00,0.0404
1486.00,0.0209
1483.00,0.0126
1480.00,0.0087
1477.00,0.0070
1474.00,0.0060
1471.00,0.0059
1468.00,0.0064
1465.00,0.0069
1462.00,0.0084
1459.00,0.0136
1456.00,0.0374
1453.00,0.0647
1450.00,0.0637
1447.00,0.0480
1444.00,0.0371
1441.00,0.0284
1438.00,0.0220
1435.00,0.0156
1432.00,0.0115
1429.00,0.0086
1426.00,0.0070
1423.00,0.0061
1420.00,0.0057
1417.00,0.0053
1414.00,0.0049
1411.00,0.0045
1408.00,0.0042
1405.00,0.0039
1402.00,0.0035
1399.00,0.0031
1396.00,0.0029
1393.00,0.0034
1390.00,0.0044
1387.00,0.0057
1384.00,0.0070
1381.00,0.0082
1378.00,0.0098
1375.00,0.0113
1372.00,0.0121
1369.00,0.0124
1366.00,0.0124
1363.00,0.0123
1360.00,0.0119
1357.00,0.0114
1354.00,0.0112
1351.00,0.0113
1348.00,0.0112
1345.00,0.0108
1342.00,0.0102
1339.00,0.0098
1336.00,0.0100
1333.00,0.0109
1330.00,0.0118
1327.00,0.0119
1324.00,0.0114
1321.00,0.0111
1318.00,0.0112
1315.00,0.0116
1312.00,0.0119
1309.00,0.0116
1306.00,0.0110
1303.00,0.0104
1300.00,0.0097
1297.00,0.0093
1294.00,0.0090
1291.00,0.0087
1288.00,0.0084
1285.00,0.0082
1282.00,0.0080
1279.00,0.0077
1276.00,0.0070
1273.00,0.0063
1270.00,0.0056
1267.00,0.0051
1264.00,0.0049
1261.00,0.0047
1258.00,0.0045
1255.00,0.0044
1252.00,0.0043
1249.00,0.0045
1246.00,0.0048
1243.00,0.0049
1240.00,0.0049
1237.00,0.0050
1234.00,0.0051
1231.00,0.0052
1228.00,0.0056
1225.00,0.0058
1222.00,0.0059
1219.00,0.0060
1216.00,0.0062
1213.00,0.0065
1210.00,0.0069
1207.00,0.0075
1204.00,0.0082
1201.00,0.0089
1198.00,0.0095
1195.00,0.0097
1192.00,0.0098
1189.00,0.0099
1186.00,0.0109
1183.00,0.0125
1180.00,0.0124
1177.00,0.0096
1174.00,0.0070
1171.00,0.0059
1168.00,0.0053
1165.00,0.0052
1162.00,0.0057
1159.00,0.0077
1156.00,0.0105
1153.00,0.0104
1150.00,0.0071
1147.00,0.0047
1144.00,0.0037
1141.00,0.0032
1138.00,0.0028
1135.00,0.0028
1132.00,0.0029
1129.00,0.0031
1126.00,0.0034
1123.00,0.0038
1120.00,0.0045
1117.00,0.0055
1114.00,0.0063
1111.00,0.0066
1108.00,0.0066
1105.00,0.0064
1102.00,0.0065
1099.00,0.0066
1096.00,0.0069
1093.00,0.0071
1090.00,0.0074
1087.00,0.0079
1084.00,0.0089
1081.00,0.0103
1078.00,0.0117
1075.00,0.0137
1072.00,0.0163
1069.00,0.0178
1066.00,0.0170
1063.00,0.0148
1060.00,0.0128
1057.00,0.0113
1054.00,0.0106
1051.00,0.0100
1048.00,0.0096
1045.00,0.0094
1042.00,0.0096
1039.00,0.0107
1036.00,0.0148
1033.00,0.0238
1030.00,0.0329
1027.00,0.0348
1024.00,0.0283
1021.00,0.0220
1018.00,0.0183
1015.00,0.0159
1012.00,0.0143
1009.00,0.0136
1006.00,0.0141
1003.00,0.0147
1000.00,0.0127
997.00,0.0107
994.00,0.0102
991.00,0.0102
988.00,0.0108
985.00,0.0117
982.00,0.0125
979.00,0.0125
976.00,0.0114
973.00,0.0102
970.00,0.0103
967.00,0.0114
964.00,0.0121
961.00,0.0110
958.00,0.0087
955.00,0.0074
952.00,0.0072
949.00,0.0077
946.00,0.0084
943.00,0.0089
940.00,0.0088
937.00,0.0081
934.00,0.0073
931.00,0.0070
928.00,0.0070
925.00,0.0075
922.00,0.0083
919.00,0.0096
916.00,0.0120
913.00,0.0159
910.00,0.0209
907.00,0.0239
904.00,0.0225
901.00,0.0178
898.00,0.0127
895.00,0.0097
892.00,0.0083
889.00,0.0075
886.00,0.0069
883.00,0.0064
880.00,0.0062
877.00,0.0060
874.00,0.0058
871.00,0.0056
868.00,0.0055
865.00,0.0055
862.00,0.0055
859.00,0.0056
856.00,0.0058
853.00,0.0065
850.00,0.0079
847.00,0.0098
844.00,0.0117
841.00,0.0123
838.00,0.0109
835.00,0.0083
832.00,0.0063
829.00,0.0054
826.00,0.0050
823.00,0.0050
820.00,0.0050
817.00,0.0050
814.00,0.0050
811.00,0.0054
808.00,0.0056
805.00,0.0059
802.00,0.0062
799.00,0.0068
796.00,0.0080
793.00,0.0095
790.00,0.0115
787.00,0.0138
784.00,0.0165
781.00,0.0201
778.00,0.0256
775.00,0.0334
772.00,0.0437
769.00,0.0562
766.00,0.0688
763.00,0.0813
760.00,0.0944
757.00,0.1047
754.00,0.1074
751.00,0.1060
748.00,0.1046
745.00,0.0953
742.00,0.0751
739.00,0.0549
736.00,0.0392
733.00,0.0260
730.00,0.0174
727.00,0.0137
724.00,0.0123
721.00,0.0119
718.00,0.0127
715.00,0.0154
712.00,0.0228
709.00,0.0420
706.00,0.0813
703.00,0.1441
700.00,0.2269
697.00,0.3144
694.00,0.3341
691.00,0.2361
688.00,0.1458
685.00,0.0998
682.00,0.0757
679.00,0.0609
676.00,0.0518
673.00,0.0457
670.00,0.0413
667.00,0.0358
664.00,0.0322
661.00,0.0282
658.00,0.0247
655.00,0.0217
652.00,0.0194
649.00,0.0175
646.00,0.0161
643.00,0.0153
640.00,0.0154
637.00,0.0164
634.00,0.0177
631.00,0.0188
628.00,0.0198
625.00,0.0206
622.00,0.0219
619.00,0.0215
616.00,0.0195
613.00,0.0182
610.00,0.0169
607.00,0.0166
604.00,0.0165
601.00,0.0169
598.00,0.0177
595.00,0.0182
592.00,0.0191
589.00,0.0200
586.00,0.0210
583.00,0.0225
580.00,0.0250
577.00,0.0287
574.00,0.0327
571.00,0.0370
568.00,0.0413
565.00,0.0455
562.00,0.0494
559.00,0.0534
556.00,0.0579
553.00,0.0631
550.00,0.0693
547.00,0.0774
544.00,0.0878
541.00,0.0982
538.00,0.1031
535.00,0.0972
532.00,0.0827
529.00,0.0671
526.00,0.0538
523.00,0.0438
520.00,0.0378
517.00,0.0338
514.00,0.0307
511.00,0.0281
508.00,0.0253
505.00,0.0223
502.00,0.0203
499.00,0.0187
496.00,0.0175
493.00,0.0169
490.00,0.0158
487.00,0.0148
484.00,0.0141
481.00,0.0139
478.00,0.0136
475.00,0.0132
472.00,0.0130
469.00,0.0128
466.00,0.0121
463.00,0.0112
460.00,0.0111
457.00,0.0119
454.00,0.0111
451.00,0.0115
448.00,0.0115
445.00,0.0111
442.00,0.0101
439.00,0.0097
436.00,0.0100
433.00,0.0091
430.00,0.0088
427.00,0.0089
424.00,0.0105
421.00,0.0093
418.00,0.0080
415.00,0.0079
412.00,0.0084
409.00,0.0109
406.00,0.0115
403.00,0.0107
400.00,0.0091