File: FTIR/Olivia/2025_07_26_Polystyrene_Std_scan1.csv
Created as New Dataset,Sample 917 By YargerLab Date Thursday, July 24 2025
cm-1,A
4000.00,0.0006
3997.00,0.0006
3994.00,0.0006
3991.00,0.0006
3988.00,0.0006
3985.00,0.0006
3982.00,0.0006
3979.00,0.0006
3976.00,0.0006
3973.00,0.0006
3970.00,0.0006
3967.00,0.0005
3964.00,0.0006
3961.00,0.0006
3958.00,0.0006
3955.00,0.0005
3952.00,0.0005
3949.00,0.0005
3946.00,0.0005
3943.00,0.0005
3940.00,0.0005
3937.00,0.0005
3934.00,0.0006
3931.00,0.0005
3928.00,0.0005
3925.00,0.0005
3922.00,0.0005
3919.00,0.0005
3916.00,0.0005
3913.00,0.0006
3910.00,0.0005
3907.00,0.0005
3904.00,0.0004
3901.00,0.0005
3898.00,0.0005
3895.00,0.0005
3892.00,0.0005
3889.00,0.0005
3886.00,0.0004
3883.00,0.0004
3880.00,0.0004
3877.00,0.0005
3874.00,0.0005
3871.00,0.0005
3868.00,0.0004
3865.00,0.0004
3862.00,0.0004
3859.00,0.0005
3856.00,0.0005
3853.00,0.0004
3850.00,0.0004
3847.00,0.0005
3844.00,0.0005
3841.00,0.0005
3838.00,0.0004
3835.00,0.0005
3832.00,0.0005
3829.00,0.0005
3826.00,0.0005
3823.00,0.0005
3820.00,0.0006
3817.00,0.0006
3814.00,0.0006
3811.00,0.0006
3808.00,0.0006
3805.00,0.0005
3802.00,0.0005
3799.00,0.0006
3796.00,0.0006
3793.00,0.0006
3790.00,0.0006
3787.00,0.0006
3784.00,0.0006
3781.00,0.0007
3778.00,0.0007
3775.00,0.0007
3772.00,0.0006
3769.00,0.0007
3766.00,0.0007
3763.00,0.0006
3760.00,0.0005
3757.00,0.0005
3754.00,0.0005
3751.00,0.0005
3748.00,0.0005
3745.00,0.0005
3742.00,0.0004
3739.00,0.0004
3736.00,0.0004
3733.00,0.0005
3730.00,0.0005
3727.00,0.0005
3724.00,0.0004
3721.00,0.0005
3718.00,0.0005
3715.00,0.0004
3712.00,0.0004
3709.00,0.0005
3706.00,0.0005
3703.00,0.0005
3700.00,0.0005
3697.00,0.0005
3694.00,0.0005
3691.00,0.0004
3688.00,0.0004
3685.00,0.0005
3682.00,0.0005
3679.00,0.0005
3676.00,0.0004
3673.00,0.0004
3670.00,0.0004
3667.00,0.0004
3664.00,0.0004
3661.00,0.0005
3658.00,0.0005
3655.00,0.0005
3652.00,0.0005
3649.00,0.0005
3646.00,0.0005
3643.00,0.0005
3640.00,0.0005
3637.00,0.0005
3634.00,0.0004
3631.00,0.0004
3628.00,0.0004
3625.00,0.0004
3622.00,0.0005
3619.00,0.0005
3616.00,0.0005
3613.00,0.0005
3610.00,0.0005
3607.00,0.0005
3604.00,0.0005
3601.00,0.0006
3598.00,0.0005
3595.00,0.0006
3592.00,0.0006
3589.00,0.0005
3586.00,0.0005
3583.00,0.0006
3580.00,0.0006
3577.00,0.0006
3574.00,0.0007
3571.00,0.0007
3568.00,0.0005
3565.00,0.0005
3562.00,0.0006
3559.00,0.0007
3556.00,0.0007
3553.00,0.0007
3550.00,0.0007
3547.00,0.0007
3544.00,0.0007
3541.00,0.0008
3538.00,0.0008
3535.00,0.0008
3532.00,0.0008
3529.00,0.0007
3526.00,0.0007
3523.00,0.0009
3520.00,0.0009
3517.00,0.0009
3514.00,0.0009
3511.00,0.0009
3508.00,0.0009
3505.00,0.0009
3502.00,0.0009
3499.00,0.0009
3496.00,0.0009
3493.00,0.0010
3490.00,0.0010
3487.00,0.0011
3484.00,0.0011
3481.00,0.0010
3478.00,0.0010
3475.00,0.0011
3472.00,0.0011
3469.00,0.0011
3466.00,0.0011
3463.00,0.0011
3460.00,0.0011
3457.00,0.0011
3454.00,0.0011
3451.00,0.0012
3448.00,0.0011
3445.00,0.0011
3442.00,0.0011
3439.00,0.0011
3436.00,0.0012
3433.00,0.0012
3430.00,0.0012
3427.00,0.0012
3424.00,0.0011
3421.00,0.0011
3418.00,0.0011
3415.00,0.0012
3412.00,0.0011
3409.00,0.0011
3406.00,0.0012
3403.00,0.0011
3400.00,0.0011
3397.00,0.0011
3394.00,0.0012
3391.00,0.0012
3388.00,0.0011
3385.00,0.0012
3382.00,0.0012
3379.00,0.0012
3376.00,0.0012
3373.00,0.0012
3370.00,0.0012
3367.00,0.0012
3364.00,0.0012
3361.00,0.0011
3358.00,0.0012
3355.00,0.0012
3352.00,0.0012
3349.00,0.0012
3346.00,0.0012
3343.00,0.0011
3340.00,0.0012
3337.00,0.0012
3334.00,0.0012
3331.00,0.0012
3328.00,0.0012
3325.00,0.0012
3322.00,0.0012
3319.00,0.0012
3316.00,0.0012
3313.00,0.0012
3310.00,0.0012
3307.00,0.0012
3304.00,0.0012
3301.00,0.0012
3298.00,0.0012
3295.00,0.0012
3292.00,0.0012
3289.00,0.0011
3286.00,0.0011
3283.00,0.0012
3280.00,0.0011
3277.00,0.0011
3274.00,0.0011
3271.00,0.0011
3268.00,0.0011
3265.00,0.0011
3262.00,0.0011
3259.00,0.0011
3256.00,0.0011
3253.00,0.0010
3250.00,0.0011
3247.00,0.0011
3244.00,0.0010
3241.00,0.0010
3238.00,0.0010
3235.00,0.0011
3232.00,0.0010
3229.00,0.0010
3226.00,0.0010
3223.00,0.0010
3220.00,0.0010
3217.00,0.0010
3214.00,0.0010
3211.00,0.0011
3208.00,0.0011
3205.00,0.0011
3202.00,0.0011
3199.00,0.0011
3196.00,0.0010
3193.00,0.0011
3190.00,0.0010
3187.00,0.0010
3184.00,0.0010
3181.00,0.0010
3178.00,0.0010
3175.00,0.0009
3172.00,0.0009
3169.00,0.0010
3166.00,0.0011
3163.00,0.0012
3160.00,0.0011
3157.00,0.0011
3154.00,0.0010
3151.00,0.0010
3148.00,0.0010
3145.00,0.0009
3142.00,0.0009
3139.00,0.0009
3136.00,0.0009
3133.00,0.0009
3130.00,0.0009
3127.00,0.0010
3124.00,0.0010
3121.00,0.0011
3118.00,0.0012
3115.00,0.0014
3112.00,0.0018
3109.00,0.0024
3106.00,0.0030
3103.00,0.0032
3100.00,0.0030
3097.00,0.0029
3094.00,0.0032
3091.00,0.0042
3088.00,0.0058
3085.00,0.0076
3082.00,0.0082
3079.00,0.0074
3076.00,0.0063
3073.00,0.0060
3070.00,0.0066
3067.00,0.0080
3064.00,0.0099
3061.00,0.0114
3058.00,0.0111
3055.00,0.0095
3052.00,0.0076
3049.00,0.0063
3046.00,0.0058
3043.00,0.0061
3040.00,0.0069
3037.00,0.0087
3034.00,0.0118
3031.00,0.0161
3028.00,0.0205
3025.00,0.0222
3022.00,0.0190
3019.00,0.0134
3016.00,0.0090
3013.00,0.0065
3010.00,0.0054
3007.00,0.0054
3004.00,0.0059
3001.00,0.0060
2998.00,0.0051
2995.00,0.0039
2992.00,0.0031
2989.00,0.0029
2986.00,0.0027
2983.00,0.0026
2980.00,0.0027
2977.00,0.0030
2974.00,0.0032
2971.00,0.0035
2968.00,0.0040
2965.00,0.0044
2962.00,0.0050
2959.00,0.0056
2956.00,0.0063
2953.00,0.0073
2950.00,0.0084
2947.00,0.0099
2944.00,0.0117
2941.00,0.0139
2938.00,0.0163
2935.00,0.0191
2932.00,0.0221
2929.00,0.0247
2926.00,0.0266
2923.00,0.0275
2920.00,0.0274
2917.00,0.0265
2914.00,0.0249
2911.00,0.0230
2908.00,0.0209
2905.00,0.0189
2902.00,0.0168
2899.00,0.0147
2896.00,0.0130
2893.00,0.0116
2890.00,0.0105
2887.00,0.0097
2884.00,0.0090
2881.00,0.0084
2878.00,0.0079
2875.00,0.0074
2872.00,0.0071
2869.00,0.0070
2866.00,0.0072
2863.00,0.0078
2860.00,0.0089
2857.00,0.0101
2854.00,0.0113
2851.00,0.0121
2848.00,0.0119
2845.00,0.0109
2842.00,0.0090
2839.00,0.0068
2836.00,0.0051
2833.00,0.0039
2830.00,0.0032
2827.00,0.0028
2824.00,0.0026
2821.00,0.0024
2818.00,0.0023
2815.00,0.0022
2812.00,0.0021
2809.00,0.0021
2806.00,0.0020
2803.00,0.0020
2800.00,0.0019
2797.00,0.0018
2794.00,0.0017
2791.00,0.0017
2788.00,0.0016
2785.00,0.0016
2782.00,0.0016
2779.00,0.0016
2776.00,0.0016
2773.00,0.0015
2770.00,0.0014
2767.00,0.0014
2764.00,0.0014
2761.00,0.0013
2758.00,0.0013
2755.00,0.0013
2752.00,0.0013
2749.00,0.0013
2746.00,0.0013
2743.00,0.0013
2740.00,0.0013
2737.00,0.0013
2734.00,0.0013
2731.00,0.0013
2728.00,0.0013
2725.00,0.0013
2722.00,0.0013
2719.00,0.0013
2716.00,0.0013
2713.00,0.0013
2710.00,0.0013
2707.00,0.0013
2704.00,0.0013
2701.00,0.0013
2698.00,0.0013
2695.00,0.0013
2692.00,0.0013
2689.00,0.0013
2686.00,0.0012
2683.00,0.0013
2680.00,0.0012
2677.00,0.0012
2674.00,0.0013
2671.00,0.0013
2668.00,0.0013
2665.00,0.0014
2662.00,0.0016
2659.00,0.0017
2656.00,0.0017
2653.00,0.0018
2650.00,0.0017
2647.00,0.0017
2644.00,0.0017
2641.00,0.0018
2638.00,0.0018
2635.00,0.0018
2632.00,0.0018
2629.00,0.0018
2626.00,0.0017
2623.00,0.0017
2620.00,0.0016
2617.00,0.0016
2614.00,0.0015
2611.00,0.0016
2608.00,0.0016
2605.00,0.0016
2602.00,0.0016
2599.00,0.0015
2596.00,0.0014
2593.00,0.0013
2590.00,0.0014
2587.00,0.0014
2584.00,0.0014
2581.00,0.0013
2578.00,0.0012
2575.00,0.0012
2572.00,0.0012
2569.00,0.0012
2566.00,0.0011
2563.00,0.0011
2560.00,0.0010
2557.00,0.0011
2554.00,0.0010
2551.00,0.0010
2548.00,0.0010
2545.00,0.0010
2542.00,0.0009
2539.00,0.0009
2536.00,0.0009
2533.00,0.0009
2530.00,0.0009
2527.00,0.0009
2524.00,0.0009
2521.00,0.0009
2518.00,0.0010
2515.00,0.0009
2512.00,0.0009
2509.00,0.0009
2506.00,0.0009
2503.00,0.0008
2500.00,0.0008
2497.00,0.0008
2494.00,0.0009
2491.00,0.0008
2488.00,0.0008
2485.00,0.0008
2482.00,0.0007
2479.00,0.0007
2476.00,0.0008
2473.00,0.0007
2470.00,0.0007
2467.00,0.0007
2464.00,0.0007
2461.00,0.0008
2458.00,0.0008
2455.00,0.0008
2452.00,0.0008
2449.00,0.0007
2446.00,0.0007
2443.00,0.0007
2440.00,0.0007
2437.00,0.0006
2434.00,0.0005
2431.00,0.0005
2428.00,0.0005
2425.00,0.0005
2422.00,0.0005
2419.00,0.0005
2416.00,0.0004
2413.00,0.0004
2410.00,0.0003
2407.00,0.0003
2404.00,0.0003
2401.00,0.0002
2398.00,0.0003
2395.00,0.0003
2392.00,0.0003
2389.00,0.0003
2386.00,0.0003
2383.00,0.0002
2380.00,0.0001
2377.00,0.0001
2374.00,0.0002
2371.00,0.0001
2368.00,0.0001
2365.00,0.0002
2362.00,0.0003
2359.00,0.0003
2356.00,0.0004
2353.00,0.0004
2350.00,0.0004
2347.00,0.0006
2344.00,0.0006
2341.00,0.0008
2338.00,0.0009
2335.00,0.0009
2332.00,0.0008
2329.00,0.0011
2326.00,0.0022
2323.00,0.0020
2320.00,0.0016
2317.00,0.0015
2314.00,0.0014
2311.00,0.0014
2308.00,0.0014
2305.00,0.0013
2302.00,0.0012
2299.00,0.0012
2296.00,0.0014
2293.00,0.0016
2290.00,0.0018
2287.00,0.0018
2284.00,0.0015
2281.00,0.0013
2278.00,0.0012
2275.00,0.0012
2272.00,0.0011
2269.00,0.0010
2266.00,0.0009
2263.00,0.0008
2260.00,0.0011
2257.00,0.0009
2254.00,0.0007
2251.00,0.0008
2248.00,0.0007
2245.00,0.0008
2242.00,0.0007
2239.00,0.0008
2236.00,0.0007
2233.00,0.0008
2230.00,0.0007
2227.00,0.0006
2224.00,0.0005
2221.00,0.0007
2218.00,0.0006
2215.00,0.0007
2212.00,0.0005
2209.00,0.0004
2206.00,0.0006
2203.00,0.0005
2200.00,0.0005
2197.00,0.0007
2194.00,0.0009
2191.00,0.0009
2188.00,0.0010
2185.00,0.0008
2182.00,-0.0000
2179.00,0.0000
2176.00,-0.0002
2173.00,0.0001
2170.00,0.0011
2167.00,0.0016
2164.00,0.0018
2161.00,0.0003
2158.00,-0.0026
2155.00,-0.0019
2152.00,-0.0015
2149.00,-0.0017
2146.00,-0.0018
2143.00,-0.0016
2140.00,-0.0014
2137.00,-0.0019
2134.00,-0.0022
2131.00,-0.0016
2128.00,-0.0011
2125.00,-0.0007
2122.00,-0.0004
2119.00,-0.0001
2116.00,0.0002
2113.00,0.0002
2110.00,0.0000
2107.00,0.0001
2104.00,0.0002
2101.00,0.0001
2098.00,-0.0001
2095.00,-0.0005
2092.00,-0.0002
2089.00,0.0001
2086.00,0.0002
2083.00,0.0004
2080.00,0.0005
2077.00,0.0002
2074.00,0.0000
2071.00,0.0001
2068.00,0.0001
2065.00,0.0002
2062.00,-0.0001
2059.00,-0.0000
2056.00,0.0000
2053.00,0.0006
2050.00,0.0006
2047.00,0.0000
2044.00,0.0002
2041.00,0.0003
2038.00,0.0001
2035.00,-0.0002
2032.00,-0.0002
2029.00,-0.0006
2026.00,-0.0005
2023.00,-0.0004
2020.00,-0.0002
2017.00,-0.0003
2014.00,-0.0004
2011.00,-0.0004
2008.00,-0.0010
2005.00,-0.0013
2002.00,-0.0006
1999.00,-0.0002
1996.00,0.0000
1993.00,0.0003
1990.00,0.0006
1987.00,0.0008
1984.00,0.0009
1981.00,0.0016
1978.00,0.0004
1975.00,-0.0003
1972.00,-0.0002
1969.00,-0.0002
1966.00,0.0003
1963.00,0.0007
1960.00,0.0004
1957.00,0.0008
1954.00,0.0013
1951.00,0.0017
1948.00,0.0020
1945.00,0.0024
1942.00,0.0025
1939.00,0.0020
1936.00,0.0015
1933.00,0.0009
1930.00,0.0007
1927.00,0.0004
1924.00,0.0003
1921.00,0.0002
1918.00,0.0000
1915.00,0.0000
1912.00,0.0000
1909.00,0.0001
1906.00,0.0001
1903.00,0.0002
1900.00,0.0004
1897.00,0.0005
1894.00,0.0008
1891.00,0.0011
1888.00,0.0014
1885.00,0.0015
1882.00,0.0017
1879.00,0.0020
1876.00,0.0021
1873.00,0.0022
1870.00,0.0023
1867.00,0.0022
1864.00,0.0019
1861.00,0.0016
1858.00,0.0011
1855.00,0.0008
1852.00,0.0006
1849.00,0.0005
1846.00,0.0003
1843.00,0.0003
1840.00,0.0003
1837.00,0.0003
1834.00,0.0004
1831.00,0.0005
1828.00,0.0008
1825.00,0.0010
1822.00,0.0011
1819.00,0.0012
1816.00,0.0015
1813.00,0.0019
1810.00,0.0023
1807.00,0.0026
1804.00,0.0028
1801.00,0.0029
1798.00,0.0027
1795.00,0.0024
1792.00,0.0019
1789.00,0.0016
1786.00,0.0014
1783.00,0.0013
1780.00,0.0014
1777.00,0.0014
1774.00,0.0015
1771.00,0.0016
1768.00,0.0017
1765.00,0.0018
1762.00,0.0020
1759.00,0.0023
1756.00,0.0026
1753.00,0.0030
1750.00,0.0034
1747.00,0.0037
1744.00,0.0040
1741.00,0.0041
1738.00,0.0040
1735.00,0.0040
1732.00,0.0038
1729.00,0.0036
1726.00,0.0034
1723.00,0.0032
1720.00,0.0030
1717.00,0.0029
1714.00,0.0027
1711.00,0.0026
1708.00,0.0025
1705.00,0.0024
1702.00,0.0024
1699.00,0.0024
1696.00,0.0024
1693.00,0.0024
1690.00,0.0026
1687.00,0.0028
1684.00,0.0029
1681.00,0.0030
1678.00,0.0030
1675.00,0.0031
1672.00,0.0031
1669.00,0.0031
1666.00,0.0032
1663.00,0.0031
1660.00,0.0029
1657.00,0.0028
1654.00,0.0027
1651.00,0.0025
1648.00,0.0023
1645.00,0.0022
1642.00,0.0021
1639.00,0.0020
1636.00,0.0020
1633.00,0.0019
1630.00,0.0020
1627.00,0.0021
1624.00,0.0021
1621.00,0.0022
1618.00,0.0025
1615.00,0.0029
1612.00,0.0039
1609.00,0.0064
1606.00,0.0118
1603.00,0.0183
1600.00,0.0193
1597.00,0.0137
1594.00,0.0087
1591.00,0.0063
1588.00,0.0059
1585.00,0.0076
1582.00,0.0079
1579.00,0.0052
1576.00,0.0034
1573.00,0.0026
1570.00,0.0022
1567.00,0.0019
1564.00,0.0018
1561.00,0.0018
1558.00,0.0019
1555.00,0.0021
1552.00,0.0023
1549.00,0.0025
1546.00,0.0028
1543.00,0.0029
1540.00,0.0028
1537.00,0.0026
1534.00,0.0023
1531.00,0.0020
1528.00,0.0018
1525.00,0.0016
1522.00,0.0016
1519.00,0.0017
1516.00,0.0018
1513.00,0.0019
1510.00,0.0022
1507.00,0.0028
1504.00,0.0040
1501.00,0.0066
1498.00,0.0152
1495.00,0.0371
1492.00,0.0471
1489.00,0.0289
1486.00,0.0151
1483.00,0.0091
1480.00,0.0063
1477.00,0.0052
1474.00,0.0047
1471.00,0.0047
1468.00,0.0052
1465.00,0.0060
1462.00,0.0074
1459.00,0.0113
1456.00,0.0280
1453.00,0.0462
1450.00,0.0456
1447.00,0.0350
1444.00,0.0275
1441.00,0.0214
1438.00,0.0168
1435.00,0.0121
1432.00,0.0091
1429.00,0.0069
1426.00,0.0058
1423.00,0.0051
1420.00,0.0048
1417.00,0.0044
1414.00,0.0042
1411.00,0.0041
1408.00,0.0039
1405.00,0.0039
1402.00,0.0038
1399.00,0.0039
1396.00,0.0042
1393.00,0.0048
1390.00,0.0056
1387.00,0.0067
1384.00,0.0077
1381.00,0.0087
1378.00,0.0097
1375.00,0.0105
1372.00,0.0108
1369.00,0.0107
1366.00,0.0104
1363.00,0.0101
1360.00,0.0097
1357.00,0.0092
1354.00,0.0089
1351.00,0.0089
1348.00,0.0088
1345.00,0.0084
1342.00,0.0080
1339.00,0.0077
1336.00,0.0077
1333.00,0.0083
1330.00,0.0089
1327.00,0.0089
1324.00,0.0085
1321.00,0.0082
1318.00,0.0082
1315.00,0.0085
1312.00,0.0086
1309.00,0.0083
1306.00,0.0080
1303.00,0.0075
1300.00,0.0071
1297.00,0.0069
1294.00,0.0068
1291.00,0.0067
1288.00,0.0065
1285.00,0.0063
1282.00,0.0062
1279.00,0.0060
1276.00,0.0057
1273.00,0.0053
1270.00,0.0050
1267.00,0.0048
1264.00,0.0046
1261.00,0.0046
1258.00,0.0045
1255.00,0.0045
1252.00,0.0045
1249.00,0.0046
1246.00,0.0047
1243.00,0.0047
1240.00,0.0046
1237.00,0.0045
1234.00,0.0045
1231.00,0.0045
1228.00,0.0045
1225.00,0.0046
1222.00,0.0045
1219.00,0.0046
1216.00,0.0047
1213.00,0.0049
1210.00,0.0051
1207.00,0.0055
1204.00,0.0061
1201.00,0.0065
1198.00,0.0069
1195.00,0.0071
1192.00,0.0072
1189.00,0.0075
1186.00,0.0084
1183.00,0.0097
1180.00,0.0099
1177.00,0.0081
1174.00,0.0066
1171.00,0.0059
1168.00,0.0058
1165.00,0.0059
1162.00,0.0064
1159.00,0.0079
1156.00,0.0099
1153.00,0.0097
1150.00,0.0074
1147.00,0.0056
1144.00,0.0048
1141.00,0.0043
1138.00,0.0040
1135.00,0.0039
1132.00,0.0039
1129.00,0.0040
1126.00,0.0041
1123.00,0.0042
1120.00,0.0045
1117.00,0.0050
1114.00,0.0055
1111.00,0.0055
1108.00,0.0054
1105.00,0.0054
1102.00,0.0055
1099.00,0.0057
1096.00,0.0059
1093.00,0.0062
1090.00,0.0065
1087.00,0.0070
1084.00,0.0078
1081.00,0.0087
1078.00,0.0097
1075.00,0.0112
1072.00,0.0127
1069.00,0.0135
1066.00,0.0128
1063.00,0.0112
1060.00,0.0099
1057.00,0.0088
1054.00,0.0079
1051.00,0.0073
1048.00,0.0069
1045.00,0.0067
1042.00,0.0067
1039.00,0.0075
1036.00,0.0101
1033.00,0.0159
1030.00,0.0217
1027.00,0.0226
1024.00,0.0185
1021.00,0.0145
1018.00,0.0121
1015.00,0.0105
1012.00,0.0095
1009.00,0.0089
1006.00,0.0092
1003.00,0.0097
1000.00,0.0083
997.00,0.0070
994.00,0.0066
991.00,0.0066
988.00,0.0071
985.00,0.0078
982.00,0.0084
979.00,0.0085
976.00,0.0080
973.00,0.0075
970.00,0.0079
967.00,0.0088
964.00,0.0092
961.00,0.0085
958.00,0.0074
955.00,0.0067
952.00,0.0066
949.00,0.0069
946.00,0.0072
943.00,0.0072
940.00,0.0068
937.00,0.0062
934.00,0.0055
931.00,0.0049
928.00,0.0048
925.00,0.0050
922.00,0.0054
919.00,0.0061
916.00,0.0075
913.00,0.0100
910.00,0.0129
907.00,0.0147
904.00,0.0140
901.00,0.0110
898.00,0.0078
895.00,0.0059
892.00,0.0050
889.00,0.0043
886.00,0.0040
883.00,0.0037
880.00,0.0036
877.00,0.0035
874.00,0.0032
871.00,0.0031
868.00,0.0031
865.00,0.0029
862.00,0.0030
859.00,0.0031
856.00,0.0032
853.00,0.0037
850.00,0.0046
847.00,0.0060
844.00,0.0072
841.00,0.0073
838.00,0.0065
835.00,0.0050
832.00,0.0038
829.00,0.0031
826.00,0.0028
823.00,0.0028
820.00,0.0028
817.00,0.0029
814.00,0.0030
811.00,0.0030
808.00,0.0031
805.00,0.0032
802.00,0.0034
799.00,0.0037
796.00,0.0044
793.00,0.0053
790.00,0.0066
787.00,0.0082
784.00,0.0099
781.00,0.0122
778.00,0.0157
775.00,0.0206
772.00,0.0271
769.00,0.0343
766.00,0.0416
763.00,0.0486
760.00,0.0558
757.00,0.0610
754.00,0.0622
751.00,0.0616
748.00,0.0608
745.00,0.0556
742.00,0.0446
739.00,0.0333
736.00,0.0240
733.00,0.0159
730.00,0.0106
727.00,0.0079
724.00,0.0068
721.00,0.0067
718.00,0.0073
715.00,0.0091
712.00,0.0142
709.00,0.0264
706.00,0.0484
703.00,0.0792
700.00,0.1151
697.00,0.1488
694.00,0.1539
691.00,0.1136
688.00,0.0732
685.00,0.0515
682.00,0.0398
679.00,0.0326
676.00,0.0280
673.00,0.0249
670.00,0.0229
667.00,0.0206
664.00,0.0181
661.00,0.0159
658.00,0.0141
655.00,0.0127
652.00,0.0112
649.00,0.0103
646.00,0.0098
643.00,0.0092
640.00,0.0092
637.00,0.0096
634.00,0.0104
631.00,0.0111
628.00,0.0116
625.00,0.0121
622.00,0.0126
619.00,0.0125
616.00,0.0114
613.00,0.0105
610.00,0.0103
607.00,0.0100
604.00,0.0098
601.00,0.0100
598.00,0.0103
595.00,0.0106
592.00,0.0113
589.00,0.0118
586.00,0.0125
583.00,0.0135
580.00,0.0146
577.00,0.0166
574.00,0.0188
571.00,0.0212
568.00,0.0238
565.00,0.0258
562.00,0.0280
559.00,0.0302
556.00,0.0327
553.00,0.0354
550.00,0.0391
547.00,0.0435
544.00,0.0485
541.00,0.0530
538.00,0.0547
535.00,0.0511
532.00,0.0439
529.00,0.0364
526.00,0.0298
523.00,0.0245
520.00,0.0214
517.00,0.0191
514.00,0.0173
511.00,0.0155
508.00,0.0141
505.00,0.0126
502.00,0.0116
499.00,0.0110
496.00,0.0105
493.00,0.0098
490.00,0.0090
487.00,0.0086
484.00,0.0086
481.00,0.0083
478.00,0.0083
475.00,0.0079
472.00,0.0077
469.00,0.0075
466.00,0.0072
463.00,0.0074
460.00,0.0066
457.00,0.0059
454.00,0.0068
451.00,0.0067
448.00,0.0062
445.00,0.0065
442.00,0.0064
439.00,0.0063
436.00,0.0061
433.00,0.0055
430.00,0.0057
427.00,0.0058
424.00,0.0062
421.00,0.0054
418.00,0.0056
415.00,0.0068
412.00,0.0068
409.00,0.0066
406.00,0.0063
403.00,0.0038
400.00,0.0047