File: FTIR/Olivia/2025_08_05_silicon_dish_scan1.csv
Created as New Dataset,Sample 1072 By YargerLab Date Tuesday, August 05 2025
cm-1,A
4000.00,0.0009
3997.00,0.0009
3994.00,0.0009
3991.00,0.0009
3988.00,0.0009
3985.00,0.0008
3982.00,0.0008
3979.00,0.0008
3976.00,0.0008
3973.00,0.0008
3970.00,0.0008
3967.00,0.0009
3964.00,0.0008
3961.00,0.0009
3958.00,0.0009
3955.00,0.0009
3952.00,0.0008
3949.00,0.0008
3946.00,0.0008
3943.00,0.0008
3940.00,0.0008
3937.00,0.0008
3934.00,0.0008
3931.00,0.0008
3928.00,0.0008
3925.00,0.0008
3922.00,0.0008
3919.00,0.0008
3916.00,0.0008
3913.00,0.0008
3910.00,0.0008
3907.00,0.0008
3904.00,0.0008
3901.00,0.0008
3898.00,0.0008
3895.00,0.0008
3892.00,0.0009
3889.00,0.0008
3886.00,0.0008
3883.00,0.0008
3880.00,0.0007
3877.00,0.0008
3874.00,0.0008
3871.00,0.0008
3868.00,0.0007
3865.00,0.0007
3862.00,0.0008
3859.00,0.0008
3856.00,0.0008
3853.00,0.0007
3850.00,0.0007
3847.00,0.0008
3844.00,0.0009
3841.00,0.0008
3838.00,0.0008
3835.00,0.0008
3832.00,0.0008
3829.00,0.0008
3826.00,0.0009
3823.00,0.0009
3820.00,0.0008
3817.00,0.0008
3814.00,0.0008
3811.00,0.0009
3808.00,0.0009
3805.00,0.0009
3802.00,0.0009
3799.00,0.0008
3796.00,0.0009
3793.00,0.0011
3790.00,0.0012
3787.00,0.0012
3784.00,0.0012
3781.00,0.0012
3778.00,0.0013
3775.00,0.0014
3772.00,0.0014
3769.00,0.0013
3766.00,0.0013
3763.00,0.0013
3760.00,0.0014
3757.00,0.0014
3754.00,0.0013
3751.00,0.0013
3748.00,0.0012
3745.00,0.0012
3742.00,0.0012
3739.00,0.0012
3736.00,0.0012
3733.00,0.0013
3730.00,0.0013
3727.00,0.0014
3724.00,0.0015
3721.00,0.0016
3718.00,0.0017
3715.00,0.0018
3712.00,0.0019
3709.00,0.0020
3706.00,0.0021
3703.00,0.0023
3700.00,0.0025
3697.00,0.0026
3694.00,0.0027
3691.00,0.0027
3688.00,0.0029
3685.00,0.0032
3682.00,0.0034
3679.00,0.0035
3676.00,0.0037
3673.00,0.0040
3670.00,0.0042
3667.00,0.0045
3664.00,0.0048
3661.00,0.0050
3658.00,0.0051
3655.00,0.0053
3652.00,0.0054
3649.00,0.0054
3646.00,0.0054
3643.00,0.0057
3640.00,0.0058
3637.00,0.0058
3634.00,0.0058
3631.00,0.0058
3628.00,0.0059
3625.00,0.0059
3622.00,0.0059
3619.00,0.0059
3616.00,0.0059
3613.00,0.0059
3610.00,0.0060
3607.00,0.0061
3604.00,0.0062
3601.00,0.0062
3598.00,0.0062
3595.00,0.0064
3592.00,0.0065
3589.00,0.0065
3586.00,0.0065
3583.00,0.0066
3580.00,0.0067
3577.00,0.0067
3574.00,0.0067
3571.00,0.0068
3568.00,0.0069
3565.00,0.0070
3562.00,0.0071
3559.00,0.0071
3556.00,0.0072
3553.00,0.0074
3550.00,0.0075
3547.00,0.0076
3544.00,0.0077
3541.00,0.0079
3538.00,0.0080
3535.00,0.0081
3532.00,0.0083
3529.00,0.0084
3526.00,0.0085
3523.00,0.0086
3520.00,0.0087
3517.00,0.0088
3514.00,0.0089
3511.00,0.0091
3508.00,0.0092
3505.00,0.0093
3502.00,0.0094
3499.00,0.0095
3496.00,0.0096
3493.00,0.0097
3490.00,0.0098
3487.00,0.0099
3484.00,0.0100
3481.00,0.0101
3478.00,0.0102
3475.00,0.0103
3472.00,0.0104
3469.00,0.0105
3466.00,0.0105
3463.00,0.0106
3460.00,0.0107
3457.00,0.0108
3454.00,0.0109
3451.00,0.0109
3448.00,0.0109
3445.00,0.0110
3442.00,0.0111
3439.00,0.0112
3436.00,0.0112
3433.00,0.0112
3430.00,0.0112
3427.00,0.0113
3424.00,0.0113
3421.00,0.0113
3418.00,0.0114
3415.00,0.0115
3412.00,0.0114
3409.00,0.0114
3406.00,0.0115
3403.00,0.0115
3400.00,0.0115
3397.00,0.0115
3394.00,0.0116
3391.00,0.0116
3388.00,0.0116
3385.00,0.0115
3382.00,0.0115
3379.00,0.0115
3376.00,0.0115
3373.00,0.0116
3370.00,0.0116
3367.00,0.0115
3364.00,0.0115
3361.00,0.0114
3358.00,0.0115
3355.00,0.0114
3352.00,0.0114
3349.00,0.0113
3346.00,0.0114
3343.00,0.0113
3340.00,0.0113
3337.00,0.0113
3334.00,0.0113
3331.00,0.0113
3328.00,0.0112
3325.00,0.0111
3322.00,0.0111
3319.00,0.0111
3316.00,0.0111
3313.00,0.0111
3310.00,0.0110
3307.00,0.0110
3304.00,0.0110
3301.00,0.0109
3298.00,0.0109
3295.00,0.0109
3292.00,0.0109
3289.00,0.0109
3286.00,0.0108
3283.00,0.0108
3280.00,0.0108
3277.00,0.0107
3274.00,0.0107
3271.00,0.0107
3268.00,0.0107
3265.00,0.0106
3262.00,0.0107
3259.00,0.0106
3256.00,0.0105
3253.00,0.0105
3250.00,0.0105
3247.00,0.0104
3244.00,0.0104
3241.00,0.0104
3238.00,0.0104
3235.00,0.0103
3232.00,0.0103
3229.00,0.0103
3226.00,0.0102
3223.00,0.0101
3220.00,0.0101
3217.00,0.0100
3214.00,0.0099
3211.00,0.0099
3208.00,0.0099
3205.00,0.0098
3202.00,0.0097
3199.00,0.0097
3196.00,0.0096
3193.00,0.0095
3190.00,0.0095
3187.00,0.0094
3184.00,0.0094
3181.00,0.0094
3178.00,0.0093
3175.00,0.0092
3172.00,0.0092
3169.00,0.0091
3166.00,0.0090
3163.00,0.0090
3160.00,0.0089
3157.00,0.0089
3154.00,0.0088
3151.00,0.0088
3148.00,0.0088
3145.00,0.0087
3142.00,0.0087
3139.00,0.0087
3136.00,0.0086
3133.00,0.0086
3130.00,0.0085
3127.00,0.0085
3124.00,0.0085
3121.00,0.0085
3118.00,0.0085
3115.00,0.0085
3112.00,0.0084
3109.00,0.0083
3106.00,0.0083
3103.00,0.0082
3100.00,0.0082
3097.00,0.0081
3094.00,0.0080
3091.00,0.0080
3088.00,0.0079
3085.00,0.0078
3082.00,0.0078
3079.00,0.0078
3076.00,0.0077
3073.00,0.0077
3070.00,0.0076
3067.00,0.0076
3064.00,0.0076
3061.00,0.0075
3058.00,0.0075
3055.00,0.0074
3052.00,0.0074
3049.00,0.0073
3046.00,0.0073
3043.00,0.0072
3040.00,0.0072
3037.00,0.0071
3034.00,0.0071
3031.00,0.0070
3028.00,0.0069
3025.00,0.0070
3022.00,0.0069
3019.00,0.0069
3016.00,0.0069
3013.00,0.0070
3010.00,0.0070
3007.00,0.0071
3004.00,0.0072
3001.00,0.0074
2998.00,0.0077
2995.00,0.0081
2992.00,0.0087
2989.00,0.0096
2986.00,0.0109
2983.00,0.0126
2980.00,0.0156
2977.00,0.0204
2974.00,0.0277
2971.00,0.0384
2968.00,0.0518
2965.00,0.0634
2962.00,0.0653
2959.00,0.0549
2956.00,0.0401
2953.00,0.0284
2950.00,0.0209
2947.00,0.0163
2944.00,0.0134
2941.00,0.0114
2938.00,0.0099
2935.00,0.0087
2932.00,0.0078
2929.00,0.0070
2926.00,0.0064
2923.00,0.0060
2920.00,0.0059
2917.00,0.0063
2914.00,0.0075
2911.00,0.0093
2908.00,0.0107
2905.00,0.0111
2902.00,0.0104
2899.00,0.0092
2896.00,0.0081
2893.00,0.0072
2890.00,0.0066
2887.00,0.0062
2884.00,0.0060
2881.00,0.0057
2878.00,0.0054
2875.00,0.0052
2872.00,0.0050
2869.00,0.0047
2866.00,0.0045
2863.00,0.0042
2860.00,0.0040
2857.00,0.0037
2854.00,0.0032
2851.00,0.0028
2848.00,0.0028
2845.00,0.0034
2842.00,0.0038
2839.00,0.0039
2836.00,0.0040
2833.00,0.0040
2830.00,0.0040
2827.00,0.0040
2824.00,0.0040
2821.00,0.0040
2818.00,0.0040
2815.00,0.0040
2812.00,0.0040
2809.00,0.0040
2806.00,0.0040
2803.00,0.0039
2800.00,0.0039
2797.00,0.0039
2794.00,0.0038
2791.00,0.0037
2788.00,0.0035
2785.00,0.0033
2782.00,0.0031
2779.00,0.0030
2776.00,0.0029
2773.00,0.0028
2770.00,0.0027
2767.00,0.0026
2764.00,0.0025
2761.00,0.0025
2758.00,0.0024
2755.00,0.0024
2752.00,0.0023
2749.00,0.0023
2746.00,0.0023
2743.00,0.0023
2740.00,0.0022
2737.00,0.0022
2734.00,0.0021
2731.00,0.0021
2728.00,0.0021
2725.00,0.0021
2722.00,0.0020
2719.00,0.0021
2716.00,0.0020
2713.00,0.0020
2710.00,0.0020
2707.00,0.0020
2704.00,0.0020
2701.00,0.0020
2698.00,0.0020
2695.00,0.0019
2692.00,0.0019
2689.00,0.0019
2686.00,0.0019
2683.00,0.0019
2680.00,0.0019
2677.00,0.0020
2674.00,0.0020
2671.00,0.0020
2668.00,0.0020
2665.00,0.0020
2662.00,0.0020
2659.00,0.0020
2656.00,0.0020
2653.00,0.0019
2650.00,0.0018
2647.00,0.0018
2644.00,0.0017
2641.00,0.0016
2638.00,0.0016
2635.00,0.0015
2632.00,0.0015
2629.00,0.0015
2626.00,0.0014
2623.00,0.0014
2620.00,0.0014
2617.00,0.0014
2614.00,0.0014
2611.00,0.0013
2608.00,0.0013
2605.00,0.0013
2602.00,0.0012
2599.00,0.0012
2596.00,0.0012
2593.00,0.0012
2590.00,0.0013
2587.00,0.0012
2584.00,0.0012
2581.00,0.0012
2578.00,0.0011
2575.00,0.0011
2572.00,0.0011
2569.00,0.0011
2566.00,0.0011
2563.00,0.0011
2560.00,0.0011
2557.00,0.0011
2554.00,0.0011
2551.00,0.0011
2548.00,0.0011
2545.00,0.0011
2542.00,0.0011
2539.00,0.0012
2536.00,0.0012
2533.00,0.0012
2530.00,0.0012
2527.00,0.0013
2524.00,0.0014
2521.00,0.0014
2518.00,0.0014
2515.00,0.0014
2512.00,0.0014
2509.00,0.0014
2506.00,0.0014
2503.00,0.0015
2500.00,0.0015
2497.00,0.0015
2494.00,0.0013
2491.00,0.0012
2488.00,0.0012
2485.00,0.0011
2482.00,0.0012
2479.00,0.0011
2476.00,0.0011
2473.00,0.0012
2470.00,0.0011
2467.00,0.0010
2464.00,0.0010
2461.00,0.0010
2458.00,0.0011
2455.00,0.0011
2452.00,0.0010
2449.00,0.0010
2446.00,0.0011
2443.00,0.0010
2440.00,0.0010
2437.00,0.0010
2434.00,0.0010
2431.00,0.0010
2428.00,0.0010
2425.00,0.0010
2422.00,0.0010
2419.00,0.0010
2416.00,0.0010
2413.00,0.0009
2410.00,0.0009
2407.00,0.0009
2404.00,0.0009
2401.00,0.0009
2398.00,0.0009
2395.00,0.0010
2392.00,0.0010
2389.00,0.0010
2386.00,0.0009
2383.00,0.0009
2380.00,0.0010
2377.00,0.0009
2374.00,0.0010
2371.00,0.0010
2368.00,0.0011
2365.00,0.0010
2362.00,0.0010
2359.00,0.0011
2356.00,0.0012
2353.00,0.0011
2350.00,0.0012
2347.00,0.0012
2344.00,0.0013
2341.00,0.0012
2338.00,0.0012
2335.00,0.0012
2332.00,0.0012
2329.00,0.0012
2326.00,0.0014
2323.00,0.0013
2320.00,0.0013
2317.00,0.0012
2314.00,0.0012
2311.00,0.0011
2308.00,0.0011
2305.00,0.0011
2302.00,0.0011
2299.00,0.0010
2296.00,0.0010
2293.00,0.0011
2290.00,0.0010
2287.00,0.0009
2284.00,0.0009
2281.00,0.0009
2278.00,0.0007
2275.00,0.0007
2272.00,0.0008
2269.00,0.0008
2266.00,0.0006
2263.00,0.0005
2260.00,0.0007
2257.00,0.0006
2254.00,0.0005
2251.00,0.0004
2248.00,0.0003
2245.00,0.0004
2242.00,0.0004
2239.00,0.0004
2236.00,0.0003
2233.00,0.0001
2230.00,0.0000
2227.00,0.0001
2224.00,0.0001
2221.00,0.0000
2218.00,-0.0002
2215.00,-0.0003
2212.00,-0.0003
2209.00,-0.0003
2206.00,-0.0005
2203.00,-0.0005
2200.00,-0.0005
2197.00,-0.0006
2194.00,-0.0008
2191.00,-0.0010
2188.00,-0.0013
2185.00,-0.0014
2182.00,-0.0013
2179.00,-0.0012
2176.00,-0.0014
2173.00,-0.0013
2170.00,-0.0011
2167.00,-0.0015
2164.00,-0.0020
2161.00,-0.0027
2158.00,-0.0033
2155.00,-0.0026
2152.00,-0.0018
2149.00,-0.0017
2146.00,-0.0018
2143.00,-0.0016
2140.00,-0.0014
2137.00,-0.0011
2134.00,-0.0009
2131.00,-0.0006
2128.00,-0.0007
2125.00,-0.0006
2122.00,-0.0004
2119.00,-0.0003
2116.00,-0.0004
2113.00,-0.0005
2110.00,-0.0005
2107.00,-0.0006
2104.00,-0.0004
2101.00,-0.0004
2098.00,-0.0005
2095.00,-0.0005
2092.00,-0.0004
2089.00,-0.0006
2086.00,-0.0006
2083.00,-0.0006
2080.00,-0.0007
2077.00,-0.0008
2074.00,-0.0009
2071.00,-0.0009
2068.00,-0.0010
2065.00,-0.0014
2062.00,-0.0013
2059.00,-0.0013
2056.00,-0.0013
2053.00,-0.0013
2050.00,-0.0016
2047.00,-0.0023
2044.00,-0.0028
2041.00,-0.0034
2038.00,-0.0038
2035.00,-0.0045
2032.00,-0.0048
2029.00,-0.0049
2026.00,-0.0050
2023.00,-0.0053
2020.00,-0.0051
2017.00,-0.0054
2014.00,-0.0050
2011.00,-0.0048
2008.00,-0.0046
2005.00,-0.0042
2002.00,-0.0037
1999.00,-0.0037
1996.00,-0.0033
1993.00,-0.0034
1990.00,-0.0033
1987.00,-0.0030
1984.00,-0.0027
1981.00,-0.0033
1978.00,-0.0036
1975.00,-0.0032
1972.00,-0.0025
1969.00,-0.0018
1966.00,-0.0014
1963.00,-0.0010
1960.00,-0.0002
1957.00,0.0003
1954.00,0.0007
1951.00,0.0009
1948.00,0.0010
1945.00,0.0013
1942.00,0.0015
1939.00,0.0016
1936.00,0.0014
1933.00,0.0014
1930.00,0.0016
1927.00,0.0016
1924.00,0.0016
1921.00,0.0017
1918.00,0.0017
1915.00,0.0019
1912.00,0.0019
1909.00,0.0020
1906.00,0.0019
1903.00,0.0021
1900.00,0.0022
1897.00,0.0023
1894.00,0.0025
1891.00,0.0025
1888.00,0.0026
1885.00,0.0028
1882.00,0.0028
1879.00,0.0030
1876.00,0.0030
1873.00,0.0029
1870.00,0.0030
1867.00,0.0031
1864.00,0.0030
1861.00,0.0029
1858.00,0.0029
1855.00,0.0028
1852.00,0.0028
1849.00,0.0027
1846.00,0.0027
1843.00,0.0027
1840.00,0.0026
1837.00,0.0026
1834.00,0.0026
1831.00,0.0026
1828.00,0.0026
1825.00,0.0026
1822.00,0.0026
1819.00,0.0027
1816.00,0.0027
1813.00,0.0028
1810.00,0.0029
1807.00,0.0030
1804.00,0.0030
1801.00,0.0031
1798.00,0.0032
1795.00,0.0033
1792.00,0.0033
1789.00,0.0033
1786.00,0.0034
1783.00,0.0036
1780.00,0.0036
1777.00,0.0037
1774.00,0.0037
1771.00,0.0037
1768.00,0.0037
1765.00,0.0037
1762.00,0.0037
1759.00,0.0037
1756.00,0.0037
1753.00,0.0036
1750.00,0.0037
1747.00,0.0038
1744.00,0.0038
1741.00,0.0039
1738.00,0.0039
1735.00,0.0041
1732.00,0.0042
1729.00,0.0042
1726.00,0.0044
1723.00,0.0045
1720.00,0.0046
1717.00,0.0048
1714.00,0.0048
1711.00,0.0049
1708.00,0.0050
1705.00,0.0052
1702.00,0.0053
1699.00,0.0057
1696.00,0.0060
1693.00,0.0063
1690.00,0.0066
1687.00,0.0068
1684.00,0.0072
1681.00,0.0074
1678.00,0.0075
1675.00,0.0077
1672.00,0.0079
1669.00,0.0081
1666.00,0.0083
1663.00,0.0084
1660.00,0.0086
1657.00,0.0087
1654.00,0.0090
1651.00,0.0094
1648.00,0.0094
1645.00,0.0096
1642.00,0.0097
1639.00,0.0099
1636.00,0.0101
1633.00,0.0102
1630.00,0.0102
1627.00,0.0102
1624.00,0.0102
1621.00,0.0101
1618.00,0.0098
1615.00,0.0096
1612.00,0.0093
1609.00,0.0089
1606.00,0.0085
1603.00,0.0081
1600.00,0.0078
1597.00,0.0076
1594.00,0.0073
1591.00,0.0071
1588.00,0.0069
1585.00,0.0067
1582.00,0.0065
1579.00,0.0064
1576.00,0.0062
1573.00,0.0060
1570.00,0.0059
1567.00,0.0058
1564.00,0.0057
1561.00,0.0054
1558.00,0.0052
1555.00,0.0054
1552.00,0.0055
1549.00,0.0055
1546.00,0.0055
1543.00,0.0056
1540.00,0.0056
1537.00,0.0057
1534.00,0.0057
1531.00,0.0057
1528.00,0.0058
1525.00,0.0058
1522.00,0.0058
1519.00,0.0058
1516.00,0.0058
1513.00,0.0058
1510.00,0.0058
1507.00,0.0059
1504.00,0.0059
1501.00,0.0060
1498.00,0.0061
1495.00,0.0061
1492.00,0.0062
1489.00,0.0065
1486.00,0.0067
1483.00,0.0067
1480.00,0.0067
1477.00,0.0067
1474.00,0.0066
1471.00,0.0066
1468.00,0.0066
1465.00,0.0067
1462.00,0.0069
1459.00,0.0074
1456.00,0.0083
1453.00,0.0092
1450.00,0.0102
1447.00,0.0110
1444.00,0.0111
1441.00,0.0106
1438.00,0.0100
1435.00,0.0097
1432.00,0.0098
1429.00,0.0103
1426.00,0.0112
1423.00,0.0129
1420.00,0.0152
1417.00,0.0186
1414.00,0.0203
1411.00,0.0202
1408.00,0.0191
1405.00,0.0181
1402.00,0.0178
1399.00,0.0171
1396.00,0.0153
1393.00,0.0129
1390.00,0.0113
1387.00,0.0101
1384.00,0.0094
1381.00,0.0090
1378.00,0.0087
1375.00,0.0085
1372.00,0.0084
1369.00,0.0083
1366.00,0.0082
1363.00,0.0082
1360.00,0.0082
1357.00,0.0082
1354.00,0.0082
1351.00,0.0083
1348.00,0.0084
1345.00,0.0085
1342.00,0.0085
1339.00,0.0087
1336.00,0.0088
1333.00,0.0087
1330.00,0.0089
1327.00,0.0091
1324.00,0.0093
1321.00,0.0096
1318.00,0.0099
1315.00,0.0103
1312.00,0.0108
1309.00,0.0113
1306.00,0.0119
1303.00,0.0126
1300.00,0.0133
1297.00,0.0141
1294.00,0.0151
1291.00,0.0164
1288.00,0.0178
1285.00,0.0197
1282.00,0.0222
1279.00,0.0259
1276.00,0.0318
1273.00,0.0419
1270.00,0.0623
1267.00,0.1042
1264.00,0.1747
1261.00,0.2499
1258.00,0.2702
1255.00,0.2109
1252.00,0.1415
1249.00,0.1068
1246.00,0.0935
1243.00,0.0891
1240.00,0.0891
1237.00,0.0908
1234.00,0.0935
1231.00,0.0966
1228.00,0.0997
1225.00,0.1030
1222.00,0.1061
1219.00,0.1091
1216.00,0.1120
1213.00,0.1147
1210.00,0.1174
1207.00,0.1199
1204.00,0.1224
1201.00,0.1248
1198.00,0.1272
1195.00,0.1296
1192.00,0.1321
1189.00,0.1345
1186.00,0.1371
1183.00,0.1396
1180.00,0.1422
1177.00,0.1447
1174.00,0.1472
1171.00,0.1497
1168.00,0.1522
1165.00,0.1544
1162.00,0.1569
1159.00,0.1593
1156.00,0.1617
1153.00,0.1642
1150.00,0.1669
1147.00,0.1698
1144.00,0.1730
1141.00,0.1765
1138.00,0.1803
1135.00,0.1846
1132.00,0.1896
1129.00,0.1953
1126.00,0.2021
1123.00,0.2102
1120.00,0.2201
1117.00,0.2329
1114.00,0.2491
1111.00,0.2693
1108.00,0.2937
1105.00,0.3221
1102.00,0.3540
1099.00,0.3884
1096.00,0.4237
1093.00,0.4582
1090.00,0.4905
1087.00,0.5198
1084.00,0.5450
1081.00,0.5659
1078.00,0.5833
1075.00,0.5978
1072.00,0.6086
1069.00,0.6169
1066.00,0.6231
1063.00,0.6275
1060.00,0.6304
1057.00,0.6314
1054.00,0.6317
1051.00,0.6315
1048.00,0.6317
1045.00,0.6317
1042.00,0.6329
1039.00,0.6360
1036.00,0.6414
1033.00,0.6504
1030.00,0.6639
1027.00,0.6833
1024.00,0.7101
1021.00,0.7460
1018.00,0.7931
1015.00,0.8477
1012.00,0.8985
1009.00,0.9246
1006.00,0.9091
1003.00,0.8531
1000.00,0.7698
997.00,0.6764
994.00,0.5857
991.00,0.5039
988.00,0.4341
985.00,0.3759
982.00,0.3285
979.00,0.2905
976.00,0.2605
973.00,0.2364
970.00,0.2172
967.00,0.2014
964.00,0.1879
961.00,0.1761
958.00,0.1655
955.00,0.1556
952.00,0.1467
949.00,0.1384
946.00,0.1306
943.00,0.1232
940.00,0.1164
937.00,0.1100
934.00,0.1042
931.00,0.0987
928.00,0.0937
925.00,0.0893
922.00,0.0855
919.00,0.0823
916.00,0.0798
913.00,0.0778
910.00,0.0765
907.00,0.0755
904.00,0.0750
901.00,0.0751
898.00,0.0757
895.00,0.0773
892.00,0.0799
889.00,0.0839
886.00,0.0901
883.00,0.0988
880.00,0.1095
877.00,0.1201
874.00,0.1286
871.00,0.1349
868.00,0.1397
865.00,0.1426
862.00,0.1413
859.00,0.1344
856.00,0.1243
853.00,0.1152
850.00,0.1093
847.00,0.1065
844.00,0.1065
841.00,0.1089
838.00,0.1143
835.00,0.1228
832.00,0.1360
829.00,0.1569
826.00,0.1893
823.00,0.2333
820.00,0.2788
817.00,0.3163
814.00,0.3484
811.00,0.3854
808.00,0.4352
805.00,0.5009
802.00,0.5829
799.00,0.6757
796.00,0.7710
793.00,0.8591
790.00,0.9288
787.00,0.9538
784.00,0.9161
781.00,0.8269
778.00,0.7139
775.00,0.5997
772.00,0.4993
769.00,0.4188
766.00,0.3574
763.00,0.3110
760.00,0.2756
757.00,0.2482
754.00,0.2263
751.00,0.2085
748.00,0.1942
745.00,0.1828
742.00,0.1730
739.00,0.1633
736.00,0.1536
733.00,0.1450
730.00,0.1378
727.00,0.1319
724.00,0.1276
721.00,0.1245
718.00,0.1238
715.00,0.1275
712.00,0.1382
709.00,0.1548
706.00,0.1693
703.00,0.1763
700.00,0.1768
697.00,0.1742
694.00,0.1714
691.00,0.1703
688.00,0.1720
685.00,0.1722
682.00,0.1673
679.00,0.1608
676.00,0.1553
673.00,0.1516
670.00,0.1496
667.00,0.1519
664.00,0.1562
661.00,0.1626
658.00,0.1478
655.00,0.1195
652.00,0.1044
649.00,0.0980
646.00,0.0947
643.00,0.0930
640.00,0.0922
637.00,0.0923
634.00,0.0925
631.00,0.0929
628.00,0.0931
625.00,0.0935
622.00,0.0938
619.00,0.0939
616.00,0.0946
613.00,0.0953
610.00,0.0959
607.00,0.0963
604.00,0.0973
601.00,0.0988
598.00,0.1003
595.00,0.1017
592.00,0.1036
589.00,0.1057
586.00,0.1076
583.00,0.1097
580.00,0.1119
577.00,0.1143
574.00,0.1165
571.00,0.1182
568.00,0.1205
565.00,0.1232
562.00,0.1249
559.00,0.1263
556.00,0.1283
553.00,0.1297
550.00,0.1308
547.00,0.1316
544.00,0.1327
541.00,0.1332
538.00,0.1336
535.00,0.1332
532.00,0.1334
529.00,0.1340
526.00,0.1343
523.00,0.1351
520.00,0.1363
517.00,0.1392
514.00,0.1429
511.00,0.1476
508.00,0.1545
505.00,0.1627
502.00,0.1721
499.00,0.1850
496.00,0.2012
493.00,0.2220
490.00,0.2475
487.00,0.2760
484.00,0.3094
481.00,0.3451
478.00,0.3817
475.00,0.4185
472.00,0.4537
469.00,0.4839
466.00,0.5078
463.00,0.5264
460.00,0.5396
457.00,0.5421
454.00,0.5377
451.00,0.5287
448.00,0.5163
445.00,0.4969
442.00,0.4760
439.00,0.4510
436.00,0.4247
433.00,0.3984
430.00,0.3737
427.00,0.3491
424.00,0.3251
421.00,0.3077
418.00,0.2989
415.00,0.3065
412.00,0.3302
409.00,0.3612
406.00,0.4001
403.00,0.4309
400.00,0.4543