File: FTIR/Olivia/2025_06_05_CBD_Powder_scan3.csv
Created as New Dataset,Sample 584 By YargerLab Date Thursday, June 05 2025
cm-1,A
4000.00,0.0082
3997.00,0.0081
3994.00,0.0081
3991.00,0.0081
3988.00,0.0081
3985.00,0.0081
3982.00,0.0081
3979.00,0.0081
3976.00,0.0081
3973.00,0.0081
3970.00,0.0082
3967.00,0.0082
3964.00,0.0082
3961.00,0.0082
3958.00,0.0083
3955.00,0.0083
3952.00,0.0083
3949.00,0.0083
3946.00,0.0083
3943.00,0.0082
3940.00,0.0082
3937.00,0.0082
3934.00,0.0082
3931.00,0.0082
3928.00,0.0083
3925.00,0.0084
3922.00,0.0084
3919.00,0.0083
3916.00,0.0083
3913.00,0.0083
3910.00,0.0082
3907.00,0.0082
3904.00,0.0081
3901.00,0.0080
3898.00,0.0080
3895.00,0.0080
3892.00,0.0080
3889.00,0.0080
3886.00,0.0080
3883.00,0.0079
3880.00,0.0079
3877.00,0.0079
3874.00,0.0079
3871.00,0.0078
3868.00,0.0079
3865.00,0.0078
3862.00,0.0079
3859.00,0.0079
3856.00,0.0079
3853.00,0.0078
3850.00,0.0078
3847.00,0.0078
3844.00,0.0079
3841.00,0.0078
3838.00,0.0077
3835.00,0.0077
3832.00,0.0076
3829.00,0.0077
3826.00,0.0077
3823.00,0.0078
3820.00,0.0077
3817.00,0.0076
3814.00,0.0076
3811.00,0.0076
3808.00,0.0076
3805.00,0.0076
3802.00,0.0076
3799.00,0.0076
3796.00,0.0076
3793.00,0.0076
3790.00,0.0076
3787.00,0.0076
3784.00,0.0076
3781.00,0.0077
3778.00,0.0077
3775.00,0.0076
3772.00,0.0076
3769.00,0.0076
3766.00,0.0075
3763.00,0.0075
3760.00,0.0075
3757.00,0.0075
3754.00,0.0075
3751.00,0.0075
3748.00,0.0074
3745.00,0.0073
3742.00,0.0074
3739.00,0.0073
3736.00,0.0073
3733.00,0.0072
3730.00,0.0072
3727.00,0.0072
3724.00,0.0072
3721.00,0.0071
3718.00,0.0071
3715.00,0.0072
3712.00,0.0072
3709.00,0.0072
3706.00,0.0071
3703.00,0.0071
3700.00,0.0071
3697.00,0.0071
3694.00,0.0071
3691.00,0.0070
3688.00,0.0069
3685.00,0.0070
3682.00,0.0069
3679.00,0.0069
3676.00,0.0068
3673.00,0.0067
3670.00,0.0066
3667.00,0.0067
3664.00,0.0067
3661.00,0.0066
3658.00,0.0066
3655.00,0.0065
3652.00,0.0065
3649.00,0.0065
3646.00,0.0066
3643.00,0.0066
3640.00,0.0066
3637.00,0.0066
3634.00,0.0067
3631.00,0.0067
3628.00,0.0067
3625.00,0.0068
3622.00,0.0068
3619.00,0.0069
3616.00,0.0070
3613.00,0.0070
3610.00,0.0070
3607.00,0.0070
3604.00,0.0070
3601.00,0.0070
3598.00,0.0071
3595.00,0.0071
3592.00,0.0072
3589.00,0.0072
3586.00,0.0073
3583.00,0.0074
3580.00,0.0076
3577.00,0.0077
3574.00,0.0078
3571.00,0.0079
3568.00,0.0081
3565.00,0.0084
3562.00,0.0086
3559.00,0.0090
3556.00,0.0094
3553.00,0.0099
3550.00,0.0106
3547.00,0.0115
3544.00,0.0128
3541.00,0.0144
3538.00,0.0166
3535.00,0.0200
3532.00,0.0252
3529.00,0.0335
3526.00,0.0444
3523.00,0.0539
3520.00,0.0573
3517.00,0.0541
3514.00,0.0470
3511.00,0.0394
3508.00,0.0335
3505.00,0.0298
3502.00,0.0277
3499.00,0.0267
3496.00,0.0265
3493.00,0.0267
3490.00,0.0272
3487.00,0.0279
3484.00,0.0289
3481.00,0.0302
3478.00,0.0316
3475.00,0.0334
3472.00,0.0352
3469.00,0.0373
3466.00,0.0395
3463.00,0.0419
3460.00,0.0444
3457.00,0.0468
3454.00,0.0493
3451.00,0.0517
3448.00,0.0540
3445.00,0.0563
3442.00,0.0585
3439.00,0.0608
3436.00,0.0630
3433.00,0.0649
3430.00,0.0670
3427.00,0.0691
3424.00,0.0715
3421.00,0.0746
3418.00,0.0783
3415.00,0.0824
3412.00,0.0860
3409.00,0.0878
3406.00,0.0872
3403.00,0.0837
3400.00,0.0775
3397.00,0.0697
3394.00,0.0621
3391.00,0.0551
3388.00,0.0492
3385.00,0.0445
3382.00,0.0408
3379.00,0.0376
3376.00,0.0349
3373.00,0.0325
3370.00,0.0304
3367.00,0.0285
3364.00,0.0268
3361.00,0.0252
3358.00,0.0239
3355.00,0.0226
3352.00,0.0216
3349.00,0.0206
3346.00,0.0196
3343.00,0.0188
3340.00,0.0181
3337.00,0.0174
3334.00,0.0169
3331.00,0.0163
3328.00,0.0158
3325.00,0.0153
3322.00,0.0149
3319.00,0.0145
3316.00,0.0141
3313.00,0.0138
3310.00,0.0135
3307.00,0.0132
3304.00,0.0128
3301.00,0.0126
3298.00,0.0123
3295.00,0.0119
3292.00,0.0117
3289.00,0.0116
3286.00,0.0114
3283.00,0.0111
3280.00,0.0108
3277.00,0.0107
3274.00,0.0105
3271.00,0.0104
3268.00,0.0104
3265.00,0.0104
3262.00,0.0104
3259.00,0.0102
3256.00,0.0101
3253.00,0.0101
3250.00,0.0101
3247.00,0.0099
3244.00,0.0100
3241.00,0.0099
3238.00,0.0097
3235.00,0.0095
3232.00,0.0094
3229.00,0.0095
3226.00,0.0094
3223.00,0.0094
3220.00,0.0093
3217.00,0.0092
3214.00,0.0092
3211.00,0.0092
3208.00,0.0092
3205.00,0.0092
3202.00,0.0092
3199.00,0.0091
3196.00,0.0091
3193.00,0.0090
3190.00,0.0090
3187.00,0.0090
3184.00,0.0091
3181.00,0.0091
3178.00,0.0091
3175.00,0.0093
3172.00,0.0093
3169.00,0.0093
3166.00,0.0094
3163.00,0.0094
3160.00,0.0094
3157.00,0.0093
3154.00,0.0090
3151.00,0.0090
3148.00,0.0090
3145.00,0.0090
3142.00,0.0089
3139.00,0.0089
3136.00,0.0090
3133.00,0.0090
3130.00,0.0090
3127.00,0.0089
3124.00,0.0089
3121.00,0.0089
3118.00,0.0089
3115.00,0.0089
3112.00,0.0089
3109.00,0.0089
3106.00,0.0089
3103.00,0.0090
3100.00,0.0090
3097.00,0.0091
3094.00,0.0092
3091.00,0.0093
3088.00,0.0096
3085.00,0.0102
3082.00,0.0115
3079.00,0.0147
3076.00,0.0188
3073.00,0.0190
3070.00,0.0153
3067.00,0.0124
3064.00,0.0112
3061.00,0.0105
3058.00,0.0102
3055.00,0.0101
3052.00,0.0101
3049.00,0.0102
3046.00,0.0106
3043.00,0.0111
3040.00,0.0115
3037.00,0.0121
3034.00,0.0128
3031.00,0.0129
3028.00,0.0124
3025.00,0.0116
3022.00,0.0112
3019.00,0.0110
3016.00,0.0110
3013.00,0.0111
3010.00,0.0113
3007.00,0.0114
3004.00,0.0114
3001.00,0.0116
2998.00,0.0119
2995.00,0.0124
2992.00,0.0133
2989.00,0.0144
2986.00,0.0148
2983.00,0.0150
2980.00,0.0170
2977.00,0.0217
2974.00,0.0285
2971.00,0.0371
2968.00,0.0454
2965.00,0.0493
2962.00,0.0494
2959.00,0.0475
2956.00,0.0434
2953.00,0.0393
2950.00,0.0378
2947.00,0.0410
2944.00,0.0486
2941.00,0.0559
2938.00,0.0620
2935.00,0.0696
2932.00,0.0789
2929.00,0.0888
2926.00,0.0962
2923.00,0.0969
2920.00,0.0942
2917.00,0.0917
2914.00,0.0876
2911.00,0.0799
2908.00,0.0708
2905.00,0.0632
2902.00,0.0581
2899.00,0.0539
2896.00,0.0486
2893.00,0.0437
2890.00,0.0407
2887.00,0.0393
2884.00,0.0388
2881.00,0.0391
2878.00,0.0405
2875.00,0.0428
2872.00,0.0447
2869.00,0.0441
2866.00,0.0432
2863.00,0.0471
2860.00,0.0579
2857.00,0.0703
2854.00,0.0699
2851.00,0.0572
2848.00,0.0439
2845.00,0.0345
2842.00,0.0289
2839.00,0.0264
2836.00,0.0274
2833.00,0.0330
2830.00,0.0393
2827.00,0.0363
2824.00,0.0275
2821.00,0.0214
2818.00,0.0184
2815.00,0.0167
2812.00,0.0156
2809.00,0.0149
2806.00,0.0143
2803.00,0.0138
2800.00,0.0133
2797.00,0.0129
2794.00,0.0125
2791.00,0.0122
2788.00,0.0120
2785.00,0.0117
2782.00,0.0115
2779.00,0.0112
2776.00,0.0110
2773.00,0.0109
2770.00,0.0108
2767.00,0.0107
2764.00,0.0105
2761.00,0.0104
2758.00,0.0103
2755.00,0.0103
2752.00,0.0103
2749.00,0.0103
2746.00,0.0104
2743.00,0.0105
2740.00,0.0106
2737.00,0.0109
2734.00,0.0114
2731.00,0.0120
2728.00,0.0123
2725.00,0.0117
2722.00,0.0111
2719.00,0.0107
2716.00,0.0104
2713.00,0.0102
2710.00,0.0100
2707.00,0.0099
2704.00,0.0098
2701.00,0.0097
2698.00,0.0096
2695.00,0.0096
2692.00,0.0096
2689.00,0.0096
2686.00,0.0097
2683.00,0.0098
2680.00,0.0099
2677.00,0.0101
2674.00,0.0102
2671.00,0.0103
2668.00,0.0104
2665.00,0.0105
2662.00,0.0105
2659.00,0.0104
2656.00,0.0104
2653.00,0.0103
2650.00,0.0102
2647.00,0.0101
2644.00,0.0100
2641.00,0.0099
2638.00,0.0098
2635.00,0.0098
2632.00,0.0098
2629.00,0.0098
2626.00,0.0098
2623.00,0.0098
2620.00,0.0097
2617.00,0.0097
2614.00,0.0097
2611.00,0.0096
2608.00,0.0095
2605.00,0.0095
2602.00,0.0095
2599.00,0.0095
2596.00,0.0094
2593.00,0.0094
2590.00,0.0094
2587.00,0.0093
2584.00,0.0093
2581.00,0.0093
2578.00,0.0093
2575.00,0.0093
2572.00,0.0092
2569.00,0.0092
2566.00,0.0092
2563.00,0.0093
2560.00,0.0093
2557.00,0.0092
2554.00,0.0091
2551.00,0.0091
2548.00,0.0090
2545.00,0.0090
2542.00,0.0089
2539.00,0.0089
2536.00,0.0090
2533.00,0.0090
2530.00,0.0089
2527.00,0.0089
2524.00,0.0088
2521.00,0.0088
2518.00,0.0089
2515.00,0.0088
2512.00,0.0089
2509.00,0.0090
2506.00,0.0088
2503.00,0.0088
2500.00,0.0089
2497.00,0.0089
2494.00,0.0089
2491.00,0.0089
2488.00,0.0088
2485.00,0.0089
2482.00,0.0090
2479.00,0.0090
2476.00,0.0090
2473.00,0.0091
2470.00,0.0090
2467.00,0.0089
2464.00,0.0090
2461.00,0.0092
2458.00,0.0092
2455.00,0.0092
2452.00,0.0092
2449.00,0.0092
2446.00,0.0090
2443.00,0.0088
2440.00,0.0086
2437.00,0.0085
2434.00,0.0083
2431.00,0.0082
2428.00,0.0081
2425.00,0.0080
2422.00,0.0079
2419.00,0.0079
2416.00,0.0078
2413.00,0.0078
2410.00,0.0078
2407.00,0.0076
2404.00,0.0076
2401.00,0.0076
2398.00,0.0076
2395.00,0.0077
2392.00,0.0077
2389.00,0.0076
2386.00,0.0075
2383.00,0.0073
2380.00,0.0072
2377.00,0.0071
2374.00,0.0071
2371.00,0.0072
2368.00,0.0071
2365.00,0.0071
2362.00,0.0071
2359.00,0.0071
2356.00,0.0072
2353.00,0.0073
2350.00,0.0071
2347.00,0.0073
2344.00,0.0073
2341.00,0.0072
2338.00,0.0074
2335.00,0.0074
2332.00,0.0073
2329.00,0.0074
2326.00,0.0083
2323.00,0.0081
2320.00,0.0076
2317.00,0.0075
2314.00,0.0074
2311.00,0.0072
2308.00,0.0070
2305.00,0.0070
2302.00,0.0072
2299.00,0.0072
2296.00,0.0075
2293.00,0.0078
2290.00,0.0081
2287.00,0.0082
2284.00,0.0080
2281.00,0.0079
2278.00,0.0078
2275.00,0.0077
2272.00,0.0077
2269.00,0.0075
2266.00,0.0074
2263.00,0.0074
2260.00,0.0075
2257.00,0.0074
2254.00,0.0072
2251.00,0.0074
2248.00,0.0073
2245.00,0.0073
2242.00,0.0073
2239.00,0.0075
2236.00,0.0073
2233.00,0.0072
2230.00,0.0074
2227.00,0.0073
2224.00,0.0074
2221.00,0.0071
2218.00,0.0070
2215.00,0.0072
2212.00,0.0072
2209.00,0.0071
2206.00,0.0070
2203.00,0.0072
2200.00,0.0070
2197.00,0.0068
2194.00,0.0070
2191.00,0.0071
2188.00,0.0070
2185.00,0.0071
2182.00,0.0068
2179.00,0.0068
2176.00,0.0064
2173.00,0.0066
2170.00,0.0074
2167.00,0.0078
2164.00,0.0079
2161.00,0.0064
2158.00,0.0032
2155.00,0.0038
2152.00,0.0046
2149.00,0.0049
2146.00,0.0046
2143.00,0.0050
2140.00,0.0053
2137.00,0.0046
2134.00,0.0043
2131.00,0.0047
2128.00,0.0052
2125.00,0.0055
2122.00,0.0059
2119.00,0.0061
2116.00,0.0063
2113.00,0.0062
2110.00,0.0063
2107.00,0.0062
2104.00,0.0062
2101.00,0.0061
2098.00,0.0060
2095.00,0.0057
2092.00,0.0058
2089.00,0.0059
2086.00,0.0062
2083.00,0.0064
2080.00,0.0062
2077.00,0.0063
2074.00,0.0063
2071.00,0.0061
2068.00,0.0057
2065.00,0.0055
2062.00,0.0056
2059.00,0.0056
2056.00,0.0059
2053.00,0.0064
2050.00,0.0063
2047.00,0.0054
2044.00,0.0053
2041.00,0.0050
2038.00,0.0048
2035.00,0.0044
2032.00,0.0042
2029.00,0.0040
2026.00,0.0041
2023.00,0.0046
2020.00,0.0046
2017.00,0.0048
2014.00,0.0051
2011.00,0.0052
2008.00,0.0043
2005.00,0.0036
2002.00,0.0041
1999.00,0.0046
1996.00,0.0048
1993.00,0.0053
1990.00,0.0056
1987.00,0.0058
1984.00,0.0063
1981.00,0.0068
1978.00,0.0052
1975.00,0.0042
1972.00,0.0044
1969.00,0.0044
1966.00,0.0044
1963.00,0.0044
1960.00,0.0043
1957.00,0.0046
1954.00,0.0048
1951.00,0.0047
1948.00,0.0046
1945.00,0.0049
1942.00,0.0050
1939.00,0.0049
1936.00,0.0050
1933.00,0.0050
1930.00,0.0050
1927.00,0.0051
1924.00,0.0052
1921.00,0.0054
1918.00,0.0054
1915.00,0.0054
1912.00,0.0056
1909.00,0.0056
1906.00,0.0056
1903.00,0.0058
1900.00,0.0058
1897.00,0.0058
1894.00,0.0058
1891.00,0.0058
1888.00,0.0058
1885.00,0.0059
1882.00,0.0059
1879.00,0.0059
1876.00,0.0060
1873.00,0.0059
1870.00,0.0059
1867.00,0.0059
1864.00,0.0059
1861.00,0.0059
1858.00,0.0058
1855.00,0.0059
1852.00,0.0059
1849.00,0.0059
1846.00,0.0058
1843.00,0.0058
1840.00,0.0060
1837.00,0.0061
1834.00,0.0061
1831.00,0.0061
1828.00,0.0061
1825.00,0.0062
1822.00,0.0063
1819.00,0.0062
1816.00,0.0062
1813.00,0.0064
1810.00,0.0067
1807.00,0.0072
1804.00,0.0074
1801.00,0.0075
1798.00,0.0075
1795.00,0.0072
1792.00,0.0069
1789.00,0.0069
1786.00,0.0069
1783.00,0.0069
1780.00,0.0070
1777.00,0.0072
1774.00,0.0077
1771.00,0.0079
1768.00,0.0076
1765.00,0.0072
1762.00,0.0069
1759.00,0.0069
1756.00,0.0068
1753.00,0.0067
1750.00,0.0066
1747.00,0.0066
1744.00,0.0066
1741.00,0.0067
1738.00,0.0068
1735.00,0.0068
1732.00,0.0067
1729.00,0.0068
1726.00,0.0068
1723.00,0.0070
1720.00,0.0070
1717.00,0.0072
1714.00,0.0075
1711.00,0.0078
1708.00,0.0080
1705.00,0.0083
1702.00,0.0084
1699.00,0.0085
1696.00,0.0087
1693.00,0.0087
1690.00,0.0086
1687.00,0.0085
1684.00,0.0084
1681.00,0.0085
1678.00,0.0087
1675.00,0.0090
1672.00,0.0093
1669.00,0.0101
1666.00,0.0112
1663.00,0.0124
1660.00,0.0128
1657.00,0.0128
1654.00,0.0142
1651.00,0.0186
1648.00,0.0260
1645.00,0.0447
1642.00,0.0477
1639.00,0.0426
1636.00,0.0512
1633.00,0.0688
1630.00,0.0775
1627.00,0.0859
1624.00,0.0990
1621.00,0.0955
1618.00,0.0722
1615.00,0.0476
1612.00,0.0366
1609.00,0.0294
1606.00,0.0253
1603.00,0.0235
1600.00,0.0240
1597.00,0.0268
1594.00,0.0340
1591.00,0.0505
1588.00,0.0775
1585.00,0.1029
1582.00,0.1176
1579.00,0.1093
1576.00,0.0810
1573.00,0.0584
1570.00,0.0433
1567.00,0.0317
1564.00,0.0248
1561.00,0.0212
1558.00,0.0181
1555.00,0.0168
1552.00,0.0157
1549.00,0.0147
1546.00,0.0139
1543.00,0.0133
1540.00,0.0131
1537.00,0.0132
1534.00,0.0132
1531.00,0.0133
1528.00,0.0137
1525.00,0.0147
1522.00,0.0177
1519.00,0.0238
1516.00,0.0302
1513.00,0.0316
1510.00,0.0272
1507.00,0.0223
1504.00,0.0201
1501.00,0.0190
1498.00,0.0173
1495.00,0.0154
1492.00,0.0140
1489.00,0.0129
1486.00,0.0127
1483.00,0.0128
1480.00,0.0132
1477.00,0.0141
1474.00,0.0162
1471.00,0.0234
1468.00,0.0346
1465.00,0.0418
1462.00,0.0459
1459.00,0.0497
1456.00,0.0571
1453.00,0.0696
1450.00,0.0926
1447.00,0.1240
1444.00,0.1423
1441.00,0.1419
1438.00,0.1332
1435.00,0.1190
1432.00,0.1037
1429.00,0.0808
1426.00,0.0550
1423.00,0.0370
1420.00,0.0282
1417.00,0.0229
1414.00,0.0203
1411.00,0.0184
1408.00,0.0172
1405.00,0.0165
1402.00,0.0159
1399.00,0.0151
1396.00,0.0146
1393.00,0.0142
1390.00,0.0143
1387.00,0.0153
1384.00,0.0189
1381.00,0.0282
1378.00,0.0465
1375.00,0.0603
1372.00,0.0530
1369.00,0.0426
1366.00,0.0356
1363.00,0.0301
1360.00,0.0266
1357.00,0.0254
1354.00,0.0256
1351.00,0.0263
1348.00,0.0281
1345.00,0.0311
1342.00,0.0330
1339.00,0.0310
1336.00,0.0281
1333.00,0.0294
1330.00,0.0335
1327.00,0.0374
1324.00,0.0403
1321.00,0.0378
1318.00,0.0362
1315.00,0.0462
1312.00,0.0596
1309.00,0.0592
1306.00,0.0558
1303.00,0.0598
1300.00,0.0616
1297.00,0.0584
1294.00,0.0529
1291.00,0.0474
1288.00,0.0449
1285.00,0.0493
1282.00,0.0569
1279.00,0.0611
1276.00,0.0585
1273.00,0.0501
1270.00,0.0387
1267.00,0.0291
1264.00,0.0235
1261.00,0.0204
1258.00,0.0188
1255.00,0.0186
1252.00,0.0209
1249.00,0.0256
1246.00,0.0285
1243.00,0.0361
1240.00,0.0549
1237.00,0.0717
1234.00,0.0721
1231.00,0.0645
1228.00,0.0642
1225.00,0.0805
1222.00,0.1028
1219.00,0.1359
1216.00,0.1734
1213.00,0.1758
1210.00,0.1437
1207.00,0.1120
1204.00,0.0895
1201.00,0.0679
1198.00,0.0506
1195.00,0.0415
1192.00,0.0393
1189.00,0.0416
1186.00,0.0451
1183.00,0.0492
1180.00,0.0518
1177.00,0.0538
1174.00,0.0580
1171.00,0.0596
1168.00,0.0428
1165.00,0.0297
1162.00,0.0242
1159.00,0.0232
1156.00,0.0282
1153.00,0.0485
1150.00,0.0664
1147.00,0.0443
1144.00,0.0262
1141.00,0.0213
1138.00,0.0219
1135.00,0.0239
1132.00,0.0222
1129.00,0.0185
1126.00,0.0161
1123.00,0.0149
1120.00,0.0146
1117.00,0.0150
1114.00,0.0160
1111.00,0.0170
1108.00,0.0192
1105.00,0.0227
1102.00,0.0275
1099.00,0.0319
1096.00,0.0284
1093.00,0.0225
1090.00,0.0196
1087.00,0.0188
1084.00,0.0222
1081.00,0.0297
1078.00,0.0311
1075.00,0.0252
1072.00,0.0213
1069.00,0.0195
1066.00,0.0192
1063.00,0.0205
1060.00,0.0249
1057.00,0.0377
1054.00,0.0633
1051.00,0.0762
1048.00,0.0648
1045.00,0.0461
1042.00,0.0413
1039.00,0.0461
1036.00,0.0606
1033.00,0.0841
1030.00,0.0845
1027.00,0.0689
1024.00,0.0717
1021.00,0.0970
1018.00,0.1075
1015.00,0.0868
1012.00,0.0663
1009.00,0.0584
1006.00,0.0623
1003.00,0.0720
1000.00,0.0697
997.00,0.0522
994.00,0.0388
991.00,0.0361
988.00,0.0402
985.00,0.0432
982.00,0.0389
979.00,0.0326
976.00,0.0300
973.00,0.0284
970.00,0.0303
967.00,0.0353
964.00,0.0426
961.00,0.0483
958.00,0.0398
955.00,0.0283
952.00,0.0225
949.00,0.0202
946.00,0.0190
943.00,0.0183
940.00,0.0178
937.00,0.0176
934.00,0.0183
931.00,0.0201
928.00,0.0214
925.00,0.0215
922.00,0.0214
919.00,0.0230
916.00,0.0265
913.00,0.0271
910.00,0.0269
907.00,0.0319
904.00,0.0430
901.00,0.0627
898.00,0.0991
895.00,0.1110
892.00,0.0834
889.00,0.0696
886.00,0.0956
883.00,0.1292
880.00,0.0975
877.00,0.0611
874.00,0.0500
871.00,0.0547
868.00,0.0559
865.00,0.0559
862.00,0.0685
859.00,0.0692
856.00,0.0699
853.00,0.0769
850.00,0.0798
847.00,0.0713
844.00,0.0643
841.00,0.0595
838.00,0.0566
835.00,0.0605
832.00,0.0689
829.00,0.0760
826.00,0.0741
823.00,0.0603
820.00,0.0453
817.00,0.0353
814.00,0.0312
811.00,0.0298
808.00,0.0390
805.00,0.0623
802.00,0.0573
799.00,0.0393
796.00,0.0309
793.00,0.0289
790.00,0.0281
787.00,0.0277
784.00,0.0271
781.00,0.0245
778.00,0.0241
775.00,0.0236
772.00,0.0235
769.00,0.0234
766.00,0.0208
763.00,0.0186
760.00,0.0180
757.00,0.0192
754.00,0.0243
751.00,0.0301
748.00,0.0313
745.00,0.0253
742.00,0.0203
739.00,0.0188
736.00,0.0203
733.00,0.0255
730.00,0.0289
727.00,0.0242
724.00,0.0222
721.00,0.0213
718.00,0.0204
715.00,0.0180
712.00,0.0172
709.00,0.0166
706.00,0.0150
703.00,0.0145
700.00,0.0143
697.00,0.0143
694.00,0.0142
691.00,0.0142
688.00,0.0145
685.00,0.0151
682.00,0.0158
679.00,0.0168
676.00,0.0184
673.00,0.0215
670.00,0.0263
667.00,0.0304
664.00,0.0314
661.00,0.0321
658.00,0.0321
655.00,0.0306
652.00,0.0314
649.00,0.0344
646.00,0.0318
643.00,0.0268
640.00,0.0240
637.00,0.0238
634.00,0.0246
631.00,0.0261
628.00,0.0284
625.00,0.0307
622.00,0.0309
619.00,0.0269
616.00,0.0241
613.00,0.0307
610.00,0.0365
607.00,0.0347
604.00,0.0366
601.00,0.0396
598.00,0.0430
595.00,0.0427
592.00,0.0468
589.00,0.0558
586.00,0.0606
583.00,0.0553
580.00,0.0471
577.00,0.0422
574.00,0.0418
571.00,0.0441
568.00,0.0462
565.00,0.0476
562.00,0.0478
559.00,0.0480
556.00,0.0480
553.00,0.0501
550.00,0.0556
547.00,0.0591
544.00,0.0636
541.00,0.0652
538.00,0.0745
535.00,0.0820
532.00,0.0777
529.00,0.0751
526.00,0.0849
523.00,0.1022
520.00,0.0987
517.00,0.0737
514.00,0.0627
511.00,0.0618
508.00,0.0675
505.00,0.0778
502.00,0.0905
499.00,0.1020
496.00,0.1095
493.00,0.1104
490.00,0.1078
487.00,0.1062
484.00,0.1057
481.00,0.1003
478.00,0.0925
475.00,0.0898
472.00,0.0934
469.00,0.0989
466.00,0.1023
463.00,0.1021
460.00,0.1005
457.00,0.0992
454.00,0.0988
451.00,0.0962
448.00,0.0911
445.00,0.0856
442.00,0.0808
439.00,0.0790
436.00,0.0794
433.00,0.0790
430.00,0.0827
427.00,0.0956
424.00,0.1045
421.00,0.1015
418.00,0.0972
415.00,0.0961
412.00,0.1012
409.00,0.1083
406.00,0.1160
403.00,0.1213
400.00,0.1265