File: FTIR/Olivia/2025_08_01_1CBN_3PVP29_mortar_dry_scan2.csv
Created as New Dataset,Sample 1021 By YargerLab Date Friday, August 01 2025
cm-1,A
4000.00,0.0065
3997.00,0.0065
3994.00,0.0065
3991.00,0.0065
3988.00,0.0065
3985.00,0.0065
3982.00,0.0065
3979.00,0.0065
3976.00,0.0066
3973.00,0.0066
3970.00,0.0066
3967.00,0.0065
3964.00,0.0065
3961.00,0.0065
3958.00,0.0065
3955.00,0.0065
3952.00,0.0065
3949.00,0.0065
3946.00,0.0065
3943.00,0.0065
3940.00,0.0064
3937.00,0.0064
3934.00,0.0064
3931.00,0.0065
3928.00,0.0064
3925.00,0.0064
3922.00,0.0065
3919.00,0.0065
3916.00,0.0065
3913.00,0.0065
3910.00,0.0065
3907.00,0.0065
3904.00,0.0065
3901.00,0.0065
3898.00,0.0064
3895.00,0.0064
3892.00,0.0064
3889.00,0.0064
3886.00,0.0064
3883.00,0.0064
3880.00,0.0064
3877.00,0.0064
3874.00,0.0064
3871.00,0.0064
3868.00,0.0064
3865.00,0.0064
3862.00,0.0064
3859.00,0.0065
3856.00,0.0064
3853.00,0.0064
3850.00,0.0063
3847.00,0.0064
3844.00,0.0064
3841.00,0.0064
3838.00,0.0064
3835.00,0.0063
3832.00,0.0063
3829.00,0.0063
3826.00,0.0063
3823.00,0.0063
3820.00,0.0063
3817.00,0.0063
3814.00,0.0063
3811.00,0.0063
3808.00,0.0063
3805.00,0.0063
3802.00,0.0063
3799.00,0.0063
3796.00,0.0063
3793.00,0.0063
3790.00,0.0063
3787.00,0.0063
3784.00,0.0063
3781.00,0.0063
3778.00,0.0063
3775.00,0.0063
3772.00,0.0063
3769.00,0.0064
3766.00,0.0064
3763.00,0.0063
3760.00,0.0063
3757.00,0.0063
3754.00,0.0063
3751.00,0.0064
3748.00,0.0063
3745.00,0.0063
3742.00,0.0063
3739.00,0.0063
3736.00,0.0063
3733.00,0.0062
3730.00,0.0062
3727.00,0.0062
3724.00,0.0063
3721.00,0.0062
3718.00,0.0062
3715.00,0.0062
3712.00,0.0062
3709.00,0.0062
3706.00,0.0061
3703.00,0.0061
3700.00,0.0061
3697.00,0.0061
3694.00,0.0062
3691.00,0.0062
3688.00,0.0061
3685.00,0.0061
3682.00,0.0062
3679.00,0.0062
3676.00,0.0063
3673.00,0.0062
3670.00,0.0063
3667.00,0.0063
3664.00,0.0064
3661.00,0.0064
3658.00,0.0064
3655.00,0.0065
3652.00,0.0066
3649.00,0.0067
3646.00,0.0067
3643.00,0.0067
3640.00,0.0068
3637.00,0.0069
3634.00,0.0071
3631.00,0.0071
3628.00,0.0071
3625.00,0.0072
3622.00,0.0074
3619.00,0.0076
3616.00,0.0078
3613.00,0.0078
3610.00,0.0079
3607.00,0.0080
3604.00,0.0081
3601.00,0.0083
3598.00,0.0084
3595.00,0.0086
3592.00,0.0087
3589.00,0.0089
3586.00,0.0090
3583.00,0.0091
3580.00,0.0093
3577.00,0.0094
3574.00,0.0096
3571.00,0.0099
3568.00,0.0102
3565.00,0.0104
3562.00,0.0105
3559.00,0.0107
3556.00,0.0110
3553.00,0.0112
3550.00,0.0114
3547.00,0.0116
3544.00,0.0119
3541.00,0.0121
3538.00,0.0123
3535.00,0.0126
3532.00,0.0128
3529.00,0.0130
3526.00,0.0133
3523.00,0.0135
3520.00,0.0137
3517.00,0.0140
3514.00,0.0142
3511.00,0.0144
3508.00,0.0146
3505.00,0.0149
3502.00,0.0151
3499.00,0.0154
3496.00,0.0156
3493.00,0.0159
3490.00,0.0162
3487.00,0.0165
3484.00,0.0169
3481.00,0.0173
3478.00,0.0176
3475.00,0.0180
3472.00,0.0185
3469.00,0.0189
3466.00,0.0194
3463.00,0.0198
3460.00,0.0203
3457.00,0.0208
3454.00,0.0213
3451.00,0.0218
3448.00,0.0224
3445.00,0.0230
3442.00,0.0235
3439.00,0.0241
3436.00,0.0249
3433.00,0.0256
3430.00,0.0264
3427.00,0.0272
3424.00,0.0281
3421.00,0.0290
3418.00,0.0298
3415.00,0.0307
3412.00,0.0315
3409.00,0.0321
3406.00,0.0327
3403.00,0.0331
3400.00,0.0333
3397.00,0.0333
3394.00,0.0332
3391.00,0.0329
3388.00,0.0324
3385.00,0.0320
3382.00,0.0315
3379.00,0.0309
3376.00,0.0303
3373.00,0.0297
3370.00,0.0292
3367.00,0.0286
3364.00,0.0281
3361.00,0.0276
3358.00,0.0272
3355.00,0.0268
3352.00,0.0265
3349.00,0.0262
3346.00,0.0259
3343.00,0.0256
3340.00,0.0255
3337.00,0.0253
3334.00,0.0252
3331.00,0.0251
3328.00,0.0251
3325.00,0.0251
3322.00,0.0252
3319.00,0.0252
3316.00,0.0253
3313.00,0.0255
3310.00,0.0256
3307.00,0.0257
3304.00,0.0260
3301.00,0.0262
3298.00,0.0265
3295.00,0.0267
3292.00,0.0269
3289.00,0.0273
3286.00,0.0276
3283.00,0.0279
3280.00,0.0281
3277.00,0.0284
3274.00,0.0286
3271.00,0.0288
3268.00,0.0291
3265.00,0.0294
3262.00,0.0297
3259.00,0.0300
3256.00,0.0302
3253.00,0.0304
3250.00,0.0306
3247.00,0.0308
3244.00,0.0309
3241.00,0.0310
3238.00,0.0311
3235.00,0.0309
3232.00,0.0309
3229.00,0.0309
3226.00,0.0308
3223.00,0.0306
3220.00,0.0304
3217.00,0.0300
3214.00,0.0297
3211.00,0.0294
3208.00,0.0288
3205.00,0.0284
3202.00,0.0279
3199.00,0.0274
3196.00,0.0268
3193.00,0.0263
3190.00,0.0257
3187.00,0.0252
3184.00,0.0246
3181.00,0.0240
3178.00,0.0235
3175.00,0.0229
3172.00,0.0223
3169.00,0.0218
3166.00,0.0213
3163.00,0.0206
3160.00,0.0200
3157.00,0.0195
3154.00,0.0189
3151.00,0.0184
3148.00,0.0180
3145.00,0.0176
3142.00,0.0171
3139.00,0.0167
3136.00,0.0163
3133.00,0.0159
3130.00,0.0155
3127.00,0.0153
3124.00,0.0150
3121.00,0.0147
3118.00,0.0144
3115.00,0.0141
3112.00,0.0137
3109.00,0.0134
3106.00,0.0132
3103.00,0.0129
3100.00,0.0126
3097.00,0.0125
3094.00,0.0124
3091.00,0.0125
3088.00,0.0125
3085.00,0.0126
3082.00,0.0125
3079.00,0.0124
3076.00,0.0122
3073.00,0.0120
3070.00,0.0119
3067.00,0.0118
3064.00,0.0118
3061.00,0.0118
3058.00,0.0119
3055.00,0.0119
3052.00,0.0119
3049.00,0.0118
3046.00,0.0117
3043.00,0.0118
3040.00,0.0119
3037.00,0.0122
3034.00,0.0125
3031.00,0.0125
3028.00,0.0123
3025.00,0.0119
3022.00,0.0115
3019.00,0.0113
3016.00,0.0111
3013.00,0.0111
3010.00,0.0114
3007.00,0.0118
3004.00,0.0125
3001.00,0.0135
2998.00,0.0148
2995.00,0.0165
2992.00,0.0179
2989.00,0.0188
2986.00,0.0199
2983.00,0.0220
2980.00,0.0250
2977.00,0.0266
2974.00,0.0280
2971.00,0.0315
2968.00,0.0340
2965.00,0.0354
2962.00,0.0373
2959.00,0.0380
2956.00,0.0357
2953.00,0.0323
2950.00,0.0300
2947.00,0.0295
2944.00,0.0308
2941.00,0.0333
2938.00,0.0372
2935.00,0.0431
2932.00,0.0502
2929.00,0.0563
2926.00,0.0584
2923.00,0.0560
2920.00,0.0513
2917.00,0.0462
2914.00,0.0415
2911.00,0.0378
2908.00,0.0349
2905.00,0.0325
2902.00,0.0304
2899.00,0.0286
2896.00,0.0270
2893.00,0.0258
2890.00,0.0248
2887.00,0.0239
2884.00,0.0233
2881.00,0.0235
2878.00,0.0249
2875.00,0.0274
2872.00,0.0289
2869.00,0.0287
2866.00,0.0286
2863.00,0.0310
2860.00,0.0361
2857.00,0.0406
2854.00,0.0415
2851.00,0.0392
2848.00,0.0338
2845.00,0.0277
2842.00,0.0231
2839.00,0.0198
2836.00,0.0179
2833.00,0.0166
2830.00,0.0155
2827.00,0.0146
2824.00,0.0139
2821.00,0.0132
2818.00,0.0128
2815.00,0.0124
2812.00,0.0121
2809.00,0.0118
2806.00,0.0116
2803.00,0.0114
2800.00,0.0111
2797.00,0.0110
2794.00,0.0108
2791.00,0.0106
2788.00,0.0104
2785.00,0.0103
2782.00,0.0101
2779.00,0.0100
2776.00,0.0098
2773.00,0.0098
2770.00,0.0097
2767.00,0.0097
2764.00,0.0096
2761.00,0.0096
2758.00,0.0096
2755.00,0.0097
2752.00,0.0097
2749.00,0.0096
2746.00,0.0097
2743.00,0.0098
2740.00,0.0099
2737.00,0.0100
2734.00,0.0103
2731.00,0.0105
2728.00,0.0104
2725.00,0.0103
2722.00,0.0101
2719.00,0.0100
2716.00,0.0099
2713.00,0.0098
2710.00,0.0098
2707.00,0.0098
2704.00,0.0097
2701.00,0.0097
2698.00,0.0096
2695.00,0.0095
2692.00,0.0094
2689.00,0.0093
2686.00,0.0093
2683.00,0.0092
2680.00,0.0091
2677.00,0.0091
2674.00,0.0092
2671.00,0.0093
2668.00,0.0093
2665.00,0.0095
2662.00,0.0097
2659.00,0.0099
2656.00,0.0099
2653.00,0.0099
2650.00,0.0099
2647.00,0.0099
2644.00,0.0099
2641.00,0.0098
2638.00,0.0097
2635.00,0.0096
2632.00,0.0095
2629.00,0.0093
2626.00,0.0092
2623.00,0.0091
2620.00,0.0090
2617.00,0.0090
2614.00,0.0090
2611.00,0.0090
2608.00,0.0090
2605.00,0.0090
2602.00,0.0091
2599.00,0.0091
2596.00,0.0092
2593.00,0.0092
2590.00,0.0093
2587.00,0.0093
2584.00,0.0093
2581.00,0.0092
2578.00,0.0091
2575.00,0.0091
2572.00,0.0089
2569.00,0.0090
2566.00,0.0091
2563.00,0.0090
2560.00,0.0088
2557.00,0.0087
2554.00,0.0086
2551.00,0.0085
2548.00,0.0086
2545.00,0.0086
2542.00,0.0086
2539.00,0.0086
2536.00,0.0087
2533.00,0.0086
2530.00,0.0085
2527.00,0.0085
2524.00,0.0083
2521.00,0.0083
2518.00,0.0083
2515.00,0.0082
2512.00,0.0082
2509.00,0.0081
2506.00,0.0080
2503.00,0.0079
2500.00,0.0079
2497.00,0.0079
2494.00,0.0078
2491.00,0.0078
2488.00,0.0078
2485.00,0.0078
2482.00,0.0078
2479.00,0.0078
2476.00,0.0078
2473.00,0.0077
2470.00,0.0077
2467.00,0.0077
2464.00,0.0077
2461.00,0.0078
2458.00,0.0078
2455.00,0.0078
2452.00,0.0078
2449.00,0.0077
2446.00,0.0077
2443.00,0.0076
2440.00,0.0076
2437.00,0.0075
2434.00,0.0075
2431.00,0.0074
2428.00,0.0074
2425.00,0.0074
2422.00,0.0073
2419.00,0.0073
2416.00,0.0073
2413.00,0.0074
2410.00,0.0074
2407.00,0.0073
2404.00,0.0073
2401.00,0.0073
2398.00,0.0073
2395.00,0.0073
2392.00,0.0072
2389.00,0.0072
2386.00,0.0071
2383.00,0.0070
2380.00,0.0069
2377.00,0.0068
2374.00,0.0069
2371.00,0.0069
2368.00,0.0068
2365.00,0.0068
2362.00,0.0069
2359.00,0.0069
2356.00,0.0069
2353.00,0.0068
2350.00,0.0070
2347.00,0.0071
2344.00,0.0071
2341.00,0.0072
2338.00,0.0072
2335.00,0.0073
2332.00,0.0072
2329.00,0.0074
2326.00,0.0084
2323.00,0.0082
2320.00,0.0077
2317.00,0.0077
2314.00,0.0075
2311.00,0.0074
2308.00,0.0075
2305.00,0.0075
2302.00,0.0076
2299.00,0.0077
2296.00,0.0078
2293.00,0.0081
2290.00,0.0083
2287.00,0.0084
2284.00,0.0083
2281.00,0.0080
2278.00,0.0078
2275.00,0.0077
2272.00,0.0077
2269.00,0.0075
2266.00,0.0073
2263.00,0.0073
2260.00,0.0072
2257.00,0.0071
2254.00,0.0069
2251.00,0.0071
2248.00,0.0071
2245.00,0.0070
2242.00,0.0071
2239.00,0.0072
2236.00,0.0074
2233.00,0.0074
2230.00,0.0073
2227.00,0.0073
2224.00,0.0074
2221.00,0.0073
2218.00,0.0072
2215.00,0.0070
2212.00,0.0071
2209.00,0.0073
2206.00,0.0075
2203.00,0.0073
2200.00,0.0074
2197.00,0.0072
2194.00,0.0074
2191.00,0.0076
2188.00,0.0074
2185.00,0.0074
2182.00,0.0074
2179.00,0.0071
2176.00,0.0066
2173.00,0.0072
2170.00,0.0076
2167.00,0.0079
2164.00,0.0083
2161.00,0.0068
2158.00,0.0041
2155.00,0.0047
2152.00,0.0053
2149.00,0.0052
2146.00,0.0051
2143.00,0.0055
2140.00,0.0055
2137.00,0.0052
2134.00,0.0048
2131.00,0.0052
2128.00,0.0057
2125.00,0.0060
2122.00,0.0063
2119.00,0.0065
2116.00,0.0066
2113.00,0.0066
2110.00,0.0064
2107.00,0.0066
2104.00,0.0065
2101.00,0.0064
2098.00,0.0063
2095.00,0.0059
2092.00,0.0062
2089.00,0.0065
2086.00,0.0065
2083.00,0.0067
2080.00,0.0067
2077.00,0.0066
2074.00,0.0065
2071.00,0.0065
2068.00,0.0064
2065.00,0.0065
2062.00,0.0064
2059.00,0.0064
2056.00,0.0063
2053.00,0.0069
2050.00,0.0066
2047.00,0.0061
2044.00,0.0060
2041.00,0.0063
2038.00,0.0064
2035.00,0.0064
2032.00,0.0059
2029.00,0.0058
2026.00,0.0058
2023.00,0.0058
2020.00,0.0056
2017.00,0.0053
2014.00,0.0055
2011.00,0.0055
2008.00,0.0048
2005.00,0.0047
2002.00,0.0048
1999.00,0.0053
1996.00,0.0059
1993.00,0.0060
1990.00,0.0060
1987.00,0.0063
1984.00,0.0065
1981.00,0.0072
1978.00,0.0056
1975.00,0.0050
1972.00,0.0050
1969.00,0.0052
1966.00,0.0053
1963.00,0.0052
1960.00,0.0048
1957.00,0.0050
1954.00,0.0053
1951.00,0.0053
1948.00,0.0053
1945.00,0.0054
1942.00,0.0055
1939.00,0.0055
1936.00,0.0054
1933.00,0.0055
1930.00,0.0056
1927.00,0.0057
1924.00,0.0058
1921.00,0.0060
1918.00,0.0059
1915.00,0.0060
1912.00,0.0066
1909.00,0.0074
1906.00,0.0073
1903.00,0.0064
1900.00,0.0063
1897.00,0.0062
1894.00,0.0066
1891.00,0.0066
1888.00,0.0062
1885.00,0.0061
1882.00,0.0060
1879.00,0.0061
1876.00,0.0061
1873.00,0.0060
1870.00,0.0061
1867.00,0.0061
1864.00,0.0061
1861.00,0.0062
1858.00,0.0062
1855.00,0.0063
1852.00,0.0063
1849.00,0.0065
1846.00,0.0067
1843.00,0.0067
1840.00,0.0064
1837.00,0.0062
1834.00,0.0061
1831.00,0.0060
1828.00,0.0061
1825.00,0.0062
1822.00,0.0062
1819.00,0.0061
1816.00,0.0060
1813.00,0.0060
1810.00,0.0061
1807.00,0.0062
1804.00,0.0062
1801.00,0.0064
1798.00,0.0066
1795.00,0.0066
1792.00,0.0067
1789.00,0.0066
1786.00,0.0067
1783.00,0.0066
1780.00,0.0067
1777.00,0.0068
1774.00,0.0070
1771.00,0.0071
1768.00,0.0072
1765.00,0.0070
1762.00,0.0071
1759.00,0.0073
1756.00,0.0071
1753.00,0.0069
1750.00,0.0068
1747.00,0.0069
1744.00,0.0070
1741.00,0.0069
1738.00,0.0070
1735.00,0.0071
1732.00,0.0074
1729.00,0.0081
1726.00,0.0085
1723.00,0.0089
1720.00,0.0091
1717.00,0.0094
1714.00,0.0103
1711.00,0.0110
1708.00,0.0115
1705.00,0.0121
1702.00,0.0130
1699.00,0.0139
1696.00,0.0153
1693.00,0.0171
1690.00,0.0190
1687.00,0.0208
1684.00,0.0238
1681.00,0.0275
1678.00,0.0309
1675.00,0.0351
1672.00,0.0388
1669.00,0.0433
1666.00,0.0472
1663.00,0.0510
1660.00,0.0549
1657.00,0.0576
1654.00,0.0597
1651.00,0.0632
1648.00,0.0644
1645.00,0.0656
1642.00,0.0658
1639.00,0.0647
1636.00,0.0625
1633.00,0.0625
1630.00,0.0671
1627.00,0.0789
1624.00,0.0896
1621.00,0.0930
1618.00,0.0871
1615.00,0.0724
1612.00,0.0706
1609.00,0.0681
1606.00,0.0587
1603.00,0.0480
1600.00,0.0399
1597.00,0.0356
1594.00,0.0354
1591.00,0.0411
1588.00,0.0514
1585.00,0.0597
1582.00,0.0604
1579.00,0.0559
1576.00,0.0473
1573.00,0.0411
1570.00,0.0380
1567.00,0.0344
1564.00,0.0294
1561.00,0.0251
1558.00,0.0202
1555.00,0.0189
1552.00,0.0181
1549.00,0.0174
1546.00,0.0168
1543.00,0.0157
1540.00,0.0147
1537.00,0.0148
1534.00,0.0148
1531.00,0.0145
1528.00,0.0145
1525.00,0.0147
1522.00,0.0151
1519.00,0.0164
1516.00,0.0184
1513.00,0.0204
1510.00,0.0217
1507.00,0.0223
1504.00,0.0242
1501.00,0.0286
1498.00,0.0389
1495.00,0.0459
1492.00,0.0406
1489.00,0.0310
1486.00,0.0250
1483.00,0.0218
1480.00,0.0204
1477.00,0.0208
1474.00,0.0229
1471.00,0.0308
1468.00,0.0431
1465.00,0.0527
1462.00,0.0540
1459.00,0.0540
1456.00,0.0485
1453.00,0.0452
1450.00,0.0460
1447.00,0.0501
1444.00,0.0567
1441.00,0.0636
1438.00,0.0680
1435.00,0.0707
1432.00,0.0750
1429.00,0.0780
1426.00,0.0790
1423.00,0.0774
1420.00,0.0732
1417.00,0.0634
1414.00,0.0560
1411.00,0.0522
1408.00,0.0543
1405.00,0.0617
1402.00,0.0694
1399.00,0.0705
1396.00,0.0631
1393.00,0.0520
1390.00,0.0470
1387.00,0.0502
1384.00,0.0490
1381.00,0.0475
1378.00,0.0484
1375.00,0.0453
1372.00,0.0395
1369.00,0.0412
1366.00,0.0493
1363.00,0.0530
1360.00,0.0586
1357.00,0.0536
1354.00,0.0461
1351.00,0.0440
1348.00,0.0445
1345.00,0.0436
1342.00,0.0402
1339.00,0.0358
1336.00,0.0338
1333.00,0.0358
1330.00,0.0385
1327.00,0.0395
1324.00,0.0394
1321.00,0.0397
1318.00,0.0392
1315.00,0.0370
1312.00,0.0353
1309.00,0.0369
1306.00,0.0427
1303.00,0.0535
1300.00,0.0622
1297.00,0.0641
1294.00,0.0682
1291.00,0.0714
1288.00,0.0746
1285.00,0.0799
1282.00,0.0802
1279.00,0.0730
1276.00,0.0656
1273.00,0.0612
1270.00,0.0569
1267.00,0.0522
1264.00,0.0474
1261.00,0.0424
1258.00,0.0385
1255.00,0.0361
1252.00,0.0354
1249.00,0.0376
1246.00,0.0427
1243.00,0.0477
1240.00,0.0513
1237.00,0.0581
1234.00,0.0651
1231.00,0.0636
1228.00,0.0562
1225.00,0.0502
1222.00,0.0472
1219.00,0.0479
1216.00,0.0511
1213.00,0.0515
1210.00,0.0458
1207.00,0.0402
1204.00,0.0398
1201.00,0.0457
1198.00,0.0555
1195.00,0.0647
1192.00,0.0635
1189.00,0.0538
1186.00,0.0430
1183.00,0.0357
1180.00,0.0321
1177.00,0.0306
1174.00,0.0301
1171.00,0.0299
1168.00,0.0297
1165.00,0.0302
1162.00,0.0330
1159.00,0.0425
1156.00,0.0591
1153.00,0.0620
1150.00,0.0449
1147.00,0.0321
1144.00,0.0279
1141.00,0.0272
1138.00,0.0290
1135.00,0.0362
1132.00,0.0538
1129.00,0.0730
1126.00,0.0735
1123.00,0.0604
1120.00,0.0459
1117.00,0.0390
1114.00,0.0374
1111.00,0.0350
1108.00,0.0325
1105.00,0.0347
1102.00,0.0449
1099.00,0.0528
1096.00,0.0445
1093.00,0.0332
1090.00,0.0276
1087.00,0.0253
1084.00,0.0245
1081.00,0.0245
1078.00,0.0250
1075.00,0.0259
1072.00,0.0272
1069.00,0.0295
1066.00,0.0325
1063.00,0.0380
1060.00,0.0507
1057.00,0.0731
1054.00,0.0934
1051.00,0.0994
1048.00,0.0959
1045.00,0.0813
1042.00,0.0635
1039.00,0.0522
1036.00,0.0504
1033.00,0.0538
1030.00,0.0671
1027.00,0.0850
1024.00,0.0782
1021.00,0.0588
1018.00,0.0455
1015.00,0.0377
1012.00,0.0337
1009.00,0.0353
1006.00,0.0429
1003.00,0.0485
1000.00,0.0461
997.00,0.0421
994.00,0.0394
991.00,0.0355
988.00,0.0304
985.00,0.0271
982.00,0.0253
979.00,0.0246
976.00,0.0246
973.00,0.0243
970.00,0.0237
967.00,0.0236
964.00,0.0244
961.00,0.0247
958.00,0.0218
955.00,0.0195
952.00,0.0184
949.00,0.0196
946.00,0.0201
943.00,0.0205
940.00,0.0230
937.00,0.0253
934.00,0.0272
931.00,0.0275
928.00,0.0257
925.00,0.0266
922.00,0.0298
919.00,0.0278
916.00,0.0225
913.00,0.0198
910.00,0.0189
907.00,0.0193
904.00,0.0219
901.00,0.0281
898.00,0.0310
895.00,0.0272
892.00,0.0286
889.00,0.0319
886.00,0.0246
883.00,0.0218
880.00,0.0235
877.00,0.0302
874.00,0.0442
871.00,0.0602
868.00,0.0622
865.00,0.0519
862.00,0.0416
859.00,0.0352
856.00,0.0389
853.00,0.0478
850.00,0.0563
847.00,0.0563
844.00,0.0475
841.00,0.0425
838.00,0.0456
835.00,0.0555
832.00,0.0577
829.00,0.0478
826.00,0.0366
823.00,0.0425
820.00,0.0658
817.00,0.0744
814.00,0.0705
811.00,0.0439
808.00,0.0320
805.00,0.0278
802.00,0.0259
799.00,0.0250
796.00,0.0246
793.00,0.0244
790.00,0.0244
787.00,0.0244
784.00,0.0245
781.00,0.0250
778.00,0.0267
775.00,0.0317
772.00,0.0315
769.00,0.0286
766.00,0.0283
763.00,0.0298
760.00,0.0327
757.00,0.0332
754.00,0.0323
751.00,0.0328
748.00,0.0340
745.00,0.0355
742.00,0.0380
739.00,0.0439
736.00,0.0560
733.00,0.0593
730.00,0.0565
727.00,0.0555
724.00,0.0471
721.00,0.0424
718.00,0.0440
715.00,0.0484
712.00,0.0477
709.00,0.0448
706.00,0.0440
703.00,0.0454
700.00,0.0481
697.00,0.0496
694.00,0.0479
691.00,0.0495
688.00,0.0548
685.00,0.0533
682.00,0.0512
679.00,0.0523
676.00,0.0557
673.00,0.0608
670.00,0.0639
667.00,0.0625
664.00,0.0634
661.00,0.0658
658.00,0.0641
655.00,0.0617
652.00,0.0614
649.00,0.0618
646.00,0.0616
643.00,0.0606
640.00,0.0599
637.00,0.0592
634.00,0.0582
631.00,0.0579
628.00,0.0585
625.00,0.0601
622.00,0.0632
619.00,0.0650
616.00,0.0619
613.00,0.0576
610.00,0.0578
607.00,0.0639
604.00,0.0727
601.00,0.0768
598.00,0.0774
595.00,0.0770
592.00,0.0763
589.00,0.0751
586.00,0.0745
583.00,0.0751
580.00,0.0784
577.00,0.0855
574.00,0.0848
571.00,0.0780
568.00,0.0738
565.00,0.0750
562.00,0.0801
559.00,0.0840
556.00,0.0798
553.00,0.0763
550.00,0.0790
547.00,0.0853
544.00,0.0854
541.00,0.0802
538.00,0.0763
535.00,0.0767
532.00,0.0819
529.00,0.0815
526.00,0.0752
523.00,0.0703
520.00,0.0676
517.00,0.0662
514.00,0.0650
511.00,0.0649
508.00,0.0661
505.00,0.0673
502.00,0.0659
499.00,0.0634
496.00,0.0640
493.00,0.0659
490.00,0.0661
487.00,0.0641
484.00,0.0628
481.00,0.0622
478.00,0.0616
475.00,0.0611
472.00,0.0615
469.00,0.0613
466.00,0.0599
463.00,0.0596
460.00,0.0596
457.00,0.0594
454.00,0.0583
451.00,0.0573
448.00,0.0565
445.00,0.0558
442.00,0.0552
439.00,0.0557
436.00,0.0544
433.00,0.0526
430.00,0.0521
427.00,0.0509
424.00,0.0515
421.00,0.0510
418.00,0.0523
415.00,0.0498
412.00,0.0534
409.00,0.0559
406.00,0.0525
403.00,0.0502
400.00,0.0508