File: FTIR/Olivia/2025_07_26_Polystyrene_Std_scan2.csv
Created as New Dataset,Sample 918 By YargerLab Date Saturday, July 26 2025
cm-1,A
4000.00,0.0009
3997.00,0.0009
3994.00,0.0009
3991.00,0.0008
3988.00,0.0008
3985.00,0.0008
3982.00,0.0008
3979.00,0.0009
3976.00,0.0008
3973.00,0.0008
3970.00,0.0008
3967.00,0.0009
3964.00,0.0009
3961.00,0.0009
3958.00,0.0008
3955.00,0.0008
3952.00,0.0008
3949.00,0.0008
3946.00,0.0008
3943.00,0.0008
3940.00,0.0008
3937.00,0.0008
3934.00,0.0008
3931.00,0.0008
3928.00,0.0008
3925.00,0.0008
3922.00,0.0008
3919.00,0.0008
3916.00,0.0008
3913.00,0.0009
3910.00,0.0008
3907.00,0.0008
3904.00,0.0007
3901.00,0.0007
3898.00,0.0007
3895.00,0.0007
3892.00,0.0008
3889.00,0.0007
3886.00,0.0007
3883.00,0.0007
3880.00,0.0007
3877.00,0.0007
3874.00,0.0007
3871.00,0.0008
3868.00,0.0008
3865.00,0.0007
3862.00,0.0007
3859.00,0.0008
3856.00,0.0009
3853.00,0.0007
3850.00,0.0007
3847.00,0.0007
3844.00,0.0008
3841.00,0.0008
3838.00,0.0007
3835.00,0.0008
3832.00,0.0008
3829.00,0.0008
3826.00,0.0008
3823.00,0.0008
3820.00,0.0009
3817.00,0.0008
3814.00,0.0008
3811.00,0.0008
3808.00,0.0009
3805.00,0.0009
3802.00,0.0008
3799.00,0.0009
3796.00,0.0008
3793.00,0.0009
3790.00,0.0009
3787.00,0.0009
3784.00,0.0009
3781.00,0.0009
3778.00,0.0009
3775.00,0.0009
3772.00,0.0009
3769.00,0.0009
3766.00,0.0009
3763.00,0.0009
3760.00,0.0009
3757.00,0.0009
3754.00,0.0008
3751.00,0.0008
3748.00,0.0007
3745.00,0.0007
3742.00,0.0007
3739.00,0.0007
3736.00,0.0007
3733.00,0.0007
3730.00,0.0008
3727.00,0.0008
3724.00,0.0008
3721.00,0.0008
3718.00,0.0008
3715.00,0.0007
3712.00,0.0007
3709.00,0.0007
3706.00,0.0008
3703.00,0.0008
3700.00,0.0007
3697.00,0.0007
3694.00,0.0008
3691.00,0.0007
3688.00,0.0007
3685.00,0.0007
3682.00,0.0007
3679.00,0.0007
3676.00,0.0006
3673.00,0.0006
3670.00,0.0006
3667.00,0.0006
3664.00,0.0007
3661.00,0.0007
3658.00,0.0007
3655.00,0.0007
3652.00,0.0007
3649.00,0.0007
3646.00,0.0007
3643.00,0.0008
3640.00,0.0008
3637.00,0.0007
3634.00,0.0007
3631.00,0.0007
3628.00,0.0006
3625.00,0.0006
3622.00,0.0008
3619.00,0.0008
3616.00,0.0007
3613.00,0.0007
3610.00,0.0007
3607.00,0.0007
3604.00,0.0007
3601.00,0.0008
3598.00,0.0008
3595.00,0.0008
3592.00,0.0008
3589.00,0.0007
3586.00,0.0008
3583.00,0.0008
3580.00,0.0008
3577.00,0.0008
3574.00,0.0009
3571.00,0.0008
3568.00,0.0007
3565.00,0.0008
3562.00,0.0008
3559.00,0.0009
3556.00,0.0009
3553.00,0.0010
3550.00,0.0009
3547.00,0.0009
3544.00,0.0009
3541.00,0.0010
3538.00,0.0010
3535.00,0.0010
3532.00,0.0010
3529.00,0.0010
3526.00,0.0010
3523.00,0.0010
3520.00,0.0010
3517.00,0.0010
3514.00,0.0011
3511.00,0.0011
3508.00,0.0011
3505.00,0.0011
3502.00,0.0011
3499.00,0.0011
3496.00,0.0011
3493.00,0.0012
3490.00,0.0012
3487.00,0.0012
3484.00,0.0012
3481.00,0.0012
3478.00,0.0012
3475.00,0.0012
3472.00,0.0012
3469.00,0.0013
3466.00,0.0013
3463.00,0.0012
3460.00,0.0012
3457.00,0.0013
3454.00,0.0013
3451.00,0.0013
3448.00,0.0013
3445.00,0.0012
3442.00,0.0013
3439.00,0.0013
3436.00,0.0013
3433.00,0.0013
3430.00,0.0013
3427.00,0.0013
3424.00,0.0012
3421.00,0.0012
3418.00,0.0013
3415.00,0.0013
3412.00,0.0012
3409.00,0.0012
3406.00,0.0013
3403.00,0.0013
3400.00,0.0012
3397.00,0.0012
3394.00,0.0012
3391.00,0.0012
3388.00,0.0012
3385.00,0.0012
3382.00,0.0012
3379.00,0.0013
3376.00,0.0012
3373.00,0.0012
3370.00,0.0012
3367.00,0.0013
3364.00,0.0012
3361.00,0.0012
3358.00,0.0012
3355.00,0.0013
3352.00,0.0012
3349.00,0.0012
3346.00,0.0012
3343.00,0.0012
3340.00,0.0012
3337.00,0.0013
3334.00,0.0012
3331.00,0.0012
3328.00,0.0012
3325.00,0.0012
3322.00,0.0012
3319.00,0.0012
3316.00,0.0012
3313.00,0.0012
3310.00,0.0012
3307.00,0.0013
3304.00,0.0012
3301.00,0.0013
3298.00,0.0012
3295.00,0.0012
3292.00,0.0012
3289.00,0.0012
3286.00,0.0012
3283.00,0.0012
3280.00,0.0012
3277.00,0.0012
3274.00,0.0012
3271.00,0.0011
3268.00,0.0012
3265.00,0.0012
3262.00,0.0011
3259.00,0.0012
3256.00,0.0012
3253.00,0.0011
3250.00,0.0011
3247.00,0.0011
3244.00,0.0011
3241.00,0.0011
3238.00,0.0011
3235.00,0.0011
3232.00,0.0011
3229.00,0.0011
3226.00,0.0011
3223.00,0.0010
3220.00,0.0011
3217.00,0.0010
3214.00,0.0011
3211.00,0.0012
3208.00,0.0012
3205.00,0.0012
3202.00,0.0012
3199.00,0.0012
3196.00,0.0012
3193.00,0.0011
3190.00,0.0011
3187.00,0.0011
3184.00,0.0011
3181.00,0.0011
3178.00,0.0010
3175.00,0.0010
3172.00,0.0011
3169.00,0.0011
3166.00,0.0012
3163.00,0.0012
3160.00,0.0012
3157.00,0.0011
3154.00,0.0011
3151.00,0.0011
3148.00,0.0011
3145.00,0.0010
3142.00,0.0010
3139.00,0.0010
3136.00,0.0010
3133.00,0.0011
3130.00,0.0011
3127.00,0.0011
3124.00,0.0011
3121.00,0.0012
3118.00,0.0014
3115.00,0.0016
3112.00,0.0019
3109.00,0.0025
3106.00,0.0031
3103.00,0.0033
3100.00,0.0031
3097.00,0.0030
3094.00,0.0033
3091.00,0.0042
3088.00,0.0059
3085.00,0.0076
3082.00,0.0083
3079.00,0.0075
3076.00,0.0064
3073.00,0.0061
3070.00,0.0067
3067.00,0.0080
3064.00,0.0100
3061.00,0.0115
3058.00,0.0112
3055.00,0.0095
3052.00,0.0077
3049.00,0.0064
3046.00,0.0059
3043.00,0.0061
3040.00,0.0071
3037.00,0.0088
3034.00,0.0118
3031.00,0.0161
3028.00,0.0206
3025.00,0.0222
3022.00,0.0192
3019.00,0.0136
3016.00,0.0091
3013.00,0.0066
3010.00,0.0055
3007.00,0.0055
3004.00,0.0059
3001.00,0.0060
2998.00,0.0051
2995.00,0.0039
2992.00,0.0031
2989.00,0.0028
2986.00,0.0027
2983.00,0.0025
2980.00,0.0025
2977.00,0.0028
2974.00,0.0030
2971.00,0.0032
2968.00,0.0037
2965.00,0.0042
2962.00,0.0047
2959.00,0.0053
2956.00,0.0061
2953.00,0.0070
2950.00,0.0082
2947.00,0.0096
2944.00,0.0115
2941.00,0.0136
2938.00,0.0159
2935.00,0.0187
2932.00,0.0216
2929.00,0.0241
2926.00,0.0261
2923.00,0.0270
2920.00,0.0270
2917.00,0.0261
2914.00,0.0245
2911.00,0.0227
2908.00,0.0207
2905.00,0.0187
2902.00,0.0166
2899.00,0.0145
2896.00,0.0128
2893.00,0.0114
2890.00,0.0104
2887.00,0.0096
2884.00,0.0089
2881.00,0.0083
2878.00,0.0077
2875.00,0.0072
2872.00,0.0069
2869.00,0.0068
2866.00,0.0071
2863.00,0.0076
2860.00,0.0087
2857.00,0.0099
2854.00,0.0111
2851.00,0.0119
2848.00,0.0118
2845.00,0.0108
2842.00,0.0091
2839.00,0.0069
2836.00,0.0051
2833.00,0.0040
2830.00,0.0033
2827.00,0.0029
2824.00,0.0027
2821.00,0.0025
2818.00,0.0024
2815.00,0.0023
2812.00,0.0023
2809.00,0.0022
2806.00,0.0021
2803.00,0.0021
2800.00,0.0020
2797.00,0.0019
2794.00,0.0019
2791.00,0.0018
2788.00,0.0018
2785.00,0.0018
2782.00,0.0018
2779.00,0.0017
2776.00,0.0017
2773.00,0.0017
2770.00,0.0016
2767.00,0.0015
2764.00,0.0015
2761.00,0.0015
2758.00,0.0015
2755.00,0.0015
2752.00,0.0014
2749.00,0.0014
2746.00,0.0014
2743.00,0.0015
2740.00,0.0014
2737.00,0.0014
2734.00,0.0014
2731.00,0.0015
2728.00,0.0015
2725.00,0.0015
2722.00,0.0014
2719.00,0.0014
2716.00,0.0015
2713.00,0.0015
2710.00,0.0014
2707.00,0.0014
2704.00,0.0014
2701.00,0.0014
2698.00,0.0014
2695.00,0.0014
2692.00,0.0014
2689.00,0.0014
2686.00,0.0014
2683.00,0.0014
2680.00,0.0014
2677.00,0.0014
2674.00,0.0014
2671.00,0.0014
2668.00,0.0014
2665.00,0.0016
2662.00,0.0017
2659.00,0.0018
2656.00,0.0019
2653.00,0.0019
2650.00,0.0019
2647.00,0.0019
2644.00,0.0018
2641.00,0.0019
2638.00,0.0019
2635.00,0.0019
2632.00,0.0020
2629.00,0.0020
2626.00,0.0018
2623.00,0.0018
2620.00,0.0017
2617.00,0.0017
2614.00,0.0016
2611.00,0.0016
2608.00,0.0017
2605.00,0.0018
2602.00,0.0017
2599.00,0.0016
2596.00,0.0016
2593.00,0.0015
2590.00,0.0015
2587.00,0.0015
2584.00,0.0015
2581.00,0.0015
2578.00,0.0014
2575.00,0.0014
2572.00,0.0013
2569.00,0.0013
2566.00,0.0013
2563.00,0.0011
2560.00,0.0011
2557.00,0.0012
2554.00,0.0012
2551.00,0.0012
2548.00,0.0011
2545.00,0.0012
2542.00,0.0011
2539.00,0.0011
2536.00,0.0010
2533.00,0.0010
2530.00,0.0011
2527.00,0.0011
2524.00,0.0010
2521.00,0.0010
2518.00,0.0011
2515.00,0.0011
2512.00,0.0010
2509.00,0.0010
2506.00,0.0010
2503.00,0.0010
2500.00,0.0010
2497.00,0.0009
2494.00,0.0010
2491.00,0.0010
2488.00,0.0009
2485.00,0.0009
2482.00,0.0009
2479.00,0.0009
2476.00,0.0009
2473.00,0.0009
2470.00,0.0009
2467.00,0.0009
2464.00,0.0008
2461.00,0.0009
2458.00,0.0009
2455.00,0.0009
2452.00,0.0010
2449.00,0.0009
2446.00,0.0008
2443.00,0.0009
2440.00,0.0007
2437.00,0.0007
2434.00,0.0007
2431.00,0.0007
2428.00,0.0007
2425.00,0.0006
2422.00,0.0006
2419.00,0.0006
2416.00,0.0006
2413.00,0.0006
2410.00,0.0005
2407.00,0.0004
2404.00,0.0004
2401.00,0.0004
2398.00,0.0004
2395.00,0.0004
2392.00,0.0004
2389.00,0.0004
2386.00,0.0004
2383.00,0.0004
2380.00,0.0003
2377.00,0.0003
2374.00,0.0004
2371.00,0.0003
2368.00,0.0003
2365.00,0.0004
2362.00,0.0005
2359.00,0.0005
2356.00,0.0006
2353.00,0.0006
2350.00,0.0007
2347.00,0.0008
2344.00,0.0009
2341.00,0.0010
2338.00,0.0011
2335.00,0.0011
2332.00,0.0010
2329.00,0.0013
2326.00,0.0023
2323.00,0.0022
2320.00,0.0017
2317.00,0.0017
2314.00,0.0016
2311.00,0.0015
2308.00,0.0014
2305.00,0.0014
2302.00,0.0014
2299.00,0.0013
2296.00,0.0015
2293.00,0.0017
2290.00,0.0019
2287.00,0.0019
2284.00,0.0016
2281.00,0.0014
2278.00,0.0013
2275.00,0.0013
2272.00,0.0012
2269.00,0.0010
2266.00,0.0009
2263.00,0.0010
2260.00,0.0012
2257.00,0.0011
2254.00,0.0009
2251.00,0.0009
2248.00,0.0008
2245.00,0.0008
2242.00,0.0007
2239.00,0.0008
2236.00,0.0007
2233.00,0.0008
2230.00,0.0007
2227.00,0.0007
2224.00,0.0005
2221.00,0.0007
2218.00,0.0007
2215.00,0.0005
2212.00,0.0004
2209.00,0.0005
2206.00,0.0006
2203.00,0.0005
2200.00,0.0005
2197.00,0.0005
2194.00,0.0009
2191.00,0.0011
2188.00,0.0010
2185.00,0.0008
2182.00,0.0001
2179.00,-0.0000
2176.00,-0.0002
2173.00,0.0003
2170.00,0.0011
2167.00,0.0014
2164.00,0.0017
2161.00,0.0003
2158.00,-0.0028
2155.00,-0.0021
2152.00,-0.0015
2149.00,-0.0015
2146.00,-0.0016
2143.00,-0.0015
2140.00,-0.0013
2137.00,-0.0018
2134.00,-0.0021
2131.00,-0.0015
2128.00,-0.0009
2125.00,-0.0006
2122.00,-0.0003
2119.00,0.0001
2116.00,0.0004
2113.00,0.0003
2110.00,0.0003
2107.00,0.0003
2104.00,0.0003
2101.00,0.0002
2098.00,-0.0001
2095.00,-0.0003
2092.00,0.0000
2089.00,0.0003
2086.00,0.0004
2083.00,0.0004
2080.00,0.0005
2077.00,0.0004
2074.00,0.0001
2071.00,0.0003
2068.00,0.0002
2065.00,0.0002
2062.00,0.0000
2059.00,0.0002
2056.00,0.0002
2053.00,0.0008
2050.00,0.0007
2047.00,0.0002
2044.00,0.0002
2041.00,0.0004
2038.00,0.0003
2035.00,-0.0001
2032.00,-0.0001
2029.00,-0.0005
2026.00,-0.0003
2023.00,-0.0003
2020.00,-0.0004
2017.00,-0.0005
2014.00,-0.0003
2011.00,0.0001
2008.00,-0.0008
2005.00,-0.0010
2002.00,-0.0005
1999.00,-0.0003
1996.00,-0.0000
1993.00,0.0003
1990.00,0.0005
1987.00,0.0007
1984.00,0.0010
1981.00,0.0016
1978.00,0.0004
1975.00,-0.0002
1972.00,-0.0000
1969.00,0.0002
1966.00,0.0007
1963.00,0.0010
1960.00,0.0008
1957.00,0.0009
1954.00,0.0013
1951.00,0.0018
1948.00,0.0021
1945.00,0.0025
1942.00,0.0027
1939.00,0.0022
1936.00,0.0017
1933.00,0.0012
1930.00,0.0009
1927.00,0.0006
1924.00,0.0005
1921.00,0.0002
1918.00,0.0001
1915.00,0.0001
1912.00,0.0001
1909.00,0.0003
1906.00,0.0003
1903.00,0.0004
1900.00,0.0005
1897.00,0.0007
1894.00,0.0009
1891.00,0.0012
1888.00,0.0015
1885.00,0.0017
1882.00,0.0019
1879.00,0.0022
1876.00,0.0023
1873.00,0.0023
1870.00,0.0025
1867.00,0.0023
1864.00,0.0021
1861.00,0.0018
1858.00,0.0013
1855.00,0.0009
1852.00,0.0008
1849.00,0.0006
1846.00,0.0005
1843.00,0.0005
1840.00,0.0004
1837.00,0.0004
1834.00,0.0005
1831.00,0.0007
1828.00,0.0009
1825.00,0.0011
1822.00,0.0013
1819.00,0.0014
1816.00,0.0015
1813.00,0.0020
1810.00,0.0024
1807.00,0.0028
1804.00,0.0029
1801.00,0.0029
1798.00,0.0027
1795.00,0.0024
1792.00,0.0019
1789.00,0.0016
1786.00,0.0015
1783.00,0.0014
1780.00,0.0015
1777.00,0.0016
1774.00,0.0016
1771.00,0.0017
1768.00,0.0017
1765.00,0.0019
1762.00,0.0021
1759.00,0.0024
1756.00,0.0028
1753.00,0.0032
1750.00,0.0035
1747.00,0.0038
1744.00,0.0042
1741.00,0.0044
1738.00,0.0043
1735.00,0.0043
1732.00,0.0041
1729.00,0.0038
1726.00,0.0036
1723.00,0.0033
1720.00,0.0031
1717.00,0.0029
1714.00,0.0028
1711.00,0.0027
1708.00,0.0026
1705.00,0.0025
1702.00,0.0024
1699.00,0.0023
1696.00,0.0022
1693.00,0.0023
1690.00,0.0024
1687.00,0.0025
1684.00,0.0026
1681.00,0.0027
1678.00,0.0027
1675.00,0.0028
1672.00,0.0028
1669.00,0.0028
1666.00,0.0028
1663.00,0.0027
1660.00,0.0026
1657.00,0.0024
1654.00,0.0023
1651.00,0.0022
1648.00,0.0020
1645.00,0.0020
1642.00,0.0019
1639.00,0.0019
1636.00,0.0018
1633.00,0.0019
1630.00,0.0019
1627.00,0.0020
1624.00,0.0021
1621.00,0.0022
1618.00,0.0025
1615.00,0.0030
1612.00,0.0039
1609.00,0.0064
1606.00,0.0119
1603.00,0.0185
1600.00,0.0196
1597.00,0.0139
1594.00,0.0089
1591.00,0.0064
1588.00,0.0059
1585.00,0.0077
1582.00,0.0080
1579.00,0.0053
1576.00,0.0035
1573.00,0.0026
1570.00,0.0022
1567.00,0.0020
1564.00,0.0018
1561.00,0.0018
1558.00,0.0019
1555.00,0.0020
1552.00,0.0023
1549.00,0.0025
1546.00,0.0027
1543.00,0.0028
1540.00,0.0027
1537.00,0.0026
1534.00,0.0022
1531.00,0.0019
1528.00,0.0017
1525.00,0.0015
1522.00,0.0015
1519.00,0.0016
1516.00,0.0017
1513.00,0.0019
1510.00,0.0021
1507.00,0.0027
1504.00,0.0040
1501.00,0.0066
1498.00,0.0153
1495.00,0.0377
1492.00,0.0480
1489.00,0.0294
1486.00,0.0154
1483.00,0.0092
1480.00,0.0063
1477.00,0.0051
1474.00,0.0046
1471.00,0.0047
1468.00,0.0051
1465.00,0.0058
1462.00,0.0072
1459.00,0.0112
1456.00,0.0283
1453.00,0.0471
1450.00,0.0465
1447.00,0.0355
1444.00,0.0278
1441.00,0.0215
1438.00,0.0168
1435.00,0.0120
1432.00,0.0089
1429.00,0.0067
1426.00,0.0056
1423.00,0.0050
1420.00,0.0046
1417.00,0.0043
1414.00,0.0041
1411.00,0.0039
1408.00,0.0038
1405.00,0.0037
1402.00,0.0037
1399.00,0.0037
1396.00,0.0040
1393.00,0.0046
1390.00,0.0055
1387.00,0.0065
1384.00,0.0076
1381.00,0.0086
1378.00,0.0096
1375.00,0.0104
1372.00,0.0107
1369.00,0.0106
1366.00,0.0104
1363.00,0.0100
1360.00,0.0097
1357.00,0.0093
1354.00,0.0090
1351.00,0.0089
1348.00,0.0087
1345.00,0.0084
1342.00,0.0079
1339.00,0.0075
1336.00,0.0076
1333.00,0.0083
1330.00,0.0089
1327.00,0.0089
1324.00,0.0085
1321.00,0.0082
1318.00,0.0082
1315.00,0.0085
1312.00,0.0087
1309.00,0.0084
1306.00,0.0080
1303.00,0.0076
1300.00,0.0072
1297.00,0.0069
1294.00,0.0068
1291.00,0.0066
1288.00,0.0064
1285.00,0.0063
1282.00,0.0062
1279.00,0.0060
1276.00,0.0057
1273.00,0.0053
1270.00,0.0049
1267.00,0.0047
1264.00,0.0046
1261.00,0.0045
1258.00,0.0045
1255.00,0.0045
1252.00,0.0045
1249.00,0.0047
1246.00,0.0047
1243.00,0.0046
1240.00,0.0045
1237.00,0.0045
1234.00,0.0045
1231.00,0.0045
1228.00,0.0046
1225.00,0.0046
1222.00,0.0046
1219.00,0.0046
1216.00,0.0047
1213.00,0.0049
1210.00,0.0052
1207.00,0.0056
1204.00,0.0061
1201.00,0.0067
1198.00,0.0071
1195.00,0.0073
1192.00,0.0074
1189.00,0.0077
1186.00,0.0085
1183.00,0.0099
1180.00,0.0100
1177.00,0.0083
1174.00,0.0067
1171.00,0.0060
1168.00,0.0058
1165.00,0.0059
1162.00,0.0065
1159.00,0.0079
1156.00,0.0099
1153.00,0.0098
1150.00,0.0075
1147.00,0.0057
1144.00,0.0048
1141.00,0.0043
1138.00,0.0040
1135.00,0.0038
1132.00,0.0038
1129.00,0.0040
1126.00,0.0040
1123.00,0.0041
1120.00,0.0045
1117.00,0.0050
1114.00,0.0054
1111.00,0.0054
1108.00,0.0053
1105.00,0.0053
1102.00,0.0054
1099.00,0.0057
1096.00,0.0059
1093.00,0.0062
1090.00,0.0064
1087.00,0.0069
1084.00,0.0077
1081.00,0.0087
1078.00,0.0097
1075.00,0.0112
1072.00,0.0128
1069.00,0.0136
1066.00,0.0130
1063.00,0.0114
1060.00,0.0099
1057.00,0.0089
1054.00,0.0080
1051.00,0.0073
1048.00,0.0069
1045.00,0.0067
1042.00,0.0067
1039.00,0.0074
1036.00,0.0103
1033.00,0.0163
1030.00,0.0222
1027.00,0.0233
1024.00,0.0189
1021.00,0.0148
1018.00,0.0123
1015.00,0.0106
1012.00,0.0097
1009.00,0.0091
1006.00,0.0094
1003.00,0.0099
1000.00,0.0085
997.00,0.0072
994.00,0.0067
991.00,0.0068
988.00,0.0073
985.00,0.0079
982.00,0.0085
979.00,0.0087
976.00,0.0081
973.00,0.0077
970.00,0.0080
967.00,0.0089
964.00,0.0094
961.00,0.0087
958.00,0.0075
955.00,0.0067
952.00,0.0066
949.00,0.0069
946.00,0.0073
943.00,0.0074
940.00,0.0070
937.00,0.0063
934.00,0.0056
931.00,0.0050
928.00,0.0049
925.00,0.0051
922.00,0.0055
919.00,0.0063
916.00,0.0077
913.00,0.0103
910.00,0.0134
907.00,0.0153
904.00,0.0145
901.00,0.0113
898.00,0.0080
895.00,0.0060
892.00,0.0051
889.00,0.0045
886.00,0.0041
883.00,0.0038
880.00,0.0037
877.00,0.0036
874.00,0.0034
871.00,0.0032
868.00,0.0032
865.00,0.0031
862.00,0.0031
859.00,0.0031
856.00,0.0033
853.00,0.0038
850.00,0.0047
847.00,0.0061
844.00,0.0072
841.00,0.0075
838.00,0.0067
835.00,0.0052
832.00,0.0039
829.00,0.0032
826.00,0.0029
823.00,0.0028
820.00,0.0028
817.00,0.0030
814.00,0.0031
811.00,0.0031
808.00,0.0032
805.00,0.0033
802.00,0.0035
799.00,0.0040
796.00,0.0047
793.00,0.0056
790.00,0.0068
787.00,0.0083
784.00,0.0103
781.00,0.0128
778.00,0.0164
775.00,0.0216
772.00,0.0282
769.00,0.0360
766.00,0.0437
763.00,0.0510
760.00,0.0586
757.00,0.0643
754.00,0.0656
751.00,0.0647
748.00,0.0639
745.00,0.0585
742.00,0.0468
739.00,0.0347
736.00,0.0249
733.00,0.0165
730.00,0.0109
727.00,0.0081
724.00,0.0071
721.00,0.0071
718.00,0.0076
715.00,0.0095
712.00,0.0148
709.00,0.0275
706.00,0.0508
703.00,0.0840
700.00,0.1234
697.00,0.1606
694.00,0.1664
691.00,0.1221
688.00,0.0784
685.00,0.0551
682.00,0.0426
679.00,0.0348
676.00,0.0298
673.00,0.0266
670.00,0.0244
667.00,0.0215
664.00,0.0191
661.00,0.0170
658.00,0.0149
655.00,0.0133
652.00,0.0117
649.00,0.0108
646.00,0.0102
643.00,0.0096
640.00,0.0096
637.00,0.0102
634.00,0.0109
631.00,0.0115
628.00,0.0120
625.00,0.0128
622.00,0.0135
619.00,0.0130
616.00,0.0117
613.00,0.0111
610.00,0.0106
607.00,0.0104
604.00,0.0103
601.00,0.0106
598.00,0.0111
595.00,0.0115
592.00,0.0122
589.00,0.0124
586.00,0.0132
583.00,0.0142
580.00,0.0152
577.00,0.0174
574.00,0.0200
571.00,0.0226
568.00,0.0254
565.00,0.0278
562.00,0.0299
559.00,0.0324
556.00,0.0352
553.00,0.0384
550.00,0.0417
547.00,0.0462
544.00,0.0518
541.00,0.0571
538.00,0.0586
535.00,0.0549
532.00,0.0471
529.00,0.0388
526.00,0.0316
523.00,0.0257
520.00,0.0227
517.00,0.0203
514.00,0.0183
511.00,0.0167
508.00,0.0148
505.00,0.0135
502.00,0.0123
499.00,0.0116
496.00,0.0113
493.00,0.0103
490.00,0.0095
487.00,0.0085
484.00,0.0085
481.00,0.0089
478.00,0.0084
475.00,0.0083
472.00,0.0079
469.00,0.0080
466.00,0.0087
463.00,0.0081
460.00,0.0074
457.00,0.0079
454.00,0.0076
451.00,0.0080
448.00,0.0072
445.00,0.0070
442.00,0.0068
439.00,0.0070
436.00,0.0072
433.00,0.0064
430.00,0.0063
427.00,0.0060
424.00,0.0068
421.00,0.0063
418.00,0.0057
415.00,0.0059
412.00,0.0077
409.00,0.0077
406.00,0.0069
403.00,0.0048
400.00,0.0053