File: FTIR/Olivia/2025_07_15_Polystyrene_Std_scan1.csv
Created as New Dataset,Sample 819 By YargerLab Date Friday, July 11 2025
cm-1,A
4000.00,0.0016
3997.00,0.0016
3994.00,0.0016
3991.00,0.0015
3988.00,0.0015
3985.00,0.0015
3982.00,0.0015
3979.00,0.0015
3976.00,0.0015
3973.00,0.0016
3970.00,0.0015
3967.00,0.0015
3964.00,0.0015
3961.00,0.0015
3958.00,0.0015
3955.00,0.0015
3952.00,0.0014
3949.00,0.0015
3946.00,0.0014
3943.00,0.0014
3940.00,0.0015
3937.00,0.0015
3934.00,0.0015
3931.00,0.0014
3928.00,0.0014
3925.00,0.0014
3922.00,0.0014
3919.00,0.0014
3916.00,0.0014
3913.00,0.0015
3910.00,0.0015
3907.00,0.0013
3904.00,0.0012
3901.00,0.0011
3898.00,0.0012
3895.00,0.0013
3892.00,0.0013
3889.00,0.0012
3886.00,0.0013
3883.00,0.0012
3880.00,0.0013
3877.00,0.0012
3874.00,0.0012
3871.00,0.0011
3868.00,0.0011
3865.00,0.0011
3862.00,0.0012
3859.00,0.0012
3856.00,0.0011
3853.00,0.0011
3850.00,0.0011
3847.00,0.0013
3844.00,0.0012
3841.00,0.0011
3838.00,0.0011
3835.00,0.0010
3832.00,0.0012
3829.00,0.0013
3826.00,0.0013
3823.00,0.0012
3820.00,0.0011
3817.00,0.0012
3814.00,0.0013
3811.00,0.0014
3808.00,0.0013
3805.00,0.0012
3802.00,0.0012
3799.00,0.0011
3796.00,0.0013
3793.00,0.0015
3790.00,0.0015
3787.00,0.0015
3784.00,0.0015
3781.00,0.0014
3778.00,0.0015
3775.00,0.0015
3772.00,0.0014
3769.00,0.0014
3766.00,0.0014
3763.00,0.0014
3760.00,0.0014
3757.00,0.0013
3754.00,0.0012
3751.00,0.0011
3748.00,0.0009
3745.00,0.0009
3742.00,0.0010
3739.00,0.0011
3736.00,0.0011
3733.00,0.0010
3730.00,0.0012
3727.00,0.0013
3724.00,0.0012
3721.00,0.0013
3718.00,0.0014
3715.00,0.0012
3712.00,0.0010
3709.00,0.0011
3706.00,0.0013
3703.00,0.0014
3700.00,0.0013
3697.00,0.0013
3694.00,0.0012
3691.00,0.0010
3688.00,0.0010
3685.00,0.0010
3682.00,0.0010
3679.00,0.0008
3676.00,0.0005
3673.00,0.0003
3670.00,0.0004
3667.00,0.0005
3664.00,0.0007
3661.00,0.0007
3658.00,0.0006
3655.00,0.0005
3652.00,0.0004
3649.00,0.0004
3646.00,0.0005
3643.00,0.0008
3640.00,0.0010
3637.00,0.0009
3634.00,0.0011
3631.00,0.0010
3628.00,0.0010
3625.00,0.0012
3622.00,0.0013
3619.00,0.0013
3616.00,0.0012
3613.00,0.0013
3610.00,0.0012
3607.00,0.0013
3604.00,0.0015
3601.00,0.0015
3598.00,0.0015
3595.00,0.0015
3592.00,0.0015
3589.00,0.0015
3586.00,0.0015
3583.00,0.0016
3580.00,0.0016
3577.00,0.0016
3574.00,0.0017
3571.00,0.0016
3568.00,0.0014
3565.00,0.0014
3562.00,0.0016
3559.00,0.0017
3556.00,0.0018
3553.00,0.0017
3550.00,0.0017
3547.00,0.0018
3544.00,0.0018
3541.00,0.0019
3538.00,0.0019
3535.00,0.0020
3532.00,0.0020
3529.00,0.0019
3526.00,0.0019
3523.00,0.0020
3520.00,0.0020
3517.00,0.0020
3514.00,0.0020
3511.00,0.0020
3508.00,0.0020
3505.00,0.0021
3502.00,0.0021
3499.00,0.0021
3496.00,0.0021
3493.00,0.0022
3490.00,0.0022
3487.00,0.0021
3484.00,0.0021
3481.00,0.0022
3478.00,0.0022
3475.00,0.0022
3472.00,0.0023
3469.00,0.0023
3466.00,0.0023
3463.00,0.0023
3460.00,0.0023
3457.00,0.0023
3454.00,0.0023
3451.00,0.0023
3448.00,0.0022
3445.00,0.0023
3442.00,0.0023
3439.00,0.0023
3436.00,0.0023
3433.00,0.0024
3430.00,0.0023
3427.00,0.0023
3424.00,0.0023
3421.00,0.0023
3418.00,0.0023
3415.00,0.0024
3412.00,0.0024
3409.00,0.0024
3406.00,0.0024
3403.00,0.0024
3400.00,0.0024
3397.00,0.0023
3394.00,0.0023
3391.00,0.0023
3388.00,0.0023
3385.00,0.0023
3382.00,0.0024
3379.00,0.0024
3376.00,0.0023
3373.00,0.0024
3370.00,0.0024
3367.00,0.0023
3364.00,0.0023
3361.00,0.0023
3358.00,0.0023
3355.00,0.0023
3352.00,0.0023
3349.00,0.0023
3346.00,0.0023
3343.00,0.0023
3340.00,0.0023
3337.00,0.0023
3334.00,0.0023
3331.00,0.0023
3328.00,0.0023
3325.00,0.0023
3322.00,0.0023
3319.00,0.0022
3316.00,0.0023
3313.00,0.0022
3310.00,0.0022
3307.00,0.0023
3304.00,0.0022
3301.00,0.0022
3298.00,0.0023
3295.00,0.0023
3292.00,0.0022
3289.00,0.0022
3286.00,0.0023
3283.00,0.0023
3280.00,0.0022
3277.00,0.0022
3274.00,0.0022
3271.00,0.0023
3268.00,0.0022
3265.00,0.0022
3262.00,0.0022
3259.00,0.0022
3256.00,0.0022
3253.00,0.0022
3250.00,0.0021
3247.00,0.0021
3244.00,0.0021
3241.00,0.0021
3238.00,0.0021
3235.00,0.0021
3232.00,0.0020
3229.00,0.0020
3226.00,0.0020
3223.00,0.0020
3220.00,0.0020
3217.00,0.0020
3214.00,0.0020
3211.00,0.0020
3208.00,0.0021
3205.00,0.0021
3202.00,0.0021
3199.00,0.0021
3196.00,0.0021
3193.00,0.0020
3190.00,0.0020
3187.00,0.0020
3184.00,0.0020
3181.00,0.0019
3178.00,0.0019
3175.00,0.0019
3172.00,0.0020
3169.00,0.0020
3166.00,0.0021
3163.00,0.0021
3160.00,0.0020
3157.00,0.0020
3154.00,0.0020
3151.00,0.0020
3148.00,0.0020
3145.00,0.0019
3142.00,0.0019
3139.00,0.0020
3136.00,0.0020
3133.00,0.0019
3130.00,0.0020
3127.00,0.0020
3124.00,0.0020
3121.00,0.0021
3118.00,0.0022
3115.00,0.0024
3112.00,0.0028
3109.00,0.0033
3106.00,0.0039
3103.00,0.0041
3100.00,0.0041
3097.00,0.0039
3094.00,0.0041
3091.00,0.0050
3088.00,0.0066
3085.00,0.0085
3082.00,0.0093
3079.00,0.0085
3076.00,0.0074
3073.00,0.0070
3070.00,0.0075
3067.00,0.0088
3064.00,0.0108
3061.00,0.0125
3058.00,0.0123
3055.00,0.0106
3052.00,0.0087
3049.00,0.0074
3046.00,0.0068
3043.00,0.0069
3040.00,0.0078
3037.00,0.0095
3034.00,0.0125
3031.00,0.0170
3028.00,0.0219
3025.00,0.0239
3022.00,0.0208
3019.00,0.0148
3016.00,0.0099
3013.00,0.0070
3010.00,0.0055
3007.00,0.0048
3004.00,0.0047
3001.00,0.0043
2998.00,0.0030
2995.00,0.0013
2992.00,0.0001
2989.00,-0.0005
2986.00,-0.0013
2983.00,-0.0031
2980.00,-0.0035
2977.00,-0.0023
2974.00,-0.0017
2971.00,-0.0016
2968.00,-0.0006
2965.00,0.0005
2962.00,0.0015
2959.00,0.0024
2956.00,0.0035
2953.00,0.0047
2950.00,0.0061
2947.00,0.0079
2944.00,0.0100
2941.00,0.0123
2938.00,0.0149
2935.00,0.0178
2932.00,0.0208
2929.00,0.0238
2926.00,0.0260
2923.00,0.0271
2920.00,0.0271
2917.00,0.0261
2914.00,0.0245
2911.00,0.0225
2908.00,0.0202
2905.00,0.0180
2902.00,0.0157
2899.00,0.0135
2896.00,0.0117
2893.00,0.0101
2890.00,0.0089
2887.00,0.0082
2884.00,0.0075
2881.00,0.0071
2878.00,0.0069
2875.00,0.0065
2872.00,0.0063
2869.00,0.0063
2866.00,0.0066
2863.00,0.0073
2860.00,0.0085
2857.00,0.0099
2854.00,0.0112
2851.00,0.0122
2848.00,0.0124
2845.00,0.0115
2842.00,0.0096
2839.00,0.0075
2836.00,0.0057
2833.00,0.0045
2830.00,0.0038
2827.00,0.0035
2824.00,0.0033
2821.00,0.0031
2818.00,0.0030
2815.00,0.0029
2812.00,0.0029
2809.00,0.0029
2806.00,0.0028
2803.00,0.0027
2800.00,0.0027
2797.00,0.0026
2794.00,0.0026
2791.00,0.0026
2788.00,0.0025
2785.00,0.0025
2782.00,0.0025
2779.00,0.0024
2776.00,0.0024
2773.00,0.0024
2770.00,0.0024
2767.00,0.0023
2764.00,0.0023
2761.00,0.0023
2758.00,0.0023
2755.00,0.0023
2752.00,0.0022
2749.00,0.0022
2746.00,0.0022
2743.00,0.0022
2740.00,0.0022
2737.00,0.0022
2734.00,0.0022
2731.00,0.0023
2728.00,0.0023
2725.00,0.0023
2722.00,0.0023
2719.00,0.0023
2716.00,0.0023
2713.00,0.0023
2710.00,0.0023
2707.00,0.0023
2704.00,0.0022
2701.00,0.0023
2698.00,0.0023
2695.00,0.0023
2692.00,0.0023
2689.00,0.0023
2686.00,0.0022
2683.00,0.0023
2680.00,0.0023
2677.00,0.0022
2674.00,0.0022
2671.00,0.0022
2668.00,0.0022
2665.00,0.0024
2662.00,0.0025
2659.00,0.0026
2656.00,0.0027
2653.00,0.0027
2650.00,0.0027
2647.00,0.0027
2644.00,0.0027
2641.00,0.0028
2638.00,0.0027
2635.00,0.0028
2632.00,0.0028
2629.00,0.0027
2626.00,0.0027
2623.00,0.0027
2620.00,0.0026
2617.00,0.0025
2614.00,0.0025
2611.00,0.0026
2608.00,0.0026
2605.00,0.0026
2602.00,0.0026
2599.00,0.0025
2596.00,0.0024
2593.00,0.0024
2590.00,0.0024
2587.00,0.0024
2584.00,0.0025
2581.00,0.0024
2578.00,0.0023
2575.00,0.0023
2572.00,0.0022
2569.00,0.0022
2566.00,0.0022
2563.00,0.0021
2560.00,0.0021
2557.00,0.0021
2554.00,0.0021
2551.00,0.0021
2548.00,0.0021
2545.00,0.0021
2542.00,0.0020
2539.00,0.0020
2536.00,0.0020
2533.00,0.0020
2530.00,0.0020
2527.00,0.0020
2524.00,0.0020
2521.00,0.0019
2518.00,0.0020
2515.00,0.0019
2512.00,0.0019
2509.00,0.0018
2506.00,0.0019
2503.00,0.0019
2500.00,0.0019
2497.00,0.0019
2494.00,0.0018
2491.00,0.0018
2488.00,0.0019
2485.00,0.0018
2482.00,0.0018
2479.00,0.0018
2476.00,0.0018
2473.00,0.0018
2470.00,0.0017
2467.00,0.0018
2464.00,0.0018
2461.00,0.0019
2458.00,0.0019
2455.00,0.0019
2452.00,0.0018
2449.00,0.0018
2446.00,0.0017
2443.00,0.0017
2440.00,0.0016
2437.00,0.0016
2434.00,0.0016
2431.00,0.0017
2428.00,0.0016
2425.00,0.0015
2422.00,0.0016
2419.00,0.0015
2416.00,0.0015
2413.00,0.0015
2410.00,0.0015
2407.00,0.0014
2404.00,0.0013
2401.00,0.0013
2398.00,0.0014
2395.00,0.0013
2392.00,0.0013
2389.00,0.0013
2386.00,0.0013
2383.00,0.0013
2380.00,0.0014
2377.00,0.0014
2374.00,0.0013
2371.00,0.0013
2368.00,0.0013
2365.00,0.0014
2362.00,0.0017
2359.00,0.0017
2356.00,0.0017
2353.00,0.0017
2350.00,0.0018
2347.00,0.0019
2344.00,0.0021
2341.00,0.0022
2338.00,0.0022
2335.00,0.0022
2332.00,0.0021
2329.00,0.0022
2326.00,0.0032
2323.00,0.0032
2320.00,0.0028
2317.00,0.0027
2314.00,0.0025
2311.00,0.0025
2308.00,0.0025
2305.00,0.0023
2302.00,0.0023
2299.00,0.0024
2296.00,0.0024
2293.00,0.0026
2290.00,0.0028
2287.00,0.0030
2284.00,0.0027
2281.00,0.0026
2278.00,0.0024
2275.00,0.0023
2272.00,0.0022
2269.00,0.0023
2266.00,0.0022
2263.00,0.0021
2260.00,0.0023
2257.00,0.0022
2254.00,0.0019
2251.00,0.0019
2248.00,0.0019
2245.00,0.0018
2242.00,0.0018
2239.00,0.0019
2236.00,0.0018
2233.00,0.0018
2230.00,0.0017
2227.00,0.0017
2224.00,0.0016
2221.00,0.0016
2218.00,0.0016
2215.00,0.0017
2212.00,0.0018
2209.00,0.0016
2206.00,0.0017
2203.00,0.0017
2200.00,0.0019
2197.00,0.0018
2194.00,0.0017
2191.00,0.0022
2188.00,0.0025
2185.00,0.0019
2182.00,0.0011
2179.00,0.0013
2176.00,0.0009
2173.00,0.0014
2170.00,0.0026
2167.00,0.0029
2164.00,0.0029
2161.00,0.0012
2158.00,-0.0019
2155.00,-0.0012
2152.00,-0.0003
2149.00,-0.0002
2146.00,-0.0003
2143.00,-0.0002
2140.00,-0.0001
2137.00,-0.0003
2134.00,-0.0008
2131.00,-0.0004
2128.00,0.0001
2125.00,0.0004
2122.00,0.0008
2119.00,0.0011
2116.00,0.0013
2113.00,0.0012
2110.00,0.0013
2107.00,0.0012
2104.00,0.0012
2101.00,0.0013
2098.00,0.0012
2095.00,0.0007
2092.00,0.0009
2089.00,0.0012
2086.00,0.0014
2083.00,0.0013
2080.00,0.0012
2077.00,0.0014
2074.00,0.0014
2071.00,0.0012
2068.00,0.0012
2065.00,0.0010
2062.00,0.0011
2059.00,0.0010
2056.00,0.0011
2053.00,0.0020
2050.00,0.0020
2047.00,0.0009
2044.00,0.0009
2041.00,0.0013
2038.00,0.0014
2035.00,0.0008
2032.00,0.0005
2029.00,0.0004
2026.00,0.0006
2023.00,0.0007
2020.00,0.0006
2017.00,0.0006
2014.00,0.0004
2011.00,0.0006
2008.00,0.0003
2005.00,0.0002
2002.00,0.0006
1999.00,0.0008
1996.00,0.0010
1993.00,0.0012
1990.00,0.0013
1987.00,0.0016
1984.00,0.0022
1981.00,0.0028
1978.00,0.0014
1975.00,0.0005
1972.00,0.0004
1969.00,0.0009
1966.00,0.0014
1963.00,0.0014
1960.00,0.0014
1957.00,0.0019
1954.00,0.0026
1951.00,0.0027
1948.00,0.0032
1945.00,0.0036
1942.00,0.0037
1939.00,0.0034
1936.00,0.0029
1933.00,0.0022
1930.00,0.0017
1927.00,0.0016
1924.00,0.0014
1921.00,0.0012
1918.00,0.0011
1915.00,0.0011
1912.00,0.0011
1909.00,0.0011
1906.00,0.0012
1903.00,0.0013
1900.00,0.0014
1897.00,0.0016
1894.00,0.0020
1891.00,0.0023
1888.00,0.0027
1885.00,0.0029
1882.00,0.0031
1879.00,0.0033
1876.00,0.0034
1873.00,0.0036
1870.00,0.0037
1867.00,0.0036
1864.00,0.0033
1861.00,0.0028
1858.00,0.0022
1855.00,0.0018
1852.00,0.0016
1849.00,0.0016
1846.00,0.0015
1843.00,0.0014
1840.00,0.0013
1837.00,0.0014
1834.00,0.0015
1831.00,0.0017
1828.00,0.0020
1825.00,0.0021
1822.00,0.0024
1819.00,0.0025
1816.00,0.0027
1813.00,0.0032
1810.00,0.0036
1807.00,0.0039
1804.00,0.0043
1801.00,0.0043
1798.00,0.0040
1795.00,0.0036
1792.00,0.0032
1789.00,0.0026
1786.00,0.0025
1783.00,0.0023
1780.00,0.0023
1777.00,0.0024
1774.00,0.0024
1771.00,0.0025
1768.00,0.0025
1765.00,0.0026
1762.00,0.0028
1759.00,0.0031
1756.00,0.0034
1753.00,0.0040
1750.00,0.0044
1747.00,0.0045
1744.00,0.0048
1741.00,0.0047
1738.00,0.0047
1735.00,0.0048
1732.00,0.0044
1729.00,0.0041
1726.00,0.0040
1723.00,0.0039
1720.00,0.0038
1717.00,0.0037
1714.00,0.0035
1711.00,0.0035
1708.00,0.0034
1705.00,0.0034
1702.00,0.0035
1699.00,0.0035
1696.00,0.0035
1693.00,0.0037
1690.00,0.0040
1687.00,0.0042
1684.00,0.0045
1681.00,0.0048
1678.00,0.0050
1675.00,0.0052
1672.00,0.0054
1669.00,0.0055
1666.00,0.0055
1663.00,0.0055
1660.00,0.0053
1657.00,0.0052
1654.00,0.0048
1651.00,0.0045
1648.00,0.0043
1645.00,0.0041
1642.00,0.0039
1639.00,0.0039
1636.00,0.0036
1633.00,0.0036
1630.00,0.0036
1627.00,0.0037
1624.00,0.0038
1621.00,0.0039
1618.00,0.0040
1615.00,0.0046
1612.00,0.0056
1609.00,0.0084
1606.00,0.0147
1603.00,0.0226
1600.00,0.0242
1597.00,0.0175
1594.00,0.0115
1591.00,0.0085
1588.00,0.0078
1585.00,0.0100
1582.00,0.0104
1579.00,0.0074
1576.00,0.0050
1573.00,0.0042
1570.00,0.0037
1567.00,0.0034
1564.00,0.0032
1561.00,0.0032
1558.00,0.0032
1555.00,0.0034
1552.00,0.0039
1549.00,0.0043
1546.00,0.0046
1543.00,0.0047
1540.00,0.0043
1537.00,0.0042
1534.00,0.0040
1531.00,0.0036
1528.00,0.0035
1525.00,0.0033
1522.00,0.0032
1519.00,0.0034
1516.00,0.0035
1513.00,0.0038
1510.00,0.0043
1507.00,0.0045
1504.00,0.0057
1501.00,0.0086
1498.00,0.0186
1495.00,0.0470
1492.00,0.0611
1489.00,0.0367
1486.00,0.0189
1483.00,0.0118
1480.00,0.0083
1477.00,0.0069
1474.00,0.0062
1471.00,0.0061
1468.00,0.0066
1465.00,0.0072
1462.00,0.0087
1459.00,0.0131
1456.00,0.0352
1453.00,0.0587
1450.00,0.0580
1447.00,0.0438
1444.00,0.0344
1441.00,0.0267
1438.00,0.0213
1435.00,0.0150
1432.00,0.0114
1429.00,0.0088
1426.00,0.0075
1423.00,0.0066
1420.00,0.0063
1417.00,0.0057
1414.00,0.0052
1411.00,0.0049
1408.00,0.0047
1405.00,0.0044
1402.00,0.0040
1399.00,0.0039
1396.00,0.0038
1393.00,0.0042
1390.00,0.0052
1387.00,0.0065
1384.00,0.0076
1381.00,0.0088
1378.00,0.0102
1375.00,0.0115
1372.00,0.0121
1369.00,0.0123
1366.00,0.0122
1363.00,0.0122
1360.00,0.0117
1357.00,0.0112
1354.00,0.0110
1351.00,0.0110
1348.00,0.0109
1345.00,0.0106
1342.00,0.0101
1339.00,0.0098
1336.00,0.0099
1333.00,0.0106
1330.00,0.0115
1327.00,0.0116
1324.00,0.0112
1321.00,0.0109
1318.00,0.0110
1315.00,0.0113
1312.00,0.0116
1309.00,0.0113
1306.00,0.0108
1303.00,0.0102
1300.00,0.0098
1297.00,0.0095
1294.00,0.0095
1291.00,0.0093
1288.00,0.0089
1285.00,0.0085
1282.00,0.0084
1279.00,0.0081
1276.00,0.0074
1273.00,0.0067
1270.00,0.0061
1267.00,0.0055
1264.00,0.0052
1261.00,0.0050
1258.00,0.0049
1255.00,0.0048
1252.00,0.0048
1249.00,0.0049
1246.00,0.0052
1243.00,0.0052
1240.00,0.0052
1237.00,0.0052
1234.00,0.0053
1231.00,0.0055
1228.00,0.0058
1225.00,0.0060
1222.00,0.0062
1219.00,0.0062
1216.00,0.0064
1213.00,0.0066
1210.00,0.0071
1207.00,0.0076
1204.00,0.0083
1201.00,0.0090
1198.00,0.0096
1195.00,0.0098
1192.00,0.0099
1189.00,0.0100
1186.00,0.0108
1183.00,0.0124
1180.00,0.0124
1177.00,0.0099
1174.00,0.0076
1171.00,0.0066
1168.00,0.0062
1165.00,0.0061
1162.00,0.0066
1159.00,0.0085
1156.00,0.0110
1153.00,0.0109
1150.00,0.0079
1147.00,0.0057
1144.00,0.0046
1141.00,0.0041
1138.00,0.0038
1135.00,0.0038
1132.00,0.0039
1129.00,0.0041
1126.00,0.0043
1123.00,0.0046
1120.00,0.0052
1117.00,0.0059
1114.00,0.0066
1111.00,0.0068
1108.00,0.0067
1105.00,0.0067
1102.00,0.0068
1099.00,0.0070
1096.00,0.0072
1093.00,0.0074
1090.00,0.0077
1087.00,0.0082
1084.00,0.0091
1081.00,0.0105
1078.00,0.0118
1075.00,0.0137
1072.00,0.0159
1069.00,0.0171
1066.00,0.0165
1063.00,0.0145
1060.00,0.0126
1057.00,0.0113
1054.00,0.0104
1051.00,0.0099
1048.00,0.0095
1045.00,0.0094
1042.00,0.0095
1039.00,0.0104
1036.00,0.0140
1033.00,0.0221
1030.00,0.0304
1027.00,0.0321
1024.00,0.0262
1021.00,0.0205
1018.00,0.0172
1015.00,0.0151
1012.00,0.0136
1009.00,0.0129
1006.00,0.0134
1003.00,0.0140
1000.00,0.0122
997.00,0.0104
994.00,0.0099
991.00,0.0100
988.00,0.0105
985.00,0.0114
982.00,0.0121
979.00,0.0121
976.00,0.0111
973.00,0.0101
970.00,0.0104
967.00,0.0114
964.00,0.0120
961.00,0.0111
958.00,0.0091
955.00,0.0080
952.00,0.0078
949.00,0.0082
946.00,0.0090
943.00,0.0093
940.00,0.0089
937.00,0.0082
934.00,0.0076
931.00,0.0071
928.00,0.0071
925.00,0.0075
922.00,0.0082
919.00,0.0093
916.00,0.0114
913.00,0.0151
910.00,0.0197
907.00,0.0225
904.00,0.0213
901.00,0.0167
898.00,0.0120
895.00,0.0093
892.00,0.0081
889.00,0.0073
886.00,0.0068
883.00,0.0064
880.00,0.0061
877.00,0.0058
874.00,0.0056
871.00,0.0055
868.00,0.0054
865.00,0.0054
862.00,0.0053
859.00,0.0055
856.00,0.0058
853.00,0.0064
850.00,0.0077
847.00,0.0096
844.00,0.0111
841.00,0.0115
838.00,0.0103
835.00,0.0081
832.00,0.0062
829.00,0.0052
826.00,0.0050
823.00,0.0049
820.00,0.0048
817.00,0.0049
814.00,0.0050
811.00,0.0052
808.00,0.0053
805.00,0.0056
802.00,0.0060
799.00,0.0065
796.00,0.0075
793.00,0.0088
790.00,0.0107
787.00,0.0129
784.00,0.0154
781.00,0.0188
778.00,0.0238
775.00,0.0312
772.00,0.0406
769.00,0.0519
766.00,0.0635
763.00,0.0749
760.00,0.0869
757.00,0.0964
754.00,0.0991
751.00,0.0981
748.00,0.0969
745.00,0.0883
742.00,0.0697
739.00,0.0514
736.00,0.0368
733.00,0.0244
730.00,0.0164
727.00,0.0128
724.00,0.0115
721.00,0.0113
718.00,0.0120
715.00,0.0144
712.00,0.0214
709.00,0.0392
706.00,0.0754
703.00,0.1330
700.00,0.2080
697.00,0.2864
694.00,0.3081
691.00,0.2227
688.00,0.1390
685.00,0.0955
682.00,0.0725
679.00,0.0584
676.00,0.0496
673.00,0.0438
670.00,0.0397
667.00,0.0352
664.00,0.0312
661.00,0.0275
658.00,0.0240
655.00,0.0210
652.00,0.0188
649.00,0.0171
646.00,0.0159
643.00,0.0152
640.00,0.0151
637.00,0.0157
634.00,0.0169
631.00,0.0180
628.00,0.0190
625.00,0.0198
622.00,0.0207
619.00,0.0205
616.00,0.0187
613.00,0.0174
610.00,0.0167
607.00,0.0162
604.00,0.0163
601.00,0.0167
598.00,0.0172
595.00,0.0178
592.00,0.0183
589.00,0.0192
586.00,0.0203
583.00,0.0218
580.00,0.0240
577.00,0.0272
574.00,0.0310
571.00,0.0352
568.00,0.0390
565.00,0.0428
562.00,0.0467
559.00,0.0508
556.00,0.0551
553.00,0.0595
550.00,0.0651
547.00,0.0728
544.00,0.0829
541.00,0.0928
538.00,0.0977
535.00,0.0921
532.00,0.0786
529.00,0.0643
526.00,0.0520
523.00,0.0422
520.00,0.0364
517.00,0.0323
514.00,0.0295
511.00,0.0263
508.00,0.0240
505.00,0.0220
502.00,0.0203
499.00,0.0185
496.00,0.0174
493.00,0.0165
490.00,0.0160
487.00,0.0155
484.00,0.0145
481.00,0.0139
478.00,0.0137
475.00,0.0130
472.00,0.0130
469.00,0.0130
466.00,0.0129
463.00,0.0123
460.00,0.0123
457.00,0.0118
454.00,0.0109
451.00,0.0117
448.00,0.0116
445.00,0.0104
442.00,0.0098
439.00,0.0102
436.00,0.0115
433.00,0.0097
430.00,0.0092
427.00,0.0103
424.00,0.0100
421.00,0.0080
418.00,0.0084
415.00,0.0082
412.00,0.0092
409.00,0.0126
406.00,0.0133
403.00,0.0116
400.00,0.0102