File: FTIR/Olivia/2025_07_15_Polystyrene_Std_scan3.csv
Created as New Dataset,Sample 821 By YargerLab Date Tuesday, July 15 2025
cm-1,A
4000.00,0.0014
3997.00,0.0014
3994.00,0.0014
3991.00,0.0014
3988.00,0.0014
3985.00,0.0014
3982.00,0.0014
3979.00,0.0014
3976.00,0.0014
3973.00,0.0014
3970.00,0.0014
3967.00,0.0014
3964.00,0.0013
3961.00,0.0014
3958.00,0.0014
3955.00,0.0014
3952.00,0.0013
3949.00,0.0013
3946.00,0.0013
3943.00,0.0013
3940.00,0.0013
3937.00,0.0014
3934.00,0.0013
3931.00,0.0013
3928.00,0.0013
3925.00,0.0013
3922.00,0.0012
3919.00,0.0012
3916.00,0.0012
3913.00,0.0013
3910.00,0.0013
3907.00,0.0012
3904.00,0.0010
3901.00,0.0010
3898.00,0.0011
3895.00,0.0012
3892.00,0.0012
3889.00,0.0012
3886.00,0.0011
3883.00,0.0010
3880.00,0.0011
3877.00,0.0011
3874.00,0.0011
3871.00,0.0009
3868.00,0.0009
3865.00,0.0010
3862.00,0.0011
3859.00,0.0011
3856.00,0.0009
3853.00,0.0009
3850.00,0.0010
3847.00,0.0012
3844.00,0.0012
3841.00,0.0010
3838.00,0.0009
3835.00,0.0009
3832.00,0.0011
3829.00,0.0012
3826.00,0.0012
3823.00,0.0010
3820.00,0.0010
3817.00,0.0010
3814.00,0.0012
3811.00,0.0012
3808.00,0.0012
3805.00,0.0011
3802.00,0.0010
3799.00,0.0010
3796.00,0.0012
3793.00,0.0012
3790.00,0.0014
3787.00,0.0014
3784.00,0.0014
3781.00,0.0013
3778.00,0.0013
3775.00,0.0014
3772.00,0.0013
3769.00,0.0013
3766.00,0.0013
3763.00,0.0013
3760.00,0.0012
3757.00,0.0012
3754.00,0.0011
3751.00,0.0009
3748.00,0.0008
3745.00,0.0008
3742.00,0.0009
3739.00,0.0010
3736.00,0.0009
3733.00,0.0008
3730.00,0.0010
3727.00,0.0011
3724.00,0.0010
3721.00,0.0012
3718.00,0.0012
3715.00,0.0011
3712.00,0.0010
3709.00,0.0008
3706.00,0.0011
3703.00,0.0012
3700.00,0.0012
3697.00,0.0012
3694.00,0.0011
3691.00,0.0009
3688.00,0.0008
3685.00,0.0008
3682.00,0.0008
3679.00,0.0006
3676.00,0.0003
3673.00,-0.0000
3670.00,0.0001
3667.00,0.0002
3664.00,0.0003
3661.00,0.0003
3658.00,0.0003
3655.00,0.0001
3652.00,-0.0000
3649.00,-0.0000
3646.00,0.0001
3643.00,0.0004
3640.00,0.0006
3637.00,0.0005
3634.00,0.0008
3631.00,0.0008
3628.00,0.0008
3625.00,0.0009
3622.00,0.0010
3619.00,0.0010
3616.00,0.0010
3613.00,0.0010
3610.00,0.0010
3607.00,0.0011
3604.00,0.0013
3601.00,0.0013
3598.00,0.0013
3595.00,0.0012
3592.00,0.0012
3589.00,0.0013
3586.00,0.0012
3583.00,0.0013
3580.00,0.0013
3577.00,0.0013
3574.00,0.0014
3571.00,0.0014
3568.00,0.0012
3565.00,0.0012
3562.00,0.0013
3559.00,0.0014
3556.00,0.0015
3553.00,0.0015
3550.00,0.0015
3547.00,0.0016
3544.00,0.0015
3541.00,0.0016
3538.00,0.0016
3535.00,0.0017
3532.00,0.0017
3529.00,0.0016
3526.00,0.0016
3523.00,0.0017
3520.00,0.0017
3517.00,0.0017
3514.00,0.0017
3511.00,0.0017
3508.00,0.0017
3505.00,0.0017
3502.00,0.0018
3499.00,0.0018
3496.00,0.0019
3493.00,0.0019
3490.00,0.0018
3487.00,0.0019
3484.00,0.0018
3481.00,0.0018
3478.00,0.0019
3475.00,0.0019
3472.00,0.0019
3469.00,0.0019
3466.00,0.0019
3463.00,0.0019
3460.00,0.0020
3457.00,0.0020
3454.00,0.0020
3451.00,0.0019
3448.00,0.0019
3445.00,0.0019
3442.00,0.0020
3439.00,0.0020
3436.00,0.0020
3433.00,0.0019
3430.00,0.0020
3427.00,0.0019
3424.00,0.0019
3421.00,0.0019
3418.00,0.0019
3415.00,0.0019
3412.00,0.0019
3409.00,0.0019
3406.00,0.0020
3403.00,0.0020
3400.00,0.0019
3397.00,0.0019
3394.00,0.0019
3391.00,0.0019
3388.00,0.0019
3385.00,0.0020
3382.00,0.0020
3379.00,0.0020
3376.00,0.0019
3373.00,0.0019
3370.00,0.0019
3367.00,0.0019
3364.00,0.0019
3361.00,0.0020
3358.00,0.0019
3355.00,0.0019
3352.00,0.0019
3349.00,0.0019
3346.00,0.0019
3343.00,0.0019
3340.00,0.0019
3337.00,0.0019
3334.00,0.0019
3331.00,0.0019
3328.00,0.0019
3325.00,0.0019
3322.00,0.0019
3319.00,0.0019
3316.00,0.0019
3313.00,0.0019
3310.00,0.0019
3307.00,0.0019
3304.00,0.0019
3301.00,0.0019
3298.00,0.0019
3295.00,0.0019
3292.00,0.0018
3289.00,0.0018
3286.00,0.0018
3283.00,0.0018
3280.00,0.0018
3277.00,0.0018
3274.00,0.0018
3271.00,0.0018
3268.00,0.0018
3265.00,0.0018
3262.00,0.0018
3259.00,0.0018
3256.00,0.0018
3253.00,0.0018
3250.00,0.0017
3247.00,0.0017
3244.00,0.0017
3241.00,0.0017
3238.00,0.0017
3235.00,0.0016
3232.00,0.0016
3229.00,0.0016
3226.00,0.0016
3223.00,0.0016
3220.00,0.0016
3217.00,0.0016
3214.00,0.0017
3211.00,0.0017
3208.00,0.0017
3205.00,0.0017
3202.00,0.0016
3199.00,0.0016
3196.00,0.0016
3193.00,0.0016
3190.00,0.0016
3187.00,0.0016
3184.00,0.0016
3181.00,0.0015
3178.00,0.0016
3175.00,0.0016
3172.00,0.0016
3169.00,0.0017
3166.00,0.0017
3163.00,0.0017
3160.00,0.0017
3157.00,0.0017
3154.00,0.0016
3151.00,0.0016
3148.00,0.0016
3145.00,0.0016
3142.00,0.0016
3139.00,0.0016
3136.00,0.0016
3133.00,0.0016
3130.00,0.0016
3127.00,0.0016
3124.00,0.0017
3121.00,0.0018
3118.00,0.0019
3115.00,0.0021
3112.00,0.0025
3109.00,0.0031
3106.00,0.0036
3103.00,0.0038
3100.00,0.0037
3097.00,0.0036
3094.00,0.0038
3091.00,0.0047
3088.00,0.0063
3085.00,0.0082
3082.00,0.0091
3079.00,0.0083
3076.00,0.0071
3073.00,0.0067
3070.00,0.0072
3067.00,0.0086
3064.00,0.0106
3061.00,0.0122
3058.00,0.0121
3055.00,0.0103
3052.00,0.0084
3049.00,0.0071
3046.00,0.0065
3043.00,0.0066
3040.00,0.0075
3037.00,0.0092
3034.00,0.0122
3031.00,0.0167
3028.00,0.0216
3025.00,0.0237
3022.00,0.0205
3019.00,0.0145
3016.00,0.0095
3013.00,0.0064
3010.00,0.0048
3007.00,0.0040
3004.00,0.0037
3001.00,0.0031
2998.00,0.0016
2995.00,-0.0002
2992.00,-0.0015
2989.00,-0.0023
2986.00,-0.0032
2983.00,-0.0056
2980.00,-0.0063
2977.00,-0.0048
2974.00,-0.0041
2971.00,-0.0039
2968.00,-0.0026
2965.00,-0.0013
2962.00,-0.0003
2959.00,0.0008
2956.00,0.0020
2953.00,0.0033
2950.00,0.0049
2947.00,0.0067
2944.00,0.0089
2941.00,0.0113
2938.00,0.0139
2935.00,0.0167
2932.00,0.0197
2929.00,0.0226
2926.00,0.0248
2923.00,0.0261
2920.00,0.0261
2917.00,0.0252
2914.00,0.0236
2911.00,0.0216
2908.00,0.0193
2905.00,0.0171
2902.00,0.0148
2899.00,0.0126
2896.00,0.0107
2893.00,0.0091
2890.00,0.0079
2887.00,0.0071
2884.00,0.0065
2881.00,0.0061
2878.00,0.0060
2875.00,0.0057
2872.00,0.0055
2869.00,0.0055
2866.00,0.0059
2863.00,0.0067
2860.00,0.0079
2857.00,0.0093
2854.00,0.0107
2851.00,0.0117
2848.00,0.0119
2845.00,0.0110
2842.00,0.0092
2839.00,0.0071
2836.00,0.0053
2833.00,0.0041
2830.00,0.0034
2827.00,0.0030
2824.00,0.0028
2821.00,0.0027
2818.00,0.0026
2815.00,0.0025
2812.00,0.0025
2809.00,0.0024
2806.00,0.0024
2803.00,0.0023
2800.00,0.0023
2797.00,0.0022
2794.00,0.0021
2791.00,0.0021
2788.00,0.0021
2785.00,0.0021
2782.00,0.0021
2779.00,0.0021
2776.00,0.0020
2773.00,0.0020
2770.00,0.0019
2767.00,0.0019
2764.00,0.0019
2761.00,0.0019
2758.00,0.0019
2755.00,0.0018
2752.00,0.0018
2749.00,0.0018
2746.00,0.0018
2743.00,0.0019
2740.00,0.0019
2737.00,0.0018
2734.00,0.0019
2731.00,0.0019
2728.00,0.0019
2725.00,0.0019
2722.00,0.0019
2719.00,0.0019
2716.00,0.0019
2713.00,0.0019
2710.00,0.0019
2707.00,0.0019
2704.00,0.0019
2701.00,0.0019
2698.00,0.0019
2695.00,0.0019
2692.00,0.0019
2689.00,0.0019
2686.00,0.0019
2683.00,0.0019
2680.00,0.0019
2677.00,0.0018
2674.00,0.0018
2671.00,0.0018
2668.00,0.0018
2665.00,0.0019
2662.00,0.0021
2659.00,0.0022
2656.00,0.0022
2653.00,0.0022
2650.00,0.0023
2647.00,0.0023
2644.00,0.0023
2641.00,0.0023
2638.00,0.0023
2635.00,0.0023
2632.00,0.0024
2629.00,0.0023
2626.00,0.0023
2623.00,0.0022
2620.00,0.0022
2617.00,0.0021
2614.00,0.0021
2611.00,0.0021
2608.00,0.0021
2605.00,0.0021
2602.00,0.0021
2599.00,0.0021
2596.00,0.0020
2593.00,0.0019
2590.00,0.0020
2587.00,0.0020
2584.00,0.0021
2581.00,0.0020
2578.00,0.0019
2575.00,0.0019
2572.00,0.0018
2569.00,0.0017
2566.00,0.0017
2563.00,0.0017
2560.00,0.0017
2557.00,0.0017
2554.00,0.0018
2551.00,0.0017
2548.00,0.0017
2545.00,0.0016
2542.00,0.0016
2539.00,0.0016
2536.00,0.0016
2533.00,0.0016
2530.00,0.0016
2527.00,0.0015
2524.00,0.0015
2521.00,0.0015
2518.00,0.0015
2515.00,0.0015
2512.00,0.0015
2509.00,0.0014
2506.00,0.0015
2503.00,0.0015
2500.00,0.0015
2497.00,0.0015
2494.00,0.0014
2491.00,0.0015
2488.00,0.0015
2485.00,0.0014
2482.00,0.0015
2479.00,0.0014
2476.00,0.0014
2473.00,0.0014
2470.00,0.0014
2467.00,0.0014
2464.00,0.0015
2461.00,0.0015
2458.00,0.0015
2455.00,0.0015
2452.00,0.0015
2449.00,0.0015
2446.00,0.0014
2443.00,0.0013
2440.00,0.0013
2437.00,0.0013
2434.00,0.0012
2431.00,0.0012
2428.00,0.0012
2425.00,0.0011
2422.00,0.0011
2419.00,0.0011
2416.00,0.0011
2413.00,0.0011
2410.00,0.0011
2407.00,0.0010
2404.00,0.0009
2401.00,0.0010
2398.00,0.0011
2395.00,0.0010
2392.00,0.0010
2389.00,0.0010
2386.00,0.0010
2383.00,0.0009
2380.00,0.0009
2377.00,0.0010
2374.00,0.0009
2371.00,0.0009
2368.00,0.0008
2365.00,0.0009
2362.00,0.0011
2359.00,0.0011
2356.00,0.0011
2353.00,0.0011
2350.00,0.0012
2347.00,0.0014
2344.00,0.0015
2341.00,0.0017
2338.00,0.0017
2335.00,0.0016
2332.00,0.0016
2329.00,0.0018
2326.00,0.0027
2323.00,0.0026
2320.00,0.0024
2317.00,0.0023
2314.00,0.0021
2311.00,0.0021
2308.00,0.0020
2305.00,0.0019
2302.00,0.0019
2299.00,0.0019
2296.00,0.0020
2293.00,0.0022
2290.00,0.0024
2287.00,0.0025
2284.00,0.0022
2281.00,0.0020
2278.00,0.0019
2275.00,0.0018
2272.00,0.0018
2269.00,0.0018
2266.00,0.0017
2263.00,0.0017
2260.00,0.0018
2257.00,0.0016
2254.00,0.0014
2251.00,0.0015
2248.00,0.0014
2245.00,0.0015
2242.00,0.0016
2239.00,0.0017
2236.00,0.0015
2233.00,0.0014
2230.00,0.0016
2227.00,0.0015
2224.00,0.0012
2221.00,0.0011
2218.00,0.0013
2215.00,0.0012
2212.00,0.0012
2209.00,0.0012
2206.00,0.0013
2203.00,0.0012
2200.00,0.0013
2197.00,0.0013
2194.00,0.0014
2191.00,0.0018
2188.00,0.0019
2185.00,0.0015
2182.00,0.0007
2179.00,0.0009
2176.00,0.0006
2173.00,0.0009
2170.00,0.0020
2167.00,0.0023
2164.00,0.0025
2161.00,0.0012
2158.00,-0.0020
2155.00,-0.0015
2152.00,-0.0007
2149.00,-0.0007
2146.00,-0.0008
2143.00,-0.0006
2140.00,-0.0004
2137.00,-0.0008
2134.00,-0.0013
2131.00,-0.0006
2128.00,-0.0003
2125.00,0.0001
2122.00,0.0005
2119.00,0.0007
2116.00,0.0009
2113.00,0.0009
2110.00,0.0009
2107.00,0.0009
2104.00,0.0008
2101.00,0.0008
2098.00,0.0008
2095.00,0.0004
2092.00,0.0005
2089.00,0.0008
2086.00,0.0009
2083.00,0.0010
2080.00,0.0011
2077.00,0.0010
2074.00,0.0010
2071.00,0.0009
2068.00,0.0006
2065.00,0.0007
2062.00,0.0008
2059.00,0.0007
2056.00,0.0007
2053.00,0.0016
2050.00,0.0016
2047.00,0.0007
2044.00,0.0007
2041.00,0.0009
2038.00,0.0009
2035.00,0.0004
2032.00,0.0002
2029.00,0.0002
2026.00,0.0001
2023.00,0.0003
2020.00,0.0004
2017.00,0.0003
2014.00,0.0001
2011.00,0.0002
2008.00,-0.0001
2005.00,-0.0004
2002.00,-0.0000
1999.00,0.0004
1996.00,0.0006
1993.00,0.0010
1990.00,0.0010
1987.00,0.0014
1984.00,0.0017
1981.00,0.0024
1978.00,0.0009
1975.00,0.0001
1972.00,0.0001
1969.00,0.0004
1966.00,0.0008
1963.00,0.0010
1960.00,0.0013
1957.00,0.0017
1954.00,0.0021
1951.00,0.0025
1948.00,0.0029
1945.00,0.0032
1942.00,0.0033
1939.00,0.0030
1936.00,0.0026
1933.00,0.0020
1930.00,0.0014
1927.00,0.0011
1924.00,0.0009
1921.00,0.0008
1918.00,0.0007
1915.00,0.0006
1912.00,0.0007
1909.00,0.0007
1906.00,0.0008
1903.00,0.0009
1900.00,0.0010
1897.00,0.0012
1894.00,0.0016
1891.00,0.0019
1888.00,0.0022
1885.00,0.0025
1882.00,0.0027
1879.00,0.0028
1876.00,0.0029
1873.00,0.0031
1870.00,0.0032
1867.00,0.0031
1864.00,0.0028
1861.00,0.0024
1858.00,0.0019
1855.00,0.0015
1852.00,0.0013
1849.00,0.0011
1846.00,0.0011
1843.00,0.0010
1840.00,0.0010
1837.00,0.0010
1834.00,0.0011
1831.00,0.0012
1828.00,0.0014
1825.00,0.0017
1822.00,0.0019
1819.00,0.0020
1816.00,0.0023
1813.00,0.0027
1810.00,0.0031
1807.00,0.0035
1804.00,0.0038
1801.00,0.0038
1798.00,0.0036
1795.00,0.0032
1792.00,0.0027
1789.00,0.0021
1786.00,0.0020
1783.00,0.0018
1780.00,0.0018
1777.00,0.0018
1774.00,0.0019
1771.00,0.0020
1768.00,0.0020
1765.00,0.0021
1762.00,0.0023
1759.00,0.0025
1756.00,0.0030
1753.00,0.0034
1750.00,0.0038
1747.00,0.0040
1744.00,0.0043
1741.00,0.0043
1738.00,0.0043
1735.00,0.0044
1732.00,0.0040
1729.00,0.0037
1726.00,0.0036
1723.00,0.0034
1720.00,0.0033
1717.00,0.0032
1714.00,0.0030
1711.00,0.0029
1708.00,0.0029
1705.00,0.0030
1702.00,0.0030
1699.00,0.0029
1696.00,0.0029
1693.00,0.0031
1690.00,0.0033
1687.00,0.0035
1684.00,0.0038
1681.00,0.0039
1678.00,0.0040
1675.00,0.0042
1672.00,0.0043
1669.00,0.0043
1666.00,0.0043
1663.00,0.0043
1660.00,0.0041
1657.00,0.0040
1654.00,0.0038
1651.00,0.0035
1648.00,0.0034
1645.00,0.0032
1642.00,0.0031
1639.00,0.0031
1636.00,0.0029
1633.00,0.0029
1630.00,0.0029
1627.00,0.0030
1624.00,0.0031
1621.00,0.0032
1618.00,0.0034
1615.00,0.0040
1612.00,0.0050
1609.00,0.0077
1606.00,0.0138
1603.00,0.0215
1600.00,0.0230
1597.00,0.0166
1594.00,0.0107
1591.00,0.0079
1588.00,0.0072
1585.00,0.0092
1582.00,0.0098
1579.00,0.0068
1576.00,0.0045
1573.00,0.0036
1570.00,0.0032
1567.00,0.0029
1564.00,0.0028
1561.00,0.0027
1558.00,0.0027
1555.00,0.0029
1552.00,0.0033
1549.00,0.0037
1546.00,0.0040
1543.00,0.0041
1540.00,0.0038
1537.00,0.0037
1534.00,0.0035
1531.00,0.0031
1528.00,0.0029
1525.00,0.0028
1522.00,0.0027
1519.00,0.0028
1516.00,0.0029
1513.00,0.0032
1510.00,0.0036
1507.00,0.0039
1504.00,0.0051
1501.00,0.0080
1498.00,0.0175
1495.00,0.0446
1492.00,0.0583
1489.00,0.0349
1486.00,0.0178
1483.00,0.0109
1480.00,0.0075
1477.00,0.0061
1474.00,0.0053
1471.00,0.0052
1468.00,0.0058
1465.00,0.0063
1462.00,0.0076
1459.00,0.0119
1456.00,0.0331
1453.00,0.0556
1450.00,0.0554
1447.00,0.0418
1444.00,0.0326
1441.00,0.0252
1438.00,0.0200
1435.00,0.0139
1432.00,0.0105
1429.00,0.0079
1426.00,0.0066
1423.00,0.0058
1420.00,0.0055
1417.00,0.0049
1414.00,0.0045
1411.00,0.0041
1408.00,0.0038
1405.00,0.0035
1402.00,0.0030
1399.00,0.0027
1396.00,0.0025
1393.00,0.0028
1390.00,0.0038
1387.00,0.0050
1384.00,0.0061
1381.00,0.0073
1378.00,0.0087
1375.00,0.0101
1372.00,0.0109
1369.00,0.0112
1366.00,0.0112
1363.00,0.0112
1360.00,0.0108
1357.00,0.0105
1354.00,0.0103
1351.00,0.0103
1348.00,0.0102
1345.00,0.0098
1342.00,0.0093
1339.00,0.0089
1336.00,0.0090
1333.00,0.0097
1330.00,0.0105
1327.00,0.0107
1324.00,0.0103
1321.00,0.0100
1318.00,0.0101
1315.00,0.0105
1312.00,0.0107
1309.00,0.0104
1306.00,0.0099
1303.00,0.0093
1300.00,0.0089
1297.00,0.0086
1294.00,0.0085
1291.00,0.0083
1288.00,0.0079
1285.00,0.0077
1282.00,0.0075
1279.00,0.0072
1276.00,0.0065
1273.00,0.0057
1270.00,0.0050
1267.00,0.0045
1264.00,0.0041
1261.00,0.0039
1258.00,0.0038
1255.00,0.0037
1252.00,0.0037
1249.00,0.0039
1246.00,0.0042
1243.00,0.0042
1240.00,0.0042
1237.00,0.0042
1234.00,0.0044
1231.00,0.0046
1228.00,0.0049
1225.00,0.0053
1222.00,0.0055
1219.00,0.0056
1216.00,0.0057
1213.00,0.0061
1210.00,0.0065
1207.00,0.0070
1204.00,0.0076
1201.00,0.0083
1198.00,0.0088
1195.00,0.0090
1192.00,0.0090
1189.00,0.0091
1186.00,0.0099
1183.00,0.0114
1180.00,0.0114
1177.00,0.0088
1174.00,0.0066
1171.00,0.0055
1168.00,0.0050
1165.00,0.0049
1162.00,0.0053
1159.00,0.0070
1156.00,0.0095
1153.00,0.0093
1150.00,0.0065
1147.00,0.0044
1144.00,0.0034
1141.00,0.0029
1138.00,0.0027
1135.00,0.0028
1132.00,0.0029
1129.00,0.0031
1126.00,0.0033
1123.00,0.0037
1120.00,0.0043
1117.00,0.0050
1114.00,0.0057
1111.00,0.0060
1108.00,0.0059
1105.00,0.0058
1102.00,0.0059
1099.00,0.0061
1096.00,0.0063
1093.00,0.0064
1090.00,0.0066
1087.00,0.0071
1084.00,0.0080
1081.00,0.0093
1078.00,0.0105
1075.00,0.0122
1072.00,0.0144
1069.00,0.0157
1066.00,0.0151
1063.00,0.0132
1060.00,0.0115
1057.00,0.0103
1054.00,0.0095
1051.00,0.0090
1048.00,0.0088
1045.00,0.0087
1042.00,0.0088
1039.00,0.0097
1036.00,0.0133
1033.00,0.0212
1030.00,0.0292
1027.00,0.0308
1024.00,0.0251
1021.00,0.0197
1018.00,0.0164
1015.00,0.0143
1012.00,0.0129
1009.00,0.0122
1006.00,0.0127
1003.00,0.0133
1000.00,0.0116
997.00,0.0098
994.00,0.0094
991.00,0.0095
988.00,0.0100
985.00,0.0108
982.00,0.0115
979.00,0.0114
976.00,0.0102
973.00,0.0091
970.00,0.0092
967.00,0.0101
964.00,0.0107
961.00,0.0098
958.00,0.0077
955.00,0.0066
952.00,0.0064
949.00,0.0069
946.00,0.0076
943.00,0.0080
940.00,0.0077
937.00,0.0072
934.00,0.0067
931.00,0.0063
928.00,0.0065
925.00,0.0069
922.00,0.0076
919.00,0.0088
916.00,0.0108
913.00,0.0145
910.00,0.0188
907.00,0.0216
904.00,0.0205
901.00,0.0160
898.00,0.0114
895.00,0.0089
892.00,0.0076
889.00,0.0069
886.00,0.0064
883.00,0.0060
880.00,0.0057
877.00,0.0055
874.00,0.0052
871.00,0.0051
868.00,0.0050
865.00,0.0050
862.00,0.0050
859.00,0.0051
856.00,0.0053
853.00,0.0059
850.00,0.0072
847.00,0.0091
844.00,0.0106
841.00,0.0109
838.00,0.0098
835.00,0.0076
832.00,0.0057
829.00,0.0048
826.00,0.0045
823.00,0.0043
820.00,0.0042
817.00,0.0043
814.00,0.0045
811.00,0.0047
808.00,0.0049
805.00,0.0051
802.00,0.0054
799.00,0.0060
796.00,0.0070
793.00,0.0084
790.00,0.0103
787.00,0.0123
784.00,0.0149
781.00,0.0183
778.00,0.0231
775.00,0.0301
772.00,0.0391
769.00,0.0501
766.00,0.0614
763.00,0.0725
760.00,0.0842
757.00,0.0934
754.00,0.0960
751.00,0.0950
748.00,0.0936
745.00,0.0855
742.00,0.0676
739.00,0.0496
736.00,0.0356
733.00,0.0238
730.00,0.0160
727.00,0.0124
724.00,0.0111
721.00,0.0109
718.00,0.0116
715.00,0.0140
712.00,0.0208
709.00,0.0382
706.00,0.0735
703.00,0.1298
700.00,0.2028
697.00,0.2786
694.00,0.3006
691.00,0.2181
688.00,0.1364
685.00,0.0940
682.00,0.0712
679.00,0.0571
676.00,0.0486
673.00,0.0431
670.00,0.0392
667.00,0.0347
664.00,0.0307
661.00,0.0270
658.00,0.0234
655.00,0.0205
652.00,0.0184
649.00,0.0167
646.00,0.0153
643.00,0.0147
640.00,0.0146
637.00,0.0152
634.00,0.0165
631.00,0.0176
628.00,0.0185
625.00,0.0193
622.00,0.0205
619.00,0.0202
616.00,0.0184
613.00,0.0173
610.00,0.0165
607.00,0.0155
604.00,0.0157
601.00,0.0163
598.00,0.0167
595.00,0.0175
592.00,0.0180
589.00,0.0188
586.00,0.0199
583.00,0.0211
580.00,0.0236
577.00,0.0268
574.00,0.0303
571.00,0.0343
568.00,0.0383
565.00,0.0424
562.00,0.0461
559.00,0.0498
556.00,0.0542
553.00,0.0589
550.00,0.0641
547.00,0.0715
544.00,0.0819
541.00,0.0920
538.00,0.0968
535.00,0.0912
532.00,0.0783
529.00,0.0638
526.00,0.0514
523.00,0.0419
520.00,0.0364
517.00,0.0326
514.00,0.0290
511.00,0.0264
508.00,0.0241
505.00,0.0222
502.00,0.0203
499.00,0.0186
496.00,0.0172
493.00,0.0165
490.00,0.0158
487.00,0.0150
484.00,0.0146
481.00,0.0147
478.00,0.0140
475.00,0.0128
472.00,0.0134
469.00,0.0133
466.00,0.0124
463.00,0.0126
460.00,0.0126
457.00,0.0126
454.00,0.0116
451.00,0.0116
448.00,0.0114
445.00,0.0107
442.00,0.0106
439.00,0.0102
436.00,0.0108
433.00,0.0110
430.00,0.0096
427.00,0.0098
424.00,0.0089
421.00,0.0096
418.00,0.0097
415.00,0.0087
412.00,0.0085
409.00,0.0114
406.00,0.0131
403.00,0.0113
400.00,0.0088