File: FTIR/Olivia/2025_08_04_1CBN_3PVP90kDa_MC_powder_scan1.csv
Created as New Dataset,Sample 1054 By YargerLab Date Monday, August 04 2025
cm-1,A
4000.00,0.0033
3997.00,0.0033
3994.00,0.0032
3991.00,0.0032
3988.00,0.0032
3985.00,0.0033
3982.00,0.0033
3979.00,0.0032
3976.00,0.0033
3973.00,0.0033
3970.00,0.0033
3967.00,0.0033
3964.00,0.0032
3961.00,0.0032
3958.00,0.0032
3955.00,0.0032
3952.00,0.0033
3949.00,0.0032
3946.00,0.0032
3943.00,0.0032
3940.00,0.0032
3937.00,0.0033
3934.00,0.0032
3931.00,0.0032
3928.00,0.0032
3925.00,0.0032
3922.00,0.0032
3919.00,0.0032
3916.00,0.0032
3913.00,0.0032
3910.00,0.0032
3907.00,0.0032
3904.00,0.0032
3901.00,0.0032
3898.00,0.0032
3895.00,0.0031
3892.00,0.0032
3889.00,0.0031
3886.00,0.0031
3883.00,0.0031
3880.00,0.0031
3877.00,0.0030
3874.00,0.0031
3871.00,0.0031
3868.00,0.0031
3865.00,0.0031
3862.00,0.0031
3859.00,0.0032
3856.00,0.0031
3853.00,0.0030
3850.00,0.0030
3847.00,0.0031
3844.00,0.0031
3841.00,0.0031
3838.00,0.0030
3835.00,0.0030
3832.00,0.0030
3829.00,0.0031
3826.00,0.0031
3823.00,0.0030
3820.00,0.0030
3817.00,0.0030
3814.00,0.0030
3811.00,0.0030
3808.00,0.0030
3805.00,0.0031
3802.00,0.0030
3799.00,0.0030
3796.00,0.0030
3793.00,0.0030
3790.00,0.0030
3787.00,0.0031
3784.00,0.0031
3781.00,0.0031
3778.00,0.0031
3775.00,0.0030
3772.00,0.0030
3769.00,0.0031
3766.00,0.0031
3763.00,0.0031
3760.00,0.0031
3757.00,0.0031
3754.00,0.0031
3751.00,0.0031
3748.00,0.0030
3745.00,0.0029
3742.00,0.0029
3739.00,0.0030
3736.00,0.0029
3733.00,0.0029
3730.00,0.0029
3727.00,0.0029
3724.00,0.0029
3721.00,0.0029
3718.00,0.0029
3715.00,0.0029
3712.00,0.0029
3709.00,0.0028
3706.00,0.0028
3703.00,0.0028
3700.00,0.0028
3697.00,0.0028
3694.00,0.0029
3691.00,0.0028
3688.00,0.0028
3685.00,0.0029
3682.00,0.0030
3679.00,0.0030
3676.00,0.0029
3673.00,0.0029
3670.00,0.0029
3667.00,0.0029
3664.00,0.0030
3661.00,0.0030
3658.00,0.0030
3655.00,0.0031
3652.00,0.0031
3649.00,0.0031
3646.00,0.0031
3643.00,0.0031
3640.00,0.0032
3637.00,0.0032
3634.00,0.0033
3631.00,0.0033
3628.00,0.0033
3625.00,0.0034
3622.00,0.0035
3619.00,0.0036
3616.00,0.0036
3613.00,0.0037
3610.00,0.0038
3607.00,0.0038
3604.00,0.0038
3601.00,0.0039
3598.00,0.0040
3595.00,0.0041
3592.00,0.0042
3589.00,0.0043
3586.00,0.0044
3583.00,0.0045
3580.00,0.0045
3577.00,0.0046
3574.00,0.0047
3571.00,0.0049
3568.00,0.0050
3565.00,0.0051
3562.00,0.0052
3559.00,0.0054
3556.00,0.0056
3553.00,0.0057
3550.00,0.0059
3547.00,0.0061
3544.00,0.0062
3541.00,0.0063
3538.00,0.0064
3535.00,0.0066
3532.00,0.0068
3529.00,0.0070
3526.00,0.0072
3523.00,0.0073
3520.00,0.0075
3517.00,0.0077
3514.00,0.0079
3511.00,0.0080
3508.00,0.0082
3505.00,0.0085
3502.00,0.0086
3499.00,0.0088
3496.00,0.0090
3493.00,0.0093
3490.00,0.0096
3487.00,0.0099
3484.00,0.0103
3481.00,0.0106
3478.00,0.0110
3475.00,0.0113
3472.00,0.0118
3469.00,0.0122
3466.00,0.0127
3463.00,0.0132
3460.00,0.0136
3457.00,0.0141
3454.00,0.0147
3451.00,0.0152
3448.00,0.0156
3445.00,0.0162
3442.00,0.0168
3439.00,0.0175
3436.00,0.0182
3433.00,0.0189
3430.00,0.0198
3427.00,0.0205
3424.00,0.0213
3421.00,0.0223
3418.00,0.0232
3415.00,0.0239
3412.00,0.0247
3409.00,0.0253
3406.00,0.0258
3403.00,0.0261
3400.00,0.0263
3397.00,0.0262
3394.00,0.0261
3391.00,0.0258
3388.00,0.0253
3385.00,0.0248
3382.00,0.0243
3379.00,0.0237
3376.00,0.0231
3373.00,0.0226
3370.00,0.0221
3367.00,0.0216
3364.00,0.0212
3361.00,0.0207
3358.00,0.0204
3355.00,0.0201
3352.00,0.0198
3349.00,0.0195
3346.00,0.0193
3343.00,0.0191
3340.00,0.0190
3337.00,0.0188
3334.00,0.0188
3331.00,0.0188
3328.00,0.0188
3325.00,0.0188
3322.00,0.0189
3319.00,0.0190
3316.00,0.0192
3313.00,0.0194
3310.00,0.0195
3307.00,0.0198
3304.00,0.0200
3301.00,0.0203
3298.00,0.0206
3295.00,0.0208
3292.00,0.0212
3289.00,0.0215
3286.00,0.0219
3283.00,0.0221
3280.00,0.0225
3277.00,0.0228
3274.00,0.0231
3271.00,0.0234
3268.00,0.0238
3265.00,0.0241
3262.00,0.0244
3259.00,0.0247
3256.00,0.0250
3253.00,0.0253
3250.00,0.0256
3247.00,0.0258
3244.00,0.0261
3241.00,0.0263
3238.00,0.0264
3235.00,0.0264
3232.00,0.0264
3229.00,0.0264
3226.00,0.0263
3223.00,0.0262
3220.00,0.0260
3217.00,0.0258
3214.00,0.0254
3211.00,0.0251
3208.00,0.0247
3205.00,0.0242
3202.00,0.0237
3199.00,0.0232
3196.00,0.0227
3193.00,0.0222
3190.00,0.0216
3187.00,0.0211
3184.00,0.0206
3181.00,0.0200
3178.00,0.0195
3175.00,0.0190
3172.00,0.0184
3169.00,0.0178
3166.00,0.0172
3163.00,0.0167
3160.00,0.0162
3157.00,0.0157
3154.00,0.0151
3151.00,0.0145
3148.00,0.0141
3145.00,0.0137
3142.00,0.0133
3139.00,0.0128
3136.00,0.0125
3133.00,0.0121
3130.00,0.0118
3127.00,0.0115
3124.00,0.0113
3121.00,0.0110
3118.00,0.0108
3115.00,0.0105
3112.00,0.0102
3109.00,0.0098
3106.00,0.0095
3103.00,0.0092
3100.00,0.0090
3097.00,0.0090
3094.00,0.0090
3091.00,0.0090
3088.00,0.0092
3085.00,0.0092
3082.00,0.0092
3079.00,0.0091
3076.00,0.0089
3073.00,0.0088
3070.00,0.0087
3067.00,0.0087
3064.00,0.0087
3061.00,0.0087
3058.00,0.0088
3055.00,0.0089
3052.00,0.0089
3049.00,0.0089
3046.00,0.0087
3043.00,0.0087
3040.00,0.0090
3037.00,0.0093
3034.00,0.0096
3031.00,0.0096
3028.00,0.0094
3025.00,0.0089
3022.00,0.0085
3019.00,0.0083
3016.00,0.0081
3013.00,0.0082
3010.00,0.0084
3007.00,0.0088
3004.00,0.0095
3001.00,0.0105
2998.00,0.0119
2995.00,0.0136
2992.00,0.0150
2989.00,0.0159
2986.00,0.0171
2983.00,0.0194
2980.00,0.0225
2977.00,0.0241
2974.00,0.0257
2971.00,0.0295
2968.00,0.0319
2965.00,0.0333
2962.00,0.0354
2959.00,0.0359
2956.00,0.0334
2953.00,0.0299
2950.00,0.0274
2947.00,0.0271
2944.00,0.0287
2941.00,0.0315
2938.00,0.0357
2935.00,0.0420
2932.00,0.0497
2929.00,0.0565
2926.00,0.0590
2923.00,0.0567
2920.00,0.0518
2917.00,0.0462
2914.00,0.0409
2911.00,0.0366
2908.00,0.0333
2905.00,0.0306
2902.00,0.0283
2899.00,0.0262
2896.00,0.0244
2893.00,0.0231
2890.00,0.0220
2887.00,0.0210
2884.00,0.0204
2881.00,0.0207
2878.00,0.0223
2875.00,0.0250
2872.00,0.0266
2869.00,0.0264
2866.00,0.0266
2863.00,0.0295
2860.00,0.0354
2857.00,0.0405
2854.00,0.0416
2851.00,0.0391
2848.00,0.0328
2845.00,0.0258
2842.00,0.0205
2839.00,0.0170
2836.00,0.0147
2833.00,0.0132
2830.00,0.0120
2827.00,0.0111
2824.00,0.0103
2821.00,0.0098
2818.00,0.0092
2815.00,0.0088
2812.00,0.0085
2809.00,0.0083
2806.00,0.0081
2803.00,0.0079
2800.00,0.0076
2797.00,0.0074
2794.00,0.0072
2791.00,0.0070
2788.00,0.0068
2785.00,0.0067
2782.00,0.0066
2779.00,0.0064
2776.00,0.0063
2773.00,0.0063
2770.00,0.0062
2767.00,0.0062
2764.00,0.0062
2761.00,0.0061
2758.00,0.0062
2755.00,0.0062
2752.00,0.0062
2749.00,0.0063
2746.00,0.0063
2743.00,0.0064
2740.00,0.0065
2737.00,0.0067
2734.00,0.0070
2731.00,0.0072
2728.00,0.0071
2725.00,0.0070
2722.00,0.0068
2719.00,0.0067
2716.00,0.0065
2713.00,0.0065
2710.00,0.0064
2707.00,0.0064
2704.00,0.0064
2701.00,0.0063
2698.00,0.0063
2695.00,0.0062
2692.00,0.0061
2689.00,0.0060
2686.00,0.0059
2683.00,0.0059
2680.00,0.0058
2677.00,0.0058
2674.00,0.0059
2671.00,0.0060
2668.00,0.0061
2665.00,0.0062
2662.00,0.0064
2659.00,0.0065
2656.00,0.0065
2653.00,0.0066
2650.00,0.0065
2647.00,0.0065
2644.00,0.0065
2641.00,0.0064
2638.00,0.0063
2635.00,0.0062
2632.00,0.0061
2629.00,0.0060
2626.00,0.0059
2623.00,0.0057
2620.00,0.0057
2617.00,0.0057
2614.00,0.0056
2611.00,0.0056
2608.00,0.0057
2605.00,0.0057
2602.00,0.0057
2599.00,0.0058
2596.00,0.0059
2593.00,0.0059
2590.00,0.0059
2587.00,0.0059
2584.00,0.0060
2581.00,0.0059
2578.00,0.0058
2575.00,0.0057
2572.00,0.0056
2569.00,0.0056
2566.00,0.0057
2563.00,0.0056
2560.00,0.0054
2557.00,0.0052
2554.00,0.0051
2551.00,0.0052
2548.00,0.0053
2545.00,0.0052
2542.00,0.0052
2539.00,0.0053
2536.00,0.0054
2533.00,0.0053
2530.00,0.0052
2527.00,0.0051
2524.00,0.0051
2521.00,0.0049
2518.00,0.0049
2515.00,0.0048
2512.00,0.0047
2509.00,0.0047
2506.00,0.0047
2503.00,0.0046
2500.00,0.0046
2497.00,0.0045
2494.00,0.0045
2491.00,0.0044
2488.00,0.0044
2485.00,0.0044
2482.00,0.0044
2479.00,0.0043
2476.00,0.0042
2473.00,0.0042
2470.00,0.0042
2467.00,0.0042
2464.00,0.0043
2461.00,0.0043
2458.00,0.0043
2455.00,0.0043
2452.00,0.0043
2449.00,0.0043
2446.00,0.0042
2443.00,0.0042
2440.00,0.0041
2437.00,0.0041
2434.00,0.0039
2431.00,0.0040
2428.00,0.0040
2425.00,0.0039
2422.00,0.0038
2419.00,0.0039
2416.00,0.0040
2413.00,0.0040
2410.00,0.0040
2407.00,0.0039
2404.00,0.0039
2401.00,0.0038
2398.00,0.0038
2395.00,0.0038
2392.00,0.0038
2389.00,0.0037
2386.00,0.0036
2383.00,0.0034
2380.00,0.0032
2377.00,0.0032
2374.00,0.0033
2371.00,0.0033
2368.00,0.0032
2365.00,0.0032
2362.00,0.0032
2359.00,0.0033
2356.00,0.0033
2353.00,0.0033
2350.00,0.0033
2347.00,0.0035
2344.00,0.0035
2341.00,0.0036
2338.00,0.0036
2335.00,0.0036
2332.00,0.0036
2329.00,0.0039
2326.00,0.0048
2323.00,0.0047
2320.00,0.0042
2317.00,0.0041
2314.00,0.0040
2311.00,0.0038
2308.00,0.0039
2305.00,0.0039
2302.00,0.0040
2299.00,0.0040
2296.00,0.0042
2293.00,0.0044
2290.00,0.0047
2287.00,0.0050
2284.00,0.0048
2281.00,0.0045
2278.00,0.0043
2275.00,0.0042
2272.00,0.0042
2269.00,0.0040
2266.00,0.0038
2263.00,0.0036
2260.00,0.0036
2257.00,0.0036
2254.00,0.0035
2251.00,0.0036
2248.00,0.0037
2245.00,0.0036
2242.00,0.0037
2239.00,0.0039
2236.00,0.0038
2233.00,0.0038
2230.00,0.0036
2227.00,0.0037
2224.00,0.0036
2221.00,0.0036
2218.00,0.0037
2215.00,0.0037
2212.00,0.0035
2209.00,0.0036
2206.00,0.0037
2203.00,0.0037
2200.00,0.0037
2197.00,0.0038
2194.00,0.0037
2191.00,0.0039
2188.00,0.0041
2185.00,0.0037
2182.00,0.0031
2179.00,0.0035
2176.00,0.0034
2173.00,0.0036
2170.00,0.0043
2167.00,0.0047
2164.00,0.0050
2161.00,0.0034
2158.00,0.0000
2155.00,0.0008
2152.00,0.0018
2149.00,0.0018
2146.00,0.0019
2143.00,0.0019
2140.00,0.0018
2137.00,0.0016
2134.00,0.0014
2131.00,0.0018
2128.00,0.0022
2125.00,0.0025
2122.00,0.0025
2119.00,0.0028
2116.00,0.0031
2113.00,0.0031
2110.00,0.0029
2107.00,0.0029
2104.00,0.0029
2101.00,0.0029
2098.00,0.0027
2095.00,0.0023
2092.00,0.0025
2089.00,0.0028
2086.00,0.0031
2083.00,0.0033
2080.00,0.0033
2077.00,0.0031
2074.00,0.0031
2071.00,0.0031
2068.00,0.0030
2065.00,0.0028
2062.00,0.0029
2059.00,0.0029
2056.00,0.0025
2053.00,0.0029
2050.00,0.0032
2047.00,0.0025
2044.00,0.0030
2041.00,0.0030
2038.00,0.0031
2035.00,0.0030
2032.00,0.0025
2029.00,0.0025
2026.00,0.0024
2023.00,0.0023
2020.00,0.0020
2017.00,0.0020
2014.00,0.0021
2011.00,0.0020
2008.00,0.0015
2005.00,0.0012
2002.00,0.0019
1999.00,0.0024
1996.00,0.0025
1993.00,0.0024
1990.00,0.0028
1987.00,0.0030
1984.00,0.0033
1981.00,0.0039
1978.00,0.0026
1975.00,0.0018
1972.00,0.0018
1969.00,0.0018
1966.00,0.0022
1963.00,0.0022
1960.00,0.0016
1957.00,0.0016
1954.00,0.0019
1951.00,0.0021
1948.00,0.0021
1945.00,0.0022
1942.00,0.0023
1939.00,0.0023
1936.00,0.0023
1933.00,0.0024
1930.00,0.0024
1927.00,0.0025
1924.00,0.0025
1921.00,0.0028
1918.00,0.0029
1915.00,0.0029
1912.00,0.0034
1909.00,0.0044
1906.00,0.0042
1903.00,0.0034
1900.00,0.0032
1897.00,0.0033
1894.00,0.0037
1891.00,0.0034
1888.00,0.0031
1885.00,0.0030
1882.00,0.0030
1879.00,0.0031
1876.00,0.0030
1873.00,0.0029
1870.00,0.0028
1867.00,0.0029
1864.00,0.0031
1861.00,0.0031
1858.00,0.0031
1855.00,0.0032
1852.00,0.0034
1849.00,0.0035
1846.00,0.0036
1843.00,0.0037
1840.00,0.0034
1837.00,0.0033
1834.00,0.0031
1831.00,0.0030
1828.00,0.0030
1825.00,0.0030
1822.00,0.0031
1819.00,0.0030
1816.00,0.0029
1813.00,0.0030
1810.00,0.0032
1807.00,0.0033
1804.00,0.0032
1801.00,0.0033
1798.00,0.0035
1795.00,0.0035
1792.00,0.0036
1789.00,0.0037
1786.00,0.0037
1783.00,0.0036
1780.00,0.0037
1777.00,0.0039
1774.00,0.0040
1771.00,0.0040
1768.00,0.0041
1765.00,0.0040
1762.00,0.0042
1759.00,0.0044
1756.00,0.0042
1753.00,0.0040
1750.00,0.0039
1747.00,0.0040
1744.00,0.0042
1741.00,0.0042
1738.00,0.0043
1735.00,0.0044
1732.00,0.0048
1729.00,0.0052
1726.00,0.0055
1723.00,0.0058
1720.00,0.0056
1717.00,0.0059
1714.00,0.0065
1711.00,0.0072
1708.00,0.0074
1705.00,0.0080
1702.00,0.0084
1699.00,0.0101
1696.00,0.0125
1693.00,0.0149
1690.00,0.0172
1687.00,0.0194
1684.00,0.0216
1681.00,0.0239
1678.00,0.0259
1675.00,0.0277
1672.00,0.0293
1669.00,0.0311
1666.00,0.0330
1663.00,0.0345
1660.00,0.0359
1657.00,0.0368
1654.00,0.0371
1651.00,0.0367
1648.00,0.0371
1645.00,0.0367
1642.00,0.0370
1639.00,0.0365
1636.00,0.0355
1633.00,0.0372
1630.00,0.0441
1627.00,0.0585
1624.00,0.0717
1621.00,0.0779
1618.00,0.0734
1615.00,0.0615
1612.00,0.0610
1609.00,0.0597
1606.00,0.0504
1603.00,0.0397
1600.00,0.0319
1597.00,0.0282
1594.00,0.0288
1591.00,0.0353
1588.00,0.0467
1585.00,0.0559
1582.00,0.0575
1579.00,0.0532
1576.00,0.0449
1573.00,0.0379
1570.00,0.0343
1567.00,0.0309
1564.00,0.0254
1561.00,0.0202
1558.00,0.0154
1555.00,0.0143
1552.00,0.0134
1549.00,0.0128
1546.00,0.0121
1543.00,0.0110
1540.00,0.0106
1537.00,0.0107
1534.00,0.0103
1531.00,0.0103
1528.00,0.0103
1525.00,0.0104
1522.00,0.0111
1519.00,0.0124
1516.00,0.0145
1513.00,0.0165
1510.00,0.0176
1507.00,0.0181
1504.00,0.0199
1501.00,0.0236
1498.00,0.0336
1495.00,0.0402
1492.00,0.0337
1489.00,0.0246
1486.00,0.0196
1483.00,0.0171
1480.00,0.0160
1477.00,0.0161
1474.00,0.0179
1471.00,0.0249
1468.00,0.0361
1465.00,0.0434
1462.00,0.0436
1459.00,0.0437
1456.00,0.0405
1453.00,0.0378
1450.00,0.0381
1447.00,0.0409
1444.00,0.0462
1441.00,0.0519
1438.00,0.0555
1435.00,0.0592
1432.00,0.0639
1429.00,0.0664
1426.00,0.0660
1423.00,0.0636
1420.00,0.0601
1417.00,0.0532
1414.00,0.0483
1411.00,0.0464
1408.00,0.0499
1405.00,0.0587
1402.00,0.0676
1399.00,0.0692
1396.00,0.0615
1393.00,0.0496
1390.00,0.0436
1387.00,0.0465
1384.00,0.0445
1381.00,0.0426
1378.00,0.0432
1375.00,0.0392
1372.00,0.0335
1369.00,0.0360
1366.00,0.0449
1363.00,0.0494
1360.00,0.0569
1357.00,0.0510
1354.00,0.0430
1351.00,0.0409
1348.00,0.0415
1345.00,0.0405
1342.00,0.0364
1339.00,0.0316
1336.00,0.0296
1333.00,0.0314
1330.00,0.0337
1327.00,0.0338
1324.00,0.0327
1321.00,0.0323
1318.00,0.0315
1315.00,0.0295
1312.00,0.0285
1309.00,0.0307
1306.00,0.0370
1303.00,0.0477
1300.00,0.0544
1297.00,0.0533
1294.00,0.0548
1291.00,0.0561
1288.00,0.0588
1285.00,0.0645
1282.00,0.0656
1279.00,0.0582
1276.00,0.0504
1273.00,0.0463
1270.00,0.0430
1267.00,0.0399
1264.00,0.0366
1261.00,0.0328
1258.00,0.0297
1255.00,0.0280
1252.00,0.0279
1249.00,0.0309
1246.00,0.0369
1243.00,0.0424
1240.00,0.0458
1237.00,0.0523
1234.00,0.0591
1231.00,0.0571
1228.00,0.0492
1225.00,0.0430
1222.00,0.0401
1219.00,0.0410
1216.00,0.0447
1213.00,0.0455
1210.00,0.0396
1207.00,0.0339
1204.00,0.0339
1201.00,0.0408
1198.00,0.0520
1195.00,0.0622
1192.00,0.0603
1189.00,0.0492
1186.00,0.0374
1183.00,0.0298
1180.00,0.0260
1177.00,0.0242
1174.00,0.0236
1171.00,0.0234
1168.00,0.0235
1165.00,0.0244
1162.00,0.0280
1159.00,0.0389
1156.00,0.0571
1153.00,0.0588
1150.00,0.0397
1147.00,0.0268
1144.00,0.0230
1141.00,0.0226
1138.00,0.0248
1135.00,0.0327
1132.00,0.0515
1129.00,0.0710
1126.00,0.0698
1123.00,0.0547
1120.00,0.0393
1117.00,0.0325
1114.00,0.0313
1111.00,0.0290
1108.00,0.0268
1105.00,0.0294
1102.00,0.0403
1099.00,0.0482
1096.00,0.0390
1093.00,0.0271
1090.00,0.0214
1087.00,0.0191
1084.00,0.0183
1081.00,0.0183
1078.00,0.0189
1075.00,0.0197
1072.00,0.0211
1069.00,0.0236
1066.00,0.0269
1063.00,0.0330
1060.00,0.0464
1057.00,0.0697
1054.00,0.0898
1051.00,0.0967
1048.00,0.0952
1045.00,0.0800
1042.00,0.0599
1039.00,0.0476
1036.00,0.0461
1033.00,0.0499
1030.00,0.0644
1027.00,0.0845
1024.00,0.0768
1021.00,0.0539
1018.00,0.0391
1015.00,0.0312
1012.00,0.0277
1009.00,0.0296
1006.00,0.0375
1003.00,0.0429
1000.00,0.0399
997.00,0.0352
994.00,0.0321
991.00,0.0279
988.00,0.0231
985.00,0.0202
982.00,0.0187
979.00,0.0183
976.00,0.0184
973.00,0.0183
970.00,0.0179
967.00,0.0178
964.00,0.0188
961.00,0.0192
958.00,0.0162
955.00,0.0140
952.00,0.0133
949.00,0.0143
946.00,0.0146
943.00,0.0152
940.00,0.0177
937.00,0.0199
934.00,0.0215
931.00,0.0218
928.00,0.0202
925.00,0.0212
922.00,0.0243
919.00,0.0219
916.00,0.0168
913.00,0.0144
910.00,0.0136
907.00,0.0142
904.00,0.0170
901.00,0.0235
898.00,0.0262
895.00,0.0221
892.00,0.0237
889.00,0.0262
886.00,0.0191
883.00,0.0170
880.00,0.0190
877.00,0.0260
874.00,0.0404
871.00,0.0563
868.00,0.0566
865.00,0.0451
862.00,0.0350
859.00,0.0290
856.00,0.0326
853.00,0.0412
850.00,0.0497
847.00,0.0487
844.00,0.0397
841.00,0.0354
838.00,0.0393
835.00,0.0497
832.00,0.0518
829.00,0.0416
826.00,0.0306
823.00,0.0377
820.00,0.0608
817.00,0.0696
814.00,0.0638
811.00,0.0345
808.00,0.0232
805.00,0.0193
802.00,0.0179
799.00,0.0172
796.00,0.0168
793.00,0.0167
790.00,0.0167
787.00,0.0166
784.00,0.0168
781.00,0.0174
778.00,0.0193
775.00,0.0242
772.00,0.0233
769.00,0.0204
766.00,0.0201
763.00,0.0216
760.00,0.0242
757.00,0.0245
754.00,0.0237
751.00,0.0240
748.00,0.0249
745.00,0.0263
742.00,0.0287
739.00,0.0344
736.00,0.0460
733.00,0.0486
730.00,0.0460
727.00,0.0446
724.00,0.0363
721.00,0.0323
718.00,0.0341
715.00,0.0381
712.00,0.0371
709.00,0.0343
706.00,0.0337
703.00,0.0353
700.00,0.0382
697.00,0.0397
694.00,0.0378
691.00,0.0389
688.00,0.0432
685.00,0.0413
682.00,0.0396
679.00,0.0409
676.00,0.0443
673.00,0.0491
670.00,0.0518
667.00,0.0501
664.00,0.0504
661.00,0.0525
658.00,0.0504
655.00,0.0480
652.00,0.0478
649.00,0.0482
646.00,0.0483
643.00,0.0477
640.00,0.0470
637.00,0.0462
634.00,0.0457
631.00,0.0455
628.00,0.0460
625.00,0.0475
622.00,0.0506
619.00,0.0521
616.00,0.0489
613.00,0.0456
610.00,0.0458
607.00,0.0516
604.00,0.0593
601.00,0.0626
598.00,0.0626
595.00,0.0621
592.00,0.0613
589.00,0.0602
586.00,0.0596
583.00,0.0605
580.00,0.0634
577.00,0.0696
574.00,0.0688
571.00,0.0632
568.00,0.0601
565.00,0.0613
562.00,0.0655
559.00,0.0682
556.00,0.0650
553.00,0.0623
550.00,0.0643
547.00,0.0696
544.00,0.0698
541.00,0.0653
538.00,0.0622
535.00,0.0629
532.00,0.0676
529.00,0.0676
526.00,0.0619
523.00,0.0578
520.00,0.0555
517.00,0.0544
514.00,0.0539
511.00,0.0540
508.00,0.0552
505.00,0.0560
502.00,0.0549
499.00,0.0532
496.00,0.0537
493.00,0.0564
490.00,0.0561
487.00,0.0539
484.00,0.0530
481.00,0.0526
478.00,0.0526
475.00,0.0521
472.00,0.0517
469.00,0.0518
466.00,0.0518
463.00,0.0516
460.00,0.0514
457.00,0.0519
454.00,0.0521
451.00,0.0507
448.00,0.0509
445.00,0.0494
442.00,0.0494
439.00,0.0497
436.00,0.0481
433.00,0.0486
430.00,0.0476
427.00,0.0466
424.00,0.0456
421.00,0.0461
418.00,0.0466
415.00,0.0459
412.00,0.0480
409.00,0.0499
406.00,0.0489
403.00,0.0469
400.00,0.0447