File: FTIR/Olivia/2025_08_01_1CBN_3PVP10_drybatchpowder_scan3.csv
Created as New Dataset,Sample 1014 By YargerLab Date Friday, August 01 2025
cm-1,A
4000.00,0.0071
3997.00,0.0072
3994.00,0.0072
3991.00,0.0072
3988.00,0.0071
3985.00,0.0072
3982.00,0.0072
3979.00,0.0072
3976.00,0.0072
3973.00,0.0072
3970.00,0.0072
3967.00,0.0072
3964.00,0.0072
3961.00,0.0072
3958.00,0.0072
3955.00,0.0072
3952.00,0.0072
3949.00,0.0072
3946.00,0.0072
3943.00,0.0072
3940.00,0.0072
3937.00,0.0072
3934.00,0.0072
3931.00,0.0072
3928.00,0.0072
3925.00,0.0072
3922.00,0.0072
3919.00,0.0072
3916.00,0.0072
3913.00,0.0072
3910.00,0.0072
3907.00,0.0072
3904.00,0.0073
3901.00,0.0073
3898.00,0.0074
3895.00,0.0073
3892.00,0.0071
3889.00,0.0072
3886.00,0.0073
3883.00,0.0073
3880.00,0.0073
3877.00,0.0072
3874.00,0.0072
3871.00,0.0074
3868.00,0.0074
3865.00,0.0074
3862.00,0.0073
3859.00,0.0073
3856.00,0.0074
3853.00,0.0074
3850.00,0.0074
3847.00,0.0073
3844.00,0.0072
3841.00,0.0073
3838.00,0.0074
3835.00,0.0074
3832.00,0.0073
3829.00,0.0072
3826.00,0.0072
3823.00,0.0073
3820.00,0.0073
3817.00,0.0073
3814.00,0.0072
3811.00,0.0071
3808.00,0.0071
3805.00,0.0072
3802.00,0.0073
3799.00,0.0072
3796.00,0.0072
3793.00,0.0071
3790.00,0.0071
3787.00,0.0070
3784.00,0.0070
3781.00,0.0071
3778.00,0.0071
3775.00,0.0070
3772.00,0.0071
3769.00,0.0072
3766.00,0.0072
3763.00,0.0071
3760.00,0.0072
3757.00,0.0072
3754.00,0.0073
3751.00,0.0075
3748.00,0.0075
3745.00,0.0076
3742.00,0.0075
3739.00,0.0074
3736.00,0.0074
3733.00,0.0073
3730.00,0.0072
3727.00,0.0071
3724.00,0.0071
3721.00,0.0071
3718.00,0.0070
3715.00,0.0070
3712.00,0.0071
3709.00,0.0071
3706.00,0.0070
3703.00,0.0070
3700.00,0.0070
3697.00,0.0070
3694.00,0.0070
3691.00,0.0071
3688.00,0.0071
3685.00,0.0071
3682.00,0.0071
3679.00,0.0071
3676.00,0.0073
3673.00,0.0074
3670.00,0.0074
3667.00,0.0073
3664.00,0.0072
3661.00,0.0071
3658.00,0.0073
3655.00,0.0074
3652.00,0.0076
3649.00,0.0077
3646.00,0.0078
3643.00,0.0076
3640.00,0.0075
3637.00,0.0076
3634.00,0.0078
3631.00,0.0081
3628.00,0.0081
3625.00,0.0082
3622.00,0.0083
3619.00,0.0084
3616.00,0.0085
3613.00,0.0087
3610.00,0.0088
3607.00,0.0089
3604.00,0.0089
3601.00,0.0090
3598.00,0.0092
3595.00,0.0094
3592.00,0.0095
3589.00,0.0097
3586.00,0.0099
3583.00,0.0100
3580.00,0.0101
3577.00,0.0102
3574.00,0.0104
3571.00,0.0107
3568.00,0.0110
3565.00,0.0112
3562.00,0.0114
3559.00,0.0115
3556.00,0.0117
3553.00,0.0119
3550.00,0.0122
3547.00,0.0124
3544.00,0.0127
3541.00,0.0128
3538.00,0.0130
3535.00,0.0133
3532.00,0.0135
3529.00,0.0137
3526.00,0.0139
3523.00,0.0141
3520.00,0.0142
3517.00,0.0144
3514.00,0.0146
3511.00,0.0147
3508.00,0.0148
3505.00,0.0151
3502.00,0.0153
3499.00,0.0155
3496.00,0.0157
3493.00,0.0158
3490.00,0.0160
3487.00,0.0163
3484.00,0.0165
3481.00,0.0168
3478.00,0.0170
3475.00,0.0173
3472.00,0.0177
3469.00,0.0181
3466.00,0.0183
3463.00,0.0186
3460.00,0.0190
3457.00,0.0194
3454.00,0.0197
3451.00,0.0201
3448.00,0.0205
3445.00,0.0208
3442.00,0.0213
3439.00,0.0217
3436.00,0.0222
3433.00,0.0228
3430.00,0.0233
3427.00,0.0238
3424.00,0.0244
3421.00,0.0251
3418.00,0.0257
3415.00,0.0263
3412.00,0.0268
3409.00,0.0272
3406.00,0.0275
3403.00,0.0277
3400.00,0.0278
3397.00,0.0277
3394.00,0.0276
3391.00,0.0273
3388.00,0.0270
3385.00,0.0266
3382.00,0.0262
3379.00,0.0258
3376.00,0.0254
3373.00,0.0250
3370.00,0.0246
3367.00,0.0242
3364.00,0.0239
3361.00,0.0236
3358.00,0.0233
3355.00,0.0230
3352.00,0.0228
3349.00,0.0226
3346.00,0.0223
3343.00,0.0222
3340.00,0.0221
3337.00,0.0220
3334.00,0.0220
3331.00,0.0220
3328.00,0.0219
3325.00,0.0219
3322.00,0.0220
3319.00,0.0221
3316.00,0.0222
3313.00,0.0222
3310.00,0.0222
3307.00,0.0223
3304.00,0.0225
3301.00,0.0227
3298.00,0.0229
3295.00,0.0230
3292.00,0.0232
3289.00,0.0235
3286.00,0.0236
3283.00,0.0238
3280.00,0.0240
3277.00,0.0241
3274.00,0.0244
3271.00,0.0245
3268.00,0.0247
3265.00,0.0249
3262.00,0.0251
3259.00,0.0252
3256.00,0.0253
3253.00,0.0255
3250.00,0.0256
3247.00,0.0256
3244.00,0.0257
3241.00,0.0258
3238.00,0.0258
3235.00,0.0257
3232.00,0.0256
3229.00,0.0255
3226.00,0.0253
3223.00,0.0252
3220.00,0.0249
3217.00,0.0247
3214.00,0.0244
3211.00,0.0241
3208.00,0.0237
3205.00,0.0233
3202.00,0.0229
3199.00,0.0225
3196.00,0.0221
3193.00,0.0217
3190.00,0.0213
3187.00,0.0209
3184.00,0.0205
3181.00,0.0201
3178.00,0.0197
3175.00,0.0192
3172.00,0.0188
3169.00,0.0184
3166.00,0.0180
3163.00,0.0176
3160.00,0.0172
3157.00,0.0167
3154.00,0.0163
3151.00,0.0160
3148.00,0.0157
3145.00,0.0153
3142.00,0.0150
3139.00,0.0147
3136.00,0.0145
3133.00,0.0142
3130.00,0.0140
3127.00,0.0138
3124.00,0.0136
3121.00,0.0134
3118.00,0.0132
3115.00,0.0130
3112.00,0.0127
3109.00,0.0125
3106.00,0.0123
3103.00,0.0121
3100.00,0.0119
3097.00,0.0118
3094.00,0.0117
3091.00,0.0118
3088.00,0.0119
3085.00,0.0118
3082.00,0.0118
3079.00,0.0117
3076.00,0.0116
3073.00,0.0115
3070.00,0.0114
3067.00,0.0114
3064.00,0.0113
3061.00,0.0113
3058.00,0.0113
3055.00,0.0113
3052.00,0.0114
3049.00,0.0113
3046.00,0.0112
3043.00,0.0112
3040.00,0.0113
3037.00,0.0115
3034.00,0.0117
3031.00,0.0118
3028.00,0.0115
3025.00,0.0112
3022.00,0.0110
3019.00,0.0109
3016.00,0.0109
3013.00,0.0109
3010.00,0.0111
3007.00,0.0115
3004.00,0.0120
3001.00,0.0128
2998.00,0.0139
2995.00,0.0152
2992.00,0.0164
2989.00,0.0174
2986.00,0.0185
2983.00,0.0201
2980.00,0.0223
2977.00,0.0235
2974.00,0.0246
2971.00,0.0270
2968.00,0.0288
2965.00,0.0298
2962.00,0.0313
2959.00,0.0319
2956.00,0.0305
2953.00,0.0283
2950.00,0.0267
2947.00,0.0263
2944.00,0.0272
2941.00,0.0291
2938.00,0.0319
2935.00,0.0361
2932.00,0.0411
2929.00,0.0449
2926.00,0.0456
2923.00,0.0432
2920.00,0.0396
2917.00,0.0359
2914.00,0.0326
2911.00,0.0300
2908.00,0.0279
2905.00,0.0262
2902.00,0.0248
2899.00,0.0236
2896.00,0.0227
2893.00,0.0219
2890.00,0.0213
2887.00,0.0208
2884.00,0.0205
2881.00,0.0207
2878.00,0.0217
2875.00,0.0233
2872.00,0.0243
2869.00,0.0241
2866.00,0.0241
2863.00,0.0257
2860.00,0.0289
2857.00,0.0314
2854.00,0.0314
2851.00,0.0292
2848.00,0.0253
2845.00,0.0214
2842.00,0.0184
2839.00,0.0164
2836.00,0.0152
2833.00,0.0142
2830.00,0.0136
2827.00,0.0130
2824.00,0.0125
2821.00,0.0120
2818.00,0.0117
2815.00,0.0114
2812.00,0.0112
2809.00,0.0110
2806.00,0.0108
2803.00,0.0107
2800.00,0.0105
2797.00,0.0104
2794.00,0.0103
2791.00,0.0101
2788.00,0.0100
2785.00,0.0099
2782.00,0.0098
2779.00,0.0097
2776.00,0.0096
2773.00,0.0095
2770.00,0.0095
2767.00,0.0095
2764.00,0.0094
2761.00,0.0095
2758.00,0.0095
2755.00,0.0095
2752.00,0.0095
2749.00,0.0095
2746.00,0.0095
2743.00,0.0096
2740.00,0.0096
2737.00,0.0097
2734.00,0.0099
2731.00,0.0100
2728.00,0.0100
2725.00,0.0098
2722.00,0.0098
2719.00,0.0097
2716.00,0.0096
2713.00,0.0095
2710.00,0.0095
2707.00,0.0095
2704.00,0.0095
2701.00,0.0094
2698.00,0.0094
2695.00,0.0093
2692.00,0.0093
2689.00,0.0092
2686.00,0.0092
2683.00,0.0091
2680.00,0.0091
2677.00,0.0091
2674.00,0.0091
2671.00,0.0091
2668.00,0.0092
2665.00,0.0093
2662.00,0.0095
2659.00,0.0096
2656.00,0.0097
2653.00,0.0096
2650.00,0.0096
2647.00,0.0097
2644.00,0.0096
2641.00,0.0096
2638.00,0.0095
2635.00,0.0095
2632.00,0.0094
2629.00,0.0093
2626.00,0.0092
2623.00,0.0091
2620.00,0.0090
2617.00,0.0090
2614.00,0.0090
2611.00,0.0091
2608.00,0.0090
2605.00,0.0090
2602.00,0.0090
2599.00,0.0090
2596.00,0.0090
2593.00,0.0091
2590.00,0.0091
2587.00,0.0092
2584.00,0.0091
2581.00,0.0091
2578.00,0.0090
2575.00,0.0089
2572.00,0.0089
2569.00,0.0089
2566.00,0.0089
2563.00,0.0087
2560.00,0.0087
2557.00,0.0086
2554.00,0.0087
2551.00,0.0086
2548.00,0.0085
2545.00,0.0085
2542.00,0.0086
2539.00,0.0086
2536.00,0.0085
2533.00,0.0085
2530.00,0.0085
2527.00,0.0084
2524.00,0.0083
2521.00,0.0082
2518.00,0.0082
2515.00,0.0082
2512.00,0.0082
2509.00,0.0082
2506.00,0.0080
2503.00,0.0080
2500.00,0.0080
2497.00,0.0080
2494.00,0.0080
2491.00,0.0080
2488.00,0.0079
2485.00,0.0079
2482.00,0.0078
2479.00,0.0078
2476.00,0.0078
2473.00,0.0079
2470.00,0.0079
2467.00,0.0078
2464.00,0.0077
2461.00,0.0078
2458.00,0.0078
2455.00,0.0078
2452.00,0.0079
2449.00,0.0079
2446.00,0.0078
2443.00,0.0078
2440.00,0.0077
2437.00,0.0076
2434.00,0.0076
2431.00,0.0076
2428.00,0.0076
2425.00,0.0076
2422.00,0.0075
2419.00,0.0075
2416.00,0.0075
2413.00,0.0075
2410.00,0.0076
2407.00,0.0074
2404.00,0.0075
2401.00,0.0075
2398.00,0.0075
2395.00,0.0074
2392.00,0.0073
2389.00,0.0074
2386.00,0.0074
2383.00,0.0073
2380.00,0.0072
2377.00,0.0073
2374.00,0.0072
2371.00,0.0072
2368.00,0.0072
2365.00,0.0072
2362.00,0.0073
2359.00,0.0072
2356.00,0.0073
2353.00,0.0073
2350.00,0.0072
2347.00,0.0075
2344.00,0.0077
2341.00,0.0075
2338.00,0.0076
2335.00,0.0075
2332.00,0.0074
2329.00,0.0076
2326.00,0.0086
2323.00,0.0085
2320.00,0.0080
2317.00,0.0078
2314.00,0.0077
2311.00,0.0076
2308.00,0.0075
2305.00,0.0076
2302.00,0.0077
2299.00,0.0078
2296.00,0.0080
2293.00,0.0082
2290.00,0.0085
2287.00,0.0085
2284.00,0.0083
2281.00,0.0082
2278.00,0.0081
2275.00,0.0080
2272.00,0.0078
2269.00,0.0077
2266.00,0.0075
2263.00,0.0076
2260.00,0.0077
2257.00,0.0074
2254.00,0.0073
2251.00,0.0076
2248.00,0.0076
2245.00,0.0077
2242.00,0.0076
2239.00,0.0075
2236.00,0.0075
2233.00,0.0075
2230.00,0.0074
2227.00,0.0074
2224.00,0.0076
2221.00,0.0078
2218.00,0.0077
2215.00,0.0076
2212.00,0.0078
2209.00,0.0076
2206.00,0.0074
2203.00,0.0075
2200.00,0.0073
2197.00,0.0073
2194.00,0.0076
2191.00,0.0076
2188.00,0.0076
2185.00,0.0077
2182.00,0.0072
2179.00,0.0074
2176.00,0.0069
2173.00,0.0072
2170.00,0.0079
2167.00,0.0085
2164.00,0.0087
2161.00,0.0072
2158.00,0.0041
2155.00,0.0049
2152.00,0.0054
2149.00,0.0055
2146.00,0.0056
2143.00,0.0058
2140.00,0.0057
2137.00,0.0054
2134.00,0.0052
2131.00,0.0058
2128.00,0.0062
2125.00,0.0064
2122.00,0.0065
2119.00,0.0066
2116.00,0.0070
2113.00,0.0071
2110.00,0.0069
2107.00,0.0070
2104.00,0.0071
2101.00,0.0070
2098.00,0.0067
2095.00,0.0063
2092.00,0.0065
2089.00,0.0068
2086.00,0.0068
2083.00,0.0071
2080.00,0.0070
2077.00,0.0072
2074.00,0.0072
2071.00,0.0071
2068.00,0.0069
2065.00,0.0068
2062.00,0.0068
2059.00,0.0066
2056.00,0.0067
2053.00,0.0074
2050.00,0.0076
2047.00,0.0069
2044.00,0.0070
2041.00,0.0070
2038.00,0.0071
2035.00,0.0065
2032.00,0.0060
2029.00,0.0062
2026.00,0.0060
2023.00,0.0059
2020.00,0.0061
2017.00,0.0061
2014.00,0.0059
2011.00,0.0062
2008.00,0.0056
2005.00,0.0053
2002.00,0.0056
1999.00,0.0059
1996.00,0.0059
1993.00,0.0063
1990.00,0.0068
1987.00,0.0071
1984.00,0.0074
1981.00,0.0080
1978.00,0.0062
1975.00,0.0056
1972.00,0.0059
1969.00,0.0057
1966.00,0.0055
1963.00,0.0056
1960.00,0.0053
1957.00,0.0054
1954.00,0.0056
1951.00,0.0057
1948.00,0.0057
1945.00,0.0055
1942.00,0.0056
1939.00,0.0057
1936.00,0.0057
1933.00,0.0058
1930.00,0.0059
1927.00,0.0058
1924.00,0.0060
1921.00,0.0063
1918.00,0.0063
1915.00,0.0063
1912.00,0.0065
1909.00,0.0070
1906.00,0.0068
1903.00,0.0065
1900.00,0.0064
1897.00,0.0064
1894.00,0.0067
1891.00,0.0065
1888.00,0.0063
1885.00,0.0062
1882.00,0.0062
1879.00,0.0062
1876.00,0.0062
1873.00,0.0063
1870.00,0.0064
1867.00,0.0064
1864.00,0.0063
1861.00,0.0063
1858.00,0.0064
1855.00,0.0064
1852.00,0.0064
1849.00,0.0065
1846.00,0.0067
1843.00,0.0067
1840.00,0.0064
1837.00,0.0064
1834.00,0.0064
1831.00,0.0063
1828.00,0.0063
1825.00,0.0063
1822.00,0.0064
1819.00,0.0062
1816.00,0.0061
1813.00,0.0062
1810.00,0.0063
1807.00,0.0064
1804.00,0.0065
1801.00,0.0065
1798.00,0.0066
1795.00,0.0067
1792.00,0.0066
1789.00,0.0066
1786.00,0.0066
1783.00,0.0066
1780.00,0.0066
1777.00,0.0067
1774.00,0.0069
1771.00,0.0068
1768.00,0.0067
1765.00,0.0068
1762.00,0.0068
1759.00,0.0069
1756.00,0.0069
1753.00,0.0067
1750.00,0.0066
1747.00,0.0066
1744.00,0.0067
1741.00,0.0067
1738.00,0.0068
1735.00,0.0068
1732.00,0.0068
1729.00,0.0074
1726.00,0.0078
1723.00,0.0082
1720.00,0.0085
1717.00,0.0086
1714.00,0.0090
1711.00,0.0098
1708.00,0.0104
1705.00,0.0113
1702.00,0.0124
1699.00,0.0144
1696.00,0.0164
1693.00,0.0198
1690.00,0.0235
1687.00,0.0272
1684.00,0.0316
1681.00,0.0362
1678.00,0.0401
1675.00,0.0441
1672.00,0.0477
1669.00,0.0516
1666.00,0.0551
1663.00,0.0579
1660.00,0.0606
1657.00,0.0622
1654.00,0.0624
1651.00,0.0629
1648.00,0.0623
1645.00,0.0605
1642.00,0.0585
1639.00,0.0558
1636.00,0.0521
1633.00,0.0502
1630.00,0.0519
1627.00,0.0588
1624.00,0.0649
1621.00,0.0662
1618.00,0.0606
1615.00,0.0514
1612.00,0.0499
1609.00,0.0475
1606.00,0.0407
1603.00,0.0338
1600.00,0.0289
1597.00,0.0264
1594.00,0.0266
1591.00,0.0304
1588.00,0.0374
1585.00,0.0425
1582.00,0.0424
1579.00,0.0390
1576.00,0.0330
1573.00,0.0290
1570.00,0.0271
1567.00,0.0251
1564.00,0.0220
1561.00,0.0192
1558.00,0.0161
1555.00,0.0153
1552.00,0.0148
1549.00,0.0145
1546.00,0.0141
1543.00,0.0138
1540.00,0.0128
1537.00,0.0126
1534.00,0.0128
1531.00,0.0127
1528.00,0.0127
1525.00,0.0129
1522.00,0.0131
1519.00,0.0138
1516.00,0.0152
1513.00,0.0163
1510.00,0.0173
1507.00,0.0180
1504.00,0.0195
1501.00,0.0228
1498.00,0.0297
1495.00,0.0337
1492.00,0.0302
1489.00,0.0244
1486.00,0.0203
1483.00,0.0180
1480.00,0.0171
1477.00,0.0175
1474.00,0.0192
1471.00,0.0249
1468.00,0.0332
1465.00,0.0403
1462.00,0.0424
1459.00,0.0423
1456.00,0.0380
1453.00,0.0353
1450.00,0.0355
1447.00,0.0386
1444.00,0.0437
1441.00,0.0492
1438.00,0.0526
1435.00,0.0553
1432.00,0.0573
1429.00,0.0592
1426.00,0.0605
1423.00,0.0606
1420.00,0.0574
1417.00,0.0499
1414.00,0.0437
1411.00,0.0403
1408.00,0.0410
1405.00,0.0455
1402.00,0.0500
1399.00,0.0499
1396.00,0.0444
1393.00,0.0371
1390.00,0.0339
1387.00,0.0361
1384.00,0.0355
1381.00,0.0351
1378.00,0.0357
1375.00,0.0335
1372.00,0.0305
1369.00,0.0316
1366.00,0.0363
1363.00,0.0386
1360.00,0.0417
1357.00,0.0373
1354.00,0.0326
1351.00,0.0310
1348.00,0.0310
1345.00,0.0303
1342.00,0.0281
1339.00,0.0257
1336.00,0.0248
1333.00,0.0258
1330.00,0.0273
1327.00,0.0281
1324.00,0.0288
1321.00,0.0299
1318.00,0.0302
1315.00,0.0291
1312.00,0.0279
1309.00,0.0285
1306.00,0.0317
1303.00,0.0380
1300.00,0.0435
1297.00,0.0465
1294.00,0.0519
1291.00,0.0568
1288.00,0.0605
1285.00,0.0630
1282.00,0.0615
1279.00,0.0564
1276.00,0.0527
1273.00,0.0509
1270.00,0.0484
1267.00,0.0448
1264.00,0.0405
1261.00,0.0361
1258.00,0.0326
1255.00,0.0303
1252.00,0.0293
1249.00,0.0305
1246.00,0.0337
1243.00,0.0369
1240.00,0.0389
1237.00,0.0426
1234.00,0.0463
1231.00,0.0453
1228.00,0.0414
1225.00,0.0382
1222.00,0.0367
1219.00,0.0373
1216.00,0.0392
1213.00,0.0392
1210.00,0.0355
1207.00,0.0318
1204.00,0.0314
1201.00,0.0348
1198.00,0.0406
1195.00,0.0457
1192.00,0.0440
1189.00,0.0377
1186.00,0.0314
1183.00,0.0274
1180.00,0.0255
1177.00,0.0249
1174.00,0.0249
1171.00,0.0250
1168.00,0.0251
1165.00,0.0255
1162.00,0.0274
1159.00,0.0337
1156.00,0.0442
1153.00,0.0443
1150.00,0.0327
1147.00,0.0251
1144.00,0.0226
1141.00,0.0220
1138.00,0.0230
1135.00,0.0273
1132.00,0.0383
1129.00,0.0493
1126.00,0.0475
1123.00,0.0383
1120.00,0.0302
1117.00,0.0270
1114.00,0.0263
1111.00,0.0251
1108.00,0.0240
1105.00,0.0256
1102.00,0.0314
1099.00,0.0356
1096.00,0.0307
1093.00,0.0243
1090.00,0.0213
1087.00,0.0200
1084.00,0.0195
1081.00,0.0195
1078.00,0.0199
1075.00,0.0204
1072.00,0.0211
1069.00,0.0224
1066.00,0.0243
1063.00,0.0282
1060.00,0.0366
1057.00,0.0507
1054.00,0.0622
1051.00,0.0646
1048.00,0.0616
1045.00,0.0519
1042.00,0.0407
1039.00,0.0343
1036.00,0.0334
1033.00,0.0357
1030.00,0.0445
1027.00,0.0556
1024.00,0.0504
1021.00,0.0385
1018.00,0.0311
1015.00,0.0268
1012.00,0.0245
1009.00,0.0252
1006.00,0.0291
1003.00,0.0322
1000.00,0.0306
997.00,0.0282
994.00,0.0264
991.00,0.0241
988.00,0.0215
985.00,0.0199
982.00,0.0191
979.00,0.0187
976.00,0.0186
973.00,0.0185
970.00,0.0182
967.00,0.0181
964.00,0.0185
961.00,0.0187
958.00,0.0172
955.00,0.0160
952.00,0.0155
949.00,0.0159
946.00,0.0161
943.00,0.0166
940.00,0.0182
937.00,0.0198
934.00,0.0208
931.00,0.0208
928.00,0.0198
925.00,0.0203
922.00,0.0216
919.00,0.0203
916.00,0.0177
913.00,0.0164
910.00,0.0159
907.00,0.0163
904.00,0.0178
901.00,0.0212
898.00,0.0227
895.00,0.0206
892.00,0.0212
889.00,0.0223
886.00,0.0186
883.00,0.0173
880.00,0.0182
877.00,0.0219
874.00,0.0297
871.00,0.0384
868.00,0.0388
865.00,0.0329
862.00,0.0276
859.00,0.0247
856.00,0.0270
853.00,0.0317
850.00,0.0359
847.00,0.0357
844.00,0.0316
841.00,0.0295
838.00,0.0314
835.00,0.0363
832.00,0.0369
829.00,0.0316
826.00,0.0257
823.00,0.0291
820.00,0.0410
817.00,0.0451
814.00,0.0418
811.00,0.0279
808.00,0.0221
805.00,0.0197
802.00,0.0188
799.00,0.0184
796.00,0.0180
793.00,0.0179
790.00,0.0180
787.00,0.0181
784.00,0.0183
781.00,0.0188
778.00,0.0197
775.00,0.0222
772.00,0.0219
769.00,0.0208
766.00,0.0209
763.00,0.0216
760.00,0.0230
757.00,0.0237
754.00,0.0236
751.00,0.0241
748.00,0.0250
745.00,0.0261
742.00,0.0277
739.00,0.0311
736.00,0.0375
733.00,0.0391
730.00,0.0372
727.00,0.0358
724.00,0.0311
721.00,0.0288
718.00,0.0294
715.00,0.0313
712.00,0.0309
709.00,0.0297
706.00,0.0295
703.00,0.0303
700.00,0.0319
697.00,0.0329
694.00,0.0324
691.00,0.0331
688.00,0.0356
685.00,0.0351
682.00,0.0344
679.00,0.0352
676.00,0.0373
673.00,0.0401
670.00,0.0418
667.00,0.0415
664.00,0.0427
661.00,0.0444
658.00,0.0439
655.00,0.0431
652.00,0.0435
649.00,0.0439
646.00,0.0438
643.00,0.0431
640.00,0.0425
637.00,0.0417
634.00,0.0411
631.00,0.0407
628.00,0.0407
625.00,0.0414
622.00,0.0428
619.00,0.0436
616.00,0.0422
613.00,0.0406
610.00,0.0406
607.00,0.0434
604.00,0.0475
601.00,0.0496
598.00,0.0500
595.00,0.0496
592.00,0.0495
589.00,0.0493
586.00,0.0495
583.00,0.0507
580.00,0.0529
577.00,0.0563
574.00,0.0560
571.00,0.0531
568.00,0.0513
565.00,0.0518
562.00,0.0538
559.00,0.0549
556.00,0.0526
553.00,0.0508
550.00,0.0516
547.00,0.0542
544.00,0.0545
541.00,0.0519
538.00,0.0502
535.00,0.0505
532.00,0.0525
529.00,0.0529
526.00,0.0502
523.00,0.0480
520.00,0.0470
517.00,0.0463
514.00,0.0460
511.00,0.0459
508.00,0.0466
505.00,0.0472
502.00,0.0463
499.00,0.0455
496.00,0.0455
493.00,0.0470
490.00,0.0470
487.00,0.0463
484.00,0.0458
481.00,0.0458
478.00,0.0452
475.00,0.0448
472.00,0.0451
469.00,0.0451
466.00,0.0448
463.00,0.0441
460.00,0.0446
457.00,0.0448
454.00,0.0439
451.00,0.0439
448.00,0.0433
445.00,0.0429
442.00,0.0420
439.00,0.0414
436.00,0.0400
433.00,0.0403
430.00,0.0394
427.00,0.0386
424.00,0.0391
421.00,0.0389
418.00,0.0378
415.00,0.0374
412.00,0.0388
409.00,0.0428
406.00,0.0394
403.00,0.0367
400.00,0.0382