File: FTIR/Olivia/2025_06_06_Crystalline_Felodipine_Scan1.csv
Created as New Dataset,Sample 623 By YargerLab Date Friday, June 06 2025
cm-1,A
4000.00,0.0191
3997.00,0.0191
3994.00,0.0191
3991.00,0.0192
3988.00,0.0192
3985.00,0.0191
3982.00,0.0192
3979.00,0.0191
3976.00,0.0191
3973.00,0.0191
3970.00,0.0191
3967.00,0.0191
3964.00,0.0191
3961.00,0.0191
3958.00,0.0191
3955.00,0.0191
3952.00,0.0191
3949.00,0.0190
3946.00,0.0191
3943.00,0.0191
3940.00,0.0190
3937.00,0.0191
3934.00,0.0191
3931.00,0.0191
3928.00,0.0192
3925.00,0.0193
3922.00,0.0192
3919.00,0.0192
3916.00,0.0193
3913.00,0.0192
3910.00,0.0192
3907.00,0.0191
3904.00,0.0190
3901.00,0.0191
3898.00,0.0190
3895.00,0.0189
3892.00,0.0189
3889.00,0.0189
3886.00,0.0190
3883.00,0.0190
3880.00,0.0190
3877.00,0.0189
3874.00,0.0189
3871.00,0.0190
3868.00,0.0189
3865.00,0.0189
3862.00,0.0189
3859.00,0.0189
3856.00,0.0190
3853.00,0.0189
3850.00,0.0190
3847.00,0.0188
3844.00,0.0188
3841.00,0.0189
3838.00,0.0189
3835.00,0.0188
3832.00,0.0188
3829.00,0.0188
3826.00,0.0187
3823.00,0.0188
3820.00,0.0188
3817.00,0.0188
3814.00,0.0188
3811.00,0.0187
3808.00,0.0188
3805.00,0.0188
3802.00,0.0188
3799.00,0.0189
3796.00,0.0188
3793.00,0.0187
3790.00,0.0187
3787.00,0.0187
3784.00,0.0187
3781.00,0.0187
3778.00,0.0187
3775.00,0.0187
3772.00,0.0187
3769.00,0.0186
3766.00,0.0186
3763.00,0.0186
3760.00,0.0187
3757.00,0.0187
3754.00,0.0186
3751.00,0.0186
3748.00,0.0186
3745.00,0.0187
3742.00,0.0187
3739.00,0.0186
3736.00,0.0186
3733.00,0.0187
3730.00,0.0185
3727.00,0.0185
3724.00,0.0185
3721.00,0.0184
3718.00,0.0184
3715.00,0.0184
3712.00,0.0183
3709.00,0.0183
3706.00,0.0183
3703.00,0.0182
3700.00,0.0182
3697.00,0.0182
3694.00,0.0181
3691.00,0.0181
3688.00,0.0181
3685.00,0.0180
3682.00,0.0178
3679.00,0.0177
3676.00,0.0176
3673.00,0.0175
3670.00,0.0174
3667.00,0.0172
3664.00,0.0171
3661.00,0.0169
3658.00,0.0170
3655.00,0.0170
3652.00,0.0171
3649.00,0.0172
3646.00,0.0172
3643.00,0.0172
3640.00,0.0172
3637.00,0.0172
3634.00,0.0174
3631.00,0.0176
3628.00,0.0177
3625.00,0.0177
3622.00,0.0177
3619.00,0.0177
3616.00,0.0177
3613.00,0.0177
3610.00,0.0178
3607.00,0.0177
3604.00,0.0178
3601.00,0.0177
3598.00,0.0177
3595.00,0.0177
3592.00,0.0176
3589.00,0.0177
3586.00,0.0177
3583.00,0.0176
3580.00,0.0176
3577.00,0.0176
3574.00,0.0176
3571.00,0.0176
3568.00,0.0176
3565.00,0.0176
3562.00,0.0177
3559.00,0.0176
3556.00,0.0176
3553.00,0.0176
3550.00,0.0176
3547.00,0.0176
3544.00,0.0176
3541.00,0.0176
3538.00,0.0176
3535.00,0.0175
3532.00,0.0175
3529.00,0.0175
3526.00,0.0175
3523.00,0.0175
3520.00,0.0174
3517.00,0.0174
3514.00,0.0174
3511.00,0.0174
3508.00,0.0174
3505.00,0.0174
3502.00,0.0174
3499.00,0.0174
3496.00,0.0173
3493.00,0.0173
3490.00,0.0172
3487.00,0.0172
3484.00,0.0171
3481.00,0.0171
3478.00,0.0171
3475.00,0.0171
3472.00,0.0171
3469.00,0.0170
3466.00,0.0170
3463.00,0.0169
3460.00,0.0169
3457.00,0.0168
3454.00,0.0168
3451.00,0.0168
3448.00,0.0168
3445.00,0.0168
3442.00,0.0168
3439.00,0.0168
3436.00,0.0168
3433.00,0.0168
3430.00,0.0168
3427.00,0.0168
3424.00,0.0169
3421.00,0.0170
3418.00,0.0171
3415.00,0.0173
3412.00,0.0175
3409.00,0.0178
3406.00,0.0183
3403.00,0.0187
3400.00,0.0194
3397.00,0.0207
3394.00,0.0217
3391.00,0.0236
3388.00,0.0264
3385.00,0.0303
3382.00,0.0359
3379.00,0.0441
3376.00,0.0539
3373.00,0.0626
3370.00,0.0668
3367.00,0.0666
3364.00,0.0635
3361.00,0.0588
3358.00,0.0538
3355.00,0.0490
3352.00,0.0445
3349.00,0.0410
3346.00,0.0381
3343.00,0.0357
3340.00,0.0338
3337.00,0.0323
3334.00,0.0310
3331.00,0.0300
3328.00,0.0291
3325.00,0.0284
3322.00,0.0279
3319.00,0.0274
3316.00,0.0270
3313.00,0.0267
3310.00,0.0263
3307.00,0.0260
3304.00,0.0258
3301.00,0.0255
3298.00,0.0251
3295.00,0.0246
3292.00,0.0244
3289.00,0.0241
3286.00,0.0237
3283.00,0.0234
3280.00,0.0230
3277.00,0.0226
3274.00,0.0223
3271.00,0.0221
3268.00,0.0221
3265.00,0.0220
3262.00,0.0219
3259.00,0.0218
3256.00,0.0217
3253.00,0.0218
3250.00,0.0217
3247.00,0.0216
3244.00,0.0219
3241.00,0.0220
3238.00,0.0219
3235.00,0.0217
3232.00,0.0218
3229.00,0.0219
3226.00,0.0216
3223.00,0.0214
3220.00,0.0211
3217.00,0.0209
3214.00,0.0207
3211.00,0.0206
3208.00,0.0204
3205.00,0.0202
3202.00,0.0201
3199.00,0.0200
3196.00,0.0199
3193.00,0.0198
3190.00,0.0198
3187.00,0.0197
3184.00,0.0196
3181.00,0.0196
3178.00,0.0195
3175.00,0.0195
3172.00,0.0195
3169.00,0.0194
3166.00,0.0193
3163.00,0.0193
3160.00,0.0193
3157.00,0.0193
3154.00,0.0193
3151.00,0.0193
3148.00,0.0193
3145.00,0.0194
3142.00,0.0194
3139.00,0.0194
3136.00,0.0194
3133.00,0.0194
3130.00,0.0195
3127.00,0.0196
3124.00,0.0197
3121.00,0.0198
3118.00,0.0199
3115.00,0.0201
3112.00,0.0203
3109.00,0.0206
3106.00,0.0208
3103.00,0.0211
3100.00,0.0212
3097.00,0.0212
3094.00,0.0212
3091.00,0.0210
3088.00,0.0208
3085.00,0.0207
3082.00,0.0207
3079.00,0.0208
3076.00,0.0211
3073.00,0.0216
3070.00,0.0219
3067.00,0.0214
3064.00,0.0206
3061.00,0.0202
3058.00,0.0200
3055.00,0.0202
3052.00,0.0202
3049.00,0.0199
3046.00,0.0197
3043.00,0.0195
3040.00,0.0194
3037.00,0.0194
3034.00,0.0194
3031.00,0.0195
3028.00,0.0197
3025.00,0.0199
3022.00,0.0202
3019.00,0.0204
3016.00,0.0204
3013.00,0.0203
3010.00,0.0203
3007.00,0.0202
3004.00,0.0201
3001.00,0.0203
2998.00,0.0210
2995.00,0.0222
2992.00,0.0232
2989.00,0.0235
2986.00,0.0230
2983.00,0.0212
2980.00,0.0206
2977.00,0.0206
2974.00,0.0193
2971.00,0.0183
2968.00,0.0189
2965.00,0.0200
2962.00,0.0217
2959.00,0.0237
2956.00,0.0255
2953.00,0.0274
2950.00,0.0290
2947.00,0.0289
2944.00,0.0281
2941.00,0.0273
2938.00,0.0269
2935.00,0.0265
2932.00,0.0254
2929.00,0.0242
2926.00,0.0234
2923.00,0.0228
2920.00,0.0221
2917.00,0.0215
2914.00,0.0211
2911.00,0.0211
2908.00,0.0212
2905.00,0.0212
2902.00,0.0212
2899.00,0.0211
2896.00,0.0208
2893.00,0.0205
2890.00,0.0202
2887.00,0.0202
2884.00,0.0201
2881.00,0.0203
2878.00,0.0205
2875.00,0.0205
2872.00,0.0204
2869.00,0.0202
2866.00,0.0200
2863.00,0.0199
2860.00,0.0199
2857.00,0.0201
2854.00,0.0201
2851.00,0.0202
2848.00,0.0203
2845.00,0.0206
2842.00,0.0209
2839.00,0.0211
2836.00,0.0211
2833.00,0.0208
2830.00,0.0205
2827.00,0.0203
2824.00,0.0201
2821.00,0.0200
2818.00,0.0201
2815.00,0.0202
2812.00,0.0203
2809.00,0.0204
2806.00,0.0205
2803.00,0.0205
2800.00,0.0204
2797.00,0.0202
2794.00,0.0200
2791.00,0.0198
2788.00,0.0195
2785.00,0.0193
2782.00,0.0191
2779.00,0.0190
2776.00,0.0189
2773.00,0.0189
2770.00,0.0188
2767.00,0.0189
2764.00,0.0189
2761.00,0.0189
2758.00,0.0188
2755.00,0.0188
2752.00,0.0187
2749.00,0.0186
2746.00,0.0186
2743.00,0.0185
2740.00,0.0184
2737.00,0.0184
2734.00,0.0184
2731.00,0.0184
2728.00,0.0183
2725.00,0.0182
2722.00,0.0181
2719.00,0.0180
2716.00,0.0180
2713.00,0.0180
2710.00,0.0180
2707.00,0.0180
2704.00,0.0181
2701.00,0.0181
2698.00,0.0181
2695.00,0.0180
2692.00,0.0180
2689.00,0.0180
2686.00,0.0179
2683.00,0.0178
2680.00,0.0178
2677.00,0.0178
2674.00,0.0177
2671.00,0.0177
2668.00,0.0177
2665.00,0.0178
2662.00,0.0180
2659.00,0.0180
2656.00,0.0181
2653.00,0.0181
2650.00,0.0180
2647.00,0.0180
2644.00,0.0180
2641.00,0.0180
2638.00,0.0181
2635.00,0.0181
2632.00,0.0181
2629.00,0.0181
2626.00,0.0182
2623.00,0.0181
2620.00,0.0181
2617.00,0.0182
2614.00,0.0183
2611.00,0.0182
2608.00,0.0182
2605.00,0.0182
2602.00,0.0181
2599.00,0.0181
2596.00,0.0180
2593.00,0.0180
2590.00,0.0179
2587.00,0.0178
2584.00,0.0177
2581.00,0.0175
2578.00,0.0175
2575.00,0.0174
2572.00,0.0174
2569.00,0.0174
2566.00,0.0173
2563.00,0.0174
2560.00,0.0175
2557.00,0.0175
2554.00,0.0174
2551.00,0.0174
2548.00,0.0173
2545.00,0.0172
2542.00,0.0171
2539.00,0.0170
2536.00,0.0169
2533.00,0.0168
2530.00,0.0168
2527.00,0.0168
2524.00,0.0169
2521.00,0.0170
2518.00,0.0170
2515.00,0.0171
2512.00,0.0171
2509.00,0.0170
2506.00,0.0170
2503.00,0.0169
2500.00,0.0169
2497.00,0.0169
2494.00,0.0169
2491.00,0.0169
2488.00,0.0168
2485.00,0.0169
2482.00,0.0169
2479.00,0.0170
2476.00,0.0169
2473.00,0.0169
2470.00,0.0169
2467.00,0.0168
2464.00,0.0168
2461.00,0.0168
2458.00,0.0169
2455.00,0.0168
2452.00,0.0167
2449.00,0.0166
2446.00,0.0165
2443.00,0.0164
2440.00,0.0164
2437.00,0.0164
2434.00,0.0164
2431.00,0.0163
2428.00,0.0163
2425.00,0.0163
2422.00,0.0163
2419.00,0.0162
2416.00,0.0162
2413.00,0.0162
2410.00,0.0162
2407.00,0.0160
2404.00,0.0159
2401.00,0.0158
2398.00,0.0158
2395.00,0.0158
2392.00,0.0157
2389.00,0.0157
2386.00,0.0156
2383.00,0.0154
2380.00,0.0153
2377.00,0.0153
2374.00,0.0152
2371.00,0.0151
2368.00,0.0151
2365.00,0.0152
2362.00,0.0152
2359.00,0.0152
2356.00,0.0151
2353.00,0.0152
2350.00,0.0152
2347.00,0.0154
2344.00,0.0153
2341.00,0.0154
2338.00,0.0155
2335.00,0.0155
2332.00,0.0154
2329.00,0.0156
2326.00,0.0167
2323.00,0.0164
2320.00,0.0158
2317.00,0.0156
2314.00,0.0155
2311.00,0.0154
2308.00,0.0154
2305.00,0.0155
2302.00,0.0155
2299.00,0.0157
2296.00,0.0158
2293.00,0.0160
2290.00,0.0163
2287.00,0.0164
2284.00,0.0162
2281.00,0.0159
2278.00,0.0158
2275.00,0.0157
2272.00,0.0154
2269.00,0.0152
2266.00,0.0152
2263.00,0.0153
2260.00,0.0152
2257.00,0.0153
2254.00,0.0150
2251.00,0.0151
2248.00,0.0151
2245.00,0.0149
2242.00,0.0148
2239.00,0.0149
2236.00,0.0147
2233.00,0.0146
2230.00,0.0144
2227.00,0.0143
2224.00,0.0144
2221.00,0.0144
2218.00,0.0141
2215.00,0.0140
2212.00,0.0137
2209.00,0.0137
2206.00,0.0135
2203.00,0.0135
2200.00,0.0133
2197.00,0.0131
2194.00,0.0132
2191.00,0.0133
2188.00,0.0133
2185.00,0.0131
2182.00,0.0127
2179.00,0.0131
2176.00,0.0125
2173.00,0.0131
2170.00,0.0142
2167.00,0.0148
2164.00,0.0150
2161.00,0.0130
2158.00,0.0102
2155.00,0.0115
2152.00,0.0121
2149.00,0.0121
2146.00,0.0120
2143.00,0.0121
2140.00,0.0123
2137.00,0.0118
2134.00,0.0115
2131.00,0.0120
2128.00,0.0124
2125.00,0.0124
2122.00,0.0125
2119.00,0.0128
2116.00,0.0132
2113.00,0.0133
2110.00,0.0135
2107.00,0.0134
2104.00,0.0135
2101.00,0.0136
2098.00,0.0134
2095.00,0.0129
2092.00,0.0131
2089.00,0.0134
2086.00,0.0132
2083.00,0.0133
2080.00,0.0133
2077.00,0.0133
2074.00,0.0133
2071.00,0.0133
2068.00,0.0131
2065.00,0.0129
2062.00,0.0129
2059.00,0.0128
2056.00,0.0127
2053.00,0.0135
2050.00,0.0131
2047.00,0.0120
2044.00,0.0119
2041.00,0.0119
2038.00,0.0121
2035.00,0.0116
2032.00,0.0110
2029.00,0.0108
2026.00,0.0108
2023.00,0.0112
2020.00,0.0114
2017.00,0.0114
2014.00,0.0115
2011.00,0.0116
2008.00,0.0110
2005.00,0.0108
2002.00,0.0113
1999.00,0.0118
1996.00,0.0119
1993.00,0.0118
1990.00,0.0123
1987.00,0.0128
1984.00,0.0132
1981.00,0.0137
1978.00,0.0120
1975.00,0.0115
1972.00,0.0111
1969.00,0.0109
1966.00,0.0112
1963.00,0.0110
1960.00,0.0105
1957.00,0.0106
1954.00,0.0108
1951.00,0.0109
1948.00,0.0109
1945.00,0.0109
1942.00,0.0112
1939.00,0.0116
1936.00,0.0113
1933.00,0.0113
1930.00,0.0114
1927.00,0.0116
1924.00,0.0118
1921.00,0.0122
1918.00,0.0126
1915.00,0.0129
1912.00,0.0126
1909.00,0.0122
1906.00,0.0120
1903.00,0.0118
1900.00,0.0116
1897.00,0.0115
1894.00,0.0114
1891.00,0.0115
1888.00,0.0117
1885.00,0.0116
1882.00,0.0116
1879.00,0.0116
1876.00,0.0115
1873.00,0.0114
1870.00,0.0113
1867.00,0.0114
1864.00,0.0113
1861.00,0.0113
1858.00,0.0116
1855.00,0.0120
1852.00,0.0120
1849.00,0.0115
1846.00,0.0111
1843.00,0.0112
1840.00,0.0111
1837.00,0.0109
1834.00,0.0108
1831.00,0.0108
1828.00,0.0106
1825.00,0.0106
1822.00,0.0105
1819.00,0.0102
1816.00,0.0102
1813.00,0.0104
1810.00,0.0105
1807.00,0.0106
1804.00,0.0106
1801.00,0.0107
1798.00,0.0109
1795.00,0.0110
1792.00,0.0111
1789.00,0.0109
1786.00,0.0106
1783.00,0.0108
1780.00,0.0106
1777.00,0.0105
1774.00,0.0106
1771.00,0.0107
1768.00,0.0107
1765.00,0.0107
1762.00,0.0109
1759.00,0.0112
1756.00,0.0113
1753.00,0.0111
1750.00,0.0115
1747.00,0.0117
1744.00,0.0117
1741.00,0.0117
1738.00,0.0119
1735.00,0.0121
1732.00,0.0129
1729.00,0.0129
1726.00,0.0133
1723.00,0.0142
1720.00,0.0152
1717.00,0.0182
1714.00,0.0232
1711.00,0.0316
1708.00,0.0469
1705.00,0.0778
1702.00,0.1087
1699.00,0.1577
1696.00,0.1727
1693.00,0.1785
1690.00,0.1844
1687.00,0.1834
1684.00,0.1611
1681.00,0.1298
1678.00,0.1004
1675.00,0.0780
1672.00,0.0645
1669.00,0.0561
1666.00,0.0502
1663.00,0.0457
1660.00,0.0431
1657.00,0.0417
1654.00,0.0439
1651.00,0.0550
1648.00,0.0658
1645.00,0.0852
1642.00,0.0844
1639.00,0.0731
1636.00,0.0632
1633.00,0.0619
1630.00,0.0672
1627.00,0.0817
1624.00,0.0971
1621.00,0.1082
1618.00,0.1051
1615.00,0.0953
1612.00,0.0818
1609.00,0.0697
1606.00,0.0602
1603.00,0.0529
1600.00,0.0469
1597.00,0.0422
1594.00,0.0385
1591.00,0.0359
1588.00,0.0335
1585.00,0.0322
1582.00,0.0330
1579.00,0.0316
1576.00,0.0279
1573.00,0.0255
1570.00,0.0237
1567.00,0.0229
1564.00,0.0240
1561.00,0.0245
1558.00,0.0227
1555.00,0.0208
1552.00,0.0199
1549.00,0.0194
1546.00,0.0189
1543.00,0.0185
1540.00,0.0185
1537.00,0.0190
1534.00,0.0194
1531.00,0.0202
1528.00,0.0206
1525.00,0.0216
1522.00,0.0233
1519.00,0.0264
1516.00,0.0309
1513.00,0.0368
1510.00,0.0453
1507.00,0.0641
1504.00,0.0954
1501.00,0.1257
1498.00,0.1650
1495.00,0.1930
1492.00,0.1873
1489.00,0.1663
1486.00,0.1404
1483.00,0.1180
1480.00,0.1007
1477.00,0.0882
1474.00,0.0787
1471.00,0.0728
1468.00,0.0687
1465.00,0.0682
1462.00,0.0703
1459.00,0.0684
1456.00,0.0651
1453.00,0.0634
1450.00,0.0682
1447.00,0.0887
1444.00,0.0891
1441.00,0.0741
1438.00,0.0702
1435.00,0.0841
1432.00,0.0967
1429.00,0.0905
1426.00,0.0777
1423.00,0.0748
1420.00,0.1051
1417.00,0.1248
1414.00,0.0949
1411.00,0.0718
1408.00,0.0583
1405.00,0.0501
1402.00,0.0444
1399.00,0.0410
1396.00,0.0393
1393.00,0.0398
1390.00,0.0431
1387.00,0.0554
1384.00,0.0746
1381.00,0.0867
1378.00,0.0777
1375.00,0.0586
1372.00,0.0471
1369.00,0.0463
1366.00,0.0546
1363.00,0.0575
1360.00,0.0430
1357.00,0.0320
1354.00,0.0266
1351.00,0.0240
1348.00,0.0225
1345.00,0.0216
1342.00,0.0210
1339.00,0.0207
1336.00,0.0207
1333.00,0.0207
1330.00,0.0211
1327.00,0.0220
1324.00,0.0238
1321.00,0.0279
1318.00,0.0349
1315.00,0.0436
1312.00,0.0617
1309.00,0.0926
1306.00,0.1029
1303.00,0.0832
1300.00,0.0624
1297.00,0.0533
1294.00,0.0554
1291.00,0.0646
1288.00,0.0797
1285.00,0.1041
1282.00,0.1413
1279.00,0.1846
1276.00,0.2051
1273.00,0.1861
1270.00,0.1502
1267.00,0.1173
1264.00,0.0920
1261.00,0.0731
1258.00,0.0591
1255.00,0.0498
1252.00,0.0467
1249.00,0.0476
1246.00,0.0427
1243.00,0.0368
1240.00,0.0333
1237.00,0.0314
1234.00,0.0307
1231.00,0.0316
1228.00,0.0338
1225.00,0.0370
1222.00,0.0420
1219.00,0.0506
1216.00,0.0625
1213.00,0.0844
1210.00,0.1263
1207.00,0.1756
1204.00,0.2020
1201.00,0.1952
1198.00,0.1685
1195.00,0.1433
1192.00,0.1337
1189.00,0.1337
1186.00,0.1263
1183.00,0.1098
1180.00,0.0944
1177.00,0.0890
1174.00,0.0959
1171.00,0.0953
1168.00,0.0744
1165.00,0.0553
1162.00,0.0448
1159.00,0.0409
1156.00,0.0452
1153.00,0.0501
1150.00,0.0509
1147.00,0.0669
1144.00,0.0964
1141.00,0.1207
1138.00,0.1321
1135.00,0.1286
1132.00,0.1115
1129.00,0.0924
1126.00,0.0821
1123.00,0.0869
1120.00,0.1145
1117.00,0.1570
1114.00,0.1716
1111.00,0.1521
1108.00,0.1414
1105.00,0.1587
1102.00,0.1921
1099.00,0.2381
1096.00,0.2524
1093.00,0.2277
1090.00,0.1910
1087.00,0.1575
1084.00,0.1313
1081.00,0.1117
1078.00,0.0969
1075.00,0.0852
1072.00,0.0769
1069.00,0.0750
1066.00,0.0843
1063.00,0.1071
1060.00,0.1274
1057.00,0.1247
1054.00,0.1089
1051.00,0.0959
1048.00,0.0925
1045.00,0.1054
1042.00,0.1219
1039.00,0.1166
1036.00,0.1062
1033.00,0.1052
1030.00,0.1143
1027.00,0.1302
1024.00,0.1406
1021.00,0.1362
1018.00,0.1214
1015.00,0.1053
1012.00,0.0927
1009.00,0.0846
1006.00,0.0798
1003.00,0.0739
1000.00,0.0668
997.00,0.0616
994.00,0.0582
991.00,0.0558
988.00,0.0545
985.00,0.0545
982.00,0.0560
979.00,0.0586
976.00,0.0602
973.00,0.0583
970.00,0.0533
967.00,0.0479
964.00,0.0445
961.00,0.0445
958.00,0.0460
955.00,0.0458
952.00,0.0419
949.00,0.0385
946.00,0.0361
943.00,0.0345
940.00,0.0333
937.00,0.0325
934.00,0.0318
931.00,0.0312
928.00,0.0308
925.00,0.0303
922.00,0.0297
919.00,0.0292
916.00,0.0288
913.00,0.0284
910.00,0.0281
907.00,0.0278
904.00,0.0276
901.00,0.0279
898.00,0.0279
895.00,0.0270
892.00,0.0263
889.00,0.0259
886.00,0.0256
883.00,0.0258
880.00,0.0271
877.00,0.0273
874.00,0.0269
871.00,0.0292
868.00,0.0406
865.00,0.0681
862.00,0.0761
859.00,0.0627
856.00,0.0614
853.00,0.0510
850.00,0.0388
847.00,0.0327
844.00,0.0300
841.00,0.0284
838.00,0.0270
835.00,0.0258
832.00,0.0254
829.00,0.0266
826.00,0.0318
823.00,0.0354
820.00,0.0312
817.00,0.0284
814.00,0.0277
811.00,0.0295
808.00,0.0377
805.00,0.0681
802.00,0.1256
799.00,0.1145
796.00,0.0678
793.00,0.0469
790.00,0.0419
787.00,0.0362
784.00,0.0312
781.00,0.0317
778.00,0.0374
775.00,0.0529
772.00,0.0852
769.00,0.0943
766.00,0.0671
763.00,0.0464
760.00,0.0379
757.00,0.0348
754.00,0.0341
751.00,0.0359
748.00,0.0426
745.00,0.0604
742.00,0.0801
739.00,0.0719
736.00,0.1127
733.00,0.1481
730.00,0.1402
727.00,0.1831
724.00,0.1588
721.00,0.0966
718.00,0.0644
715.00,0.0498
712.00,0.0422
709.00,0.0372
706.00,0.0334
703.00,0.0306
700.00,0.0287
697.00,0.0275
694.00,0.0268
691.00,0.0276
688.00,0.0313
685.00,0.0330
682.00,0.0314
679.00,0.0327
676.00,0.0396
673.00,0.0601
670.00,0.0850
667.00,0.0713
664.00,0.0488
661.00,0.0366
658.00,0.0321
655.00,0.0302
652.00,0.0295
649.00,0.0298
646.00,0.0304
643.00,0.0314
640.00,0.0330
637.00,0.0352
634.00,0.0382
631.00,0.0421
628.00,0.0475
625.00,0.0550
622.00,0.0647
619.00,0.0758
616.00,0.0856
613.00,0.0872
610.00,0.0760
607.00,0.0584
604.00,0.0445
601.00,0.0401
598.00,0.0439
595.00,0.0533
592.00,0.0574
589.00,0.0494
586.00,0.0471
583.00,0.0518
580.00,0.0597
577.00,0.0703
574.00,0.0829
571.00,0.0954
568.00,0.1076
565.00,0.1152
562.00,0.1171
559.00,0.1109
556.00,0.1001
553.00,0.0884
550.00,0.0779
547.00,0.0697
544.00,0.0669
541.00,0.0759
538.00,0.0786
535.00,0.0631
532.00,0.0518
529.00,0.0448
526.00,0.0401
523.00,0.0368
520.00,0.0342
517.00,0.0323
514.00,0.0306
511.00,0.0283
508.00,0.0272
505.00,0.0262
502.00,0.0260
499.00,0.0249
496.00,0.0244
493.00,0.0238
490.00,0.0228
487.00,0.0221
484.00,0.0223
481.00,0.0226
478.00,0.0224
475.00,0.0232
472.00,0.0300
469.00,0.0387
466.00,0.0421
463.00,0.0508
460.00,0.0653
457.00,0.0560
454.00,0.0389
451.00,0.0287
448.00,0.0248
445.00,0.0228
442.00,0.0210
439.00,0.0208
436.00,0.0206
433.00,0.0201
430.00,0.0215
427.00,0.0233
424.00,0.0277
421.00,0.0317
418.00,0.0372
415.00,0.0379
412.00,0.0345
409.00,0.0313
406.00,0.0306
403.00,0.0309
400.00,0.0353