File: FTIR/Olivia/2025_08_15_1CBG_3PVP29_silicone_scan1.csv
Created as New Dataset,Sample 118 By YargerLab Date Friday, August 15 2025
cm-1,A
4000.00,0.0020
3997.00,0.0021
3994.00,0.0021
3991.00,0.0021
3988.00,0.0022
3985.00,0.0021
3982.00,0.0021
3979.00,0.0021
3976.00,0.0021
3973.00,0.0021
3970.00,0.0020
3967.00,0.0021
3964.00,0.0021
3961.00,0.0021
3958.00,0.0021
3955.00,0.0021
3952.00,0.0021
3949.00,0.0020
3946.00,0.0020
3943.00,0.0020
3940.00,0.0020
3937.00,0.0020
3934.00,0.0021
3931.00,0.0020
3928.00,0.0020
3925.00,0.0020
3922.00,0.0020
3919.00,0.0020
3916.00,0.0020
3913.00,0.0019
3910.00,0.0019
3907.00,0.0020
3904.00,0.0021
3901.00,0.0021
3898.00,0.0020
3895.00,0.0021
3892.00,0.0021
3889.00,0.0021
3886.00,0.0021
3883.00,0.0021
3880.00,0.0020
3877.00,0.0020
3874.00,0.0020
3871.00,0.0021
3868.00,0.0021
3865.00,0.0021
3862.00,0.0020
3859.00,0.0020
3856.00,0.0023
3853.00,0.0022
3850.00,0.0022
3847.00,0.0020
3844.00,0.0021
3841.00,0.0022
3838.00,0.0022
3835.00,0.0022
3832.00,0.0021
3829.00,0.0021
3826.00,0.0021
3823.00,0.0022
3820.00,0.0021
3817.00,0.0022
3814.00,0.0020
3811.00,0.0020
3808.00,0.0020
3805.00,0.0021
3802.00,0.0021
3799.00,0.0021
3796.00,0.0020
3793.00,0.0020
3790.00,0.0020
3787.00,0.0020
3784.00,0.0020
3781.00,0.0020
3778.00,0.0020
3775.00,0.0020
3772.00,0.0020
3769.00,0.0020
3766.00,0.0020
3763.00,0.0020
3760.00,0.0021
3757.00,0.0021
3754.00,0.0021
3751.00,0.0022
3748.00,0.0022
3745.00,0.0021
3742.00,0.0021
3739.00,0.0021
3736.00,0.0021
3733.00,0.0021
3730.00,0.0019
3727.00,0.0018
3724.00,0.0019
3721.00,0.0020
3718.00,0.0019
3715.00,0.0021
3712.00,0.0022
3709.00,0.0021
3706.00,0.0020
3703.00,0.0020
3700.00,0.0020
3697.00,0.0021
3694.00,0.0022
3691.00,0.0025
3688.00,0.0026
3685.00,0.0027
3682.00,0.0028
3679.00,0.0030
3676.00,0.0033
3673.00,0.0034
3670.00,0.0033
3667.00,0.0033
3664.00,0.0034
3661.00,0.0035
3658.00,0.0038
3655.00,0.0040
3652.00,0.0042
3649.00,0.0045
3646.00,0.0046
3643.00,0.0047
3640.00,0.0049
3637.00,0.0052
3634.00,0.0054
3631.00,0.0058
3628.00,0.0062
3625.00,0.0065
3622.00,0.0066
3619.00,0.0071
3616.00,0.0074
3613.00,0.0078
3610.00,0.0082
3607.00,0.0086
3604.00,0.0089
3601.00,0.0092
3598.00,0.0097
3595.00,0.0102
3592.00,0.0106
3589.00,0.0110
3586.00,0.0118
3583.00,0.0122
3580.00,0.0126
3577.00,0.0132
3574.00,0.0137
3571.00,0.0141
3568.00,0.0148
3565.00,0.0156
3562.00,0.0159
3559.00,0.0163
3556.00,0.0168
3553.00,0.0173
3550.00,0.0178
3547.00,0.0183
3544.00,0.0188
3541.00,0.0192
3538.00,0.0195
3535.00,0.0200
3532.00,0.0204
3529.00,0.0208
3526.00,0.0213
3523.00,0.0219
3520.00,0.0222
3517.00,0.0226
3514.00,0.0230
3511.00,0.0234
3508.00,0.0239
3505.00,0.0243
3502.00,0.0249
3499.00,0.0252
3496.00,0.0257
3493.00,0.0260
3490.00,0.0264
3487.00,0.0269
3484.00,0.0272
3481.00,0.0277
3478.00,0.0281
3475.00,0.0284
3472.00,0.0288
3469.00,0.0292
3466.00,0.0295
3463.00,0.0298
3460.00,0.0302
3457.00,0.0305
3454.00,0.0307
3451.00,0.0310
3448.00,0.0313
3445.00,0.0316
3442.00,0.0319
3439.00,0.0321
3436.00,0.0323
3433.00,0.0326
3430.00,0.0329
3427.00,0.0331
3424.00,0.0334
3421.00,0.0336
3418.00,0.0339
3415.00,0.0341
3412.00,0.0343
3409.00,0.0346
3406.00,0.0349
3403.00,0.0351
3400.00,0.0353
3397.00,0.0356
3394.00,0.0359
3391.00,0.0362
3388.00,0.0365
3385.00,0.0368
3382.00,0.0370
3379.00,0.0372
3376.00,0.0375
3373.00,0.0376
3370.00,0.0375
3367.00,0.0379
3364.00,0.0384
3361.00,0.0386
3358.00,0.0389
3355.00,0.0391
3352.00,0.0389
3349.00,0.0392
3346.00,0.0396
3343.00,0.0395
3340.00,0.0395
3337.00,0.0399
3334.00,0.0404
3331.00,0.0406
3328.00,0.0404
3325.00,0.0404
3322.00,0.0410
3319.00,0.0413
3316.00,0.0414
3313.00,0.0413
3310.00,0.0408
3307.00,0.0406
3304.00,0.0411
3301.00,0.0418
3298.00,0.0416
3295.00,0.0414
3292.00,0.0416
3289.00,0.0421
3286.00,0.0423
3283.00,0.0423
3280.00,0.0423
3277.00,0.0420
3274.00,0.0417
3271.00,0.0415
3268.00,0.0417
3265.00,0.0418
3262.00,0.0417
3259.00,0.0416
3256.00,0.0414
3253.00,0.0413
3250.00,0.0411
3247.00,0.0408
3244.00,0.0409
3241.00,0.0407
3238.00,0.0405
3235.00,0.0401
3232.00,0.0400
3229.00,0.0399
3226.00,0.0397
3223.00,0.0394
3220.00,0.0391
3217.00,0.0389
3214.00,0.0387
3211.00,0.0386
3208.00,0.0384
3205.00,0.0382
3202.00,0.0380
3199.00,0.0377
3196.00,0.0374
3193.00,0.0370
3190.00,0.0367
3187.00,0.0364
3184.00,0.0360
3181.00,0.0357
3178.00,0.0352
3175.00,0.0348
3172.00,0.0345
3169.00,0.0341
3166.00,0.0336
3163.00,0.0332
3160.00,0.0327
3157.00,0.0322
3154.00,0.0317
3151.00,0.0313
3148.00,0.0309
3145.00,0.0305
3142.00,0.0302
3139.00,0.0298
3136.00,0.0295
3133.00,0.0292
3130.00,0.0289
3127.00,0.0286
3124.00,0.0282
3121.00,0.0278
3118.00,0.0274
3115.00,0.0270
3112.00,0.0266
3109.00,0.0261
3106.00,0.0257
3103.00,0.0252
3100.00,0.0248
3097.00,0.0243
3094.00,0.0238
3091.00,0.0234
3088.00,0.0230
3085.00,0.0226
3082.00,0.0222
3079.00,0.0218
3076.00,0.0215
3073.00,0.0212
3070.00,0.0209
3067.00,0.0207
3064.00,0.0204
3061.00,0.0203
3058.00,0.0201
3055.00,0.0199
3052.00,0.0197
3049.00,0.0194
3046.00,0.0192
3043.00,0.0189
3040.00,0.0188
3037.00,0.0187
3034.00,0.0186
3031.00,0.0187
3028.00,0.0187
3025.00,0.0187
3022.00,0.0187
3019.00,0.0188
3016.00,0.0191
3013.00,0.0196
3010.00,0.0204
3007.00,0.0215
3004.00,0.0229
3001.00,0.0247
2998.00,0.0269
2995.00,0.0295
2992.00,0.0324
2989.00,0.0353
2986.00,0.0382
2983.00,0.0406
2980.00,0.0428
2977.00,0.0449
2974.00,0.0470
2971.00,0.0494
2968.00,0.0523
2965.00,0.0555
2962.00,0.0585
2959.00,0.0609
2956.00,0.0623
2953.00,0.0625
2950.00,0.0619
2947.00,0.0610
2944.00,0.0606
2941.00,0.0613
2938.00,0.0632
2935.00,0.0659
2932.00,0.0689
2929.00,0.0715
2926.00,0.0733
2923.00,0.0740
2920.00,0.0734
2917.00,0.0717
2914.00,0.0690
2911.00,0.0658
2908.00,0.0624
2905.00,0.0594
2902.00,0.0572
2899.00,0.0558
2896.00,0.0547
2893.00,0.0539
2890.00,0.0530
2887.00,0.0520
2884.00,0.0512
2881.00,0.0507
2878.00,0.0505
2875.00,0.0503
2872.00,0.0503
2869.00,0.0501
2866.00,0.0496
2863.00,0.0498
2860.00,0.0504
2857.00,0.0506
2854.00,0.0489
2851.00,0.0455
2848.00,0.0414
2845.00,0.0376
2842.00,0.0339
2839.00,0.0307
2836.00,0.0286
2833.00,0.0268
2830.00,0.0253
2827.00,0.0238
2824.00,0.0222
2821.00,0.0207
2818.00,0.0193
2815.00,0.0180
2812.00,0.0168
2809.00,0.0159
2806.00,0.0150
2803.00,0.0143
2800.00,0.0136
2797.00,0.0131
2794.00,0.0127
2791.00,0.0123
2788.00,0.0120
2785.00,0.0118
2782.00,0.0115
2779.00,0.0113
2776.00,0.0110
2773.00,0.0108
2770.00,0.0106
2767.00,0.0104
2764.00,0.0103
2761.00,0.0102
2758.00,0.0102
2755.00,0.0102
2752.00,0.0101
2749.00,0.0101
2746.00,0.0102
2743.00,0.0103
2740.00,0.0103
2737.00,0.0103
2734.00,0.0104
2731.00,0.0104
2728.00,0.0104
2725.00,0.0103
2722.00,0.0103
2719.00,0.0102
2716.00,0.0101
2713.00,0.0099
2710.00,0.0098
2707.00,0.0098
2704.00,0.0097
2701.00,0.0096
2698.00,0.0096
2695.00,0.0095
2692.00,0.0094
2689.00,0.0093
2686.00,0.0092
2683.00,0.0091
2680.00,0.0090
2677.00,0.0089
2674.00,0.0088
2671.00,0.0088
2668.00,0.0087
2665.00,0.0088
2662.00,0.0087
2659.00,0.0087
2656.00,0.0086
2653.00,0.0085
2650.00,0.0084
2647.00,0.0083
2644.00,0.0081
2641.00,0.0080
2638.00,0.0079
2635.00,0.0078
2632.00,0.0077
2629.00,0.0075
2626.00,0.0074
2623.00,0.0072
2620.00,0.0071
2617.00,0.0071
2614.00,0.0070
2611.00,0.0069
2608.00,0.0068
2605.00,0.0067
2602.00,0.0067
2599.00,0.0067
2596.00,0.0067
2593.00,0.0067
2590.00,0.0067
2587.00,0.0067
2584.00,0.0067
2581.00,0.0066
2578.00,0.0065
2575.00,0.0065
2572.00,0.0064
2569.00,0.0063
2566.00,0.0063
2563.00,0.0061
2560.00,0.0060
2557.00,0.0059
2554.00,0.0058
2551.00,0.0058
2548.00,0.0058
2545.00,0.0057
2542.00,0.0056
2539.00,0.0056
2536.00,0.0056
2533.00,0.0055
2530.00,0.0055
2527.00,0.0055
2524.00,0.0053
2521.00,0.0053
2518.00,0.0052
2515.00,0.0052
2512.00,0.0051
2509.00,0.0050
2506.00,0.0050
2503.00,0.0050
2500.00,0.0050
2497.00,0.0049
2494.00,0.0048
2491.00,0.0047
2488.00,0.0047
2485.00,0.0046
2482.00,0.0046
2479.00,0.0045
2476.00,0.0044
2473.00,0.0043
2470.00,0.0042
2467.00,0.0043
2464.00,0.0043
2461.00,0.0042
2458.00,0.0043
2455.00,0.0043
2452.00,0.0043
2449.00,0.0042
2446.00,0.0042
2443.00,0.0041
2440.00,0.0041
2437.00,0.0041
2434.00,0.0040
2431.00,0.0040
2428.00,0.0040
2425.00,0.0040
2422.00,0.0040
2419.00,0.0040
2416.00,0.0041
2413.00,0.0041
2410.00,0.0040
2407.00,0.0039
2404.00,0.0040
2401.00,0.0041
2398.00,0.0040
2395.00,0.0040
2392.00,0.0040
2389.00,0.0038
2386.00,0.0037
2383.00,0.0036
2380.00,0.0033
2377.00,0.0032
2374.00,0.0032
2371.00,0.0032
2368.00,0.0031
2365.00,0.0031
2362.00,0.0031
2359.00,0.0032
2356.00,0.0032
2353.00,0.0032
2350.00,0.0033
2347.00,0.0033
2344.00,0.0034
2341.00,0.0034
2338.00,0.0036
2335.00,0.0037
2332.00,0.0037
2329.00,0.0040
2326.00,0.0049
2323.00,0.0047
2320.00,0.0043
2317.00,0.0041
2314.00,0.0041
2311.00,0.0040
2308.00,0.0039
2305.00,0.0039
2302.00,0.0040
2299.00,0.0040
2296.00,0.0041
2293.00,0.0043
2290.00,0.0045
2287.00,0.0046
2284.00,0.0045
2281.00,0.0043
2278.00,0.0043
2275.00,0.0042
2272.00,0.0041
2269.00,0.0039
2266.00,0.0037
2263.00,0.0038
2260.00,0.0040
2257.00,0.0036
2254.00,0.0035
2251.00,0.0038
2248.00,0.0039
2245.00,0.0039
2242.00,0.0038
2239.00,0.0039
2236.00,0.0038
2233.00,0.0038
2230.00,0.0038
2227.00,0.0037
2224.00,0.0039
2221.00,0.0038
2218.00,0.0037
2215.00,0.0039
2212.00,0.0040
2209.00,0.0039
2206.00,0.0037
2203.00,0.0039
2200.00,0.0039
2197.00,0.0038
2194.00,0.0039
2191.00,0.0043
2188.00,0.0043
2185.00,0.0037
2182.00,0.0030
2179.00,0.0033
2176.00,0.0029
2173.00,0.0033
2170.00,0.0041
2167.00,0.0045
2164.00,0.0047
2161.00,0.0031
2158.00,0.0002
2155.00,0.0009
2152.00,0.0018
2149.00,0.0021
2146.00,0.0020
2143.00,0.0021
2140.00,0.0024
2137.00,0.0022
2134.00,0.0017
2131.00,0.0022
2128.00,0.0027
2125.00,0.0028
2122.00,0.0031
2119.00,0.0034
2116.00,0.0035
2113.00,0.0036
2110.00,0.0034
2107.00,0.0032
2104.00,0.0031
2101.00,0.0030
2098.00,0.0029
2095.00,0.0024
2092.00,0.0027
2089.00,0.0028
2086.00,0.0030
2083.00,0.0030
2080.00,0.0029
2077.00,0.0030
2074.00,0.0028
2071.00,0.0028
2068.00,0.0028
2065.00,0.0027
2062.00,0.0026
2059.00,0.0027
2056.00,0.0027
2053.00,0.0036
2050.00,0.0034
2047.00,0.0027
2044.00,0.0029
2041.00,0.0026
2038.00,0.0029
2035.00,0.0023
2032.00,0.0017
2029.00,0.0017
2026.00,0.0018
2023.00,0.0018
2020.00,0.0018
2017.00,0.0016
2014.00,0.0017
2011.00,0.0021
2008.00,0.0014
2005.00,0.0009
2002.00,0.0017
1999.00,0.0019
1996.00,0.0021
1993.00,0.0021
1990.00,0.0024
1987.00,0.0027
1984.00,0.0031
1981.00,0.0036
1978.00,0.0019
1975.00,0.0013
1972.00,0.0015
1969.00,0.0016
1966.00,0.0013
1963.00,0.0012
1960.00,0.0012
1957.00,0.0015
1954.00,0.0018
1951.00,0.0020
1948.00,0.0020
1945.00,0.0020
1942.00,0.0019
1939.00,0.0020
1936.00,0.0021
1933.00,0.0022
1930.00,0.0022
1927.00,0.0022
1924.00,0.0023
1921.00,0.0026
1918.00,0.0026
1915.00,0.0027
1912.00,0.0027
1909.00,0.0027
1906.00,0.0027
1903.00,0.0027
1900.00,0.0027
1897.00,0.0027
1894.00,0.0027
1891.00,0.0028
1888.00,0.0029
1885.00,0.0028
1882.00,0.0028
1879.00,0.0029
1876.00,0.0028
1873.00,0.0028
1870.00,0.0029
1867.00,0.0031
1864.00,0.0031
1861.00,0.0031
1858.00,0.0031
1855.00,0.0031
1852.00,0.0032
1849.00,0.0032
1846.00,0.0033
1843.00,0.0033
1840.00,0.0034
1837.00,0.0034
1834.00,0.0035
1831.00,0.0036
1828.00,0.0036
1825.00,0.0036
1822.00,0.0036
1819.00,0.0034
1816.00,0.0034
1813.00,0.0035
1810.00,0.0037
1807.00,0.0038
1804.00,0.0038
1801.00,0.0039
1798.00,0.0040
1795.00,0.0041
1792.00,0.0041
1789.00,0.0043
1786.00,0.0045
1783.00,0.0047
1780.00,0.0048
1777.00,0.0049
1774.00,0.0051
1771.00,0.0052
1768.00,0.0057
1765.00,0.0058
1762.00,0.0059
1759.00,0.0062
1756.00,0.0066
1753.00,0.0068
1750.00,0.0071
1747.00,0.0078
1744.00,0.0083
1741.00,0.0087
1738.00,0.0092
1735.00,0.0098
1732.00,0.0106
1729.00,0.0119
1726.00,0.0131
1723.00,0.0146
1720.00,0.0158
1717.00,0.0178
1714.00,0.0210
1711.00,0.0246
1708.00,0.0291
1705.00,0.0365
1702.00,0.0442
1699.00,0.0622
1696.00,0.0817
1693.00,0.1068
1690.00,0.1325
1687.00,0.1575
1684.00,0.1907
1681.00,0.2158
1678.00,0.2304
1675.00,0.2485
1672.00,0.2618
1669.00,0.2845
1666.00,0.3024
1663.00,0.3225
1660.00,0.3444
1657.00,0.3520
1654.00,0.3565
1651.00,0.3650
1648.00,0.3411
1645.00,0.3128
1642.00,0.2737
1639.00,0.2340
1636.00,0.1964
1633.00,0.1653
1630.00,0.1422
1627.00,0.1254
1624.00,0.1150
1621.00,0.1085
1618.00,0.1009
1615.00,0.0925
1612.00,0.0835
1609.00,0.0766
1606.00,0.0753
1603.00,0.0799
1600.00,0.0854
1597.00,0.0847
1594.00,0.0773
1591.00,0.0680
1588.00,0.0604
1585.00,0.0540
1582.00,0.0478
1579.00,0.0422
1576.00,0.0370
1573.00,0.0338
1570.00,0.0314
1567.00,0.0294
1564.00,0.0278
1561.00,0.0261
1558.00,0.0251
1555.00,0.0248
1552.00,0.0245
1549.00,0.0245
1546.00,0.0244
1543.00,0.0245
1540.00,0.0244
1537.00,0.0241
1534.00,0.0239
1531.00,0.0236
1528.00,0.0232
1525.00,0.0233
1522.00,0.0234
1519.00,0.0241
1516.00,0.0250
1513.00,0.0255
1510.00,0.0265
1507.00,0.0301
1504.00,0.0366
1501.00,0.0441
1498.00,0.0551
1495.00,0.0651
1492.00,0.0651
1489.00,0.0572
1486.00,0.0466
1483.00,0.0395
1480.00,0.0368
1477.00,0.0381
1474.00,0.0443
1471.00,0.0612
1468.00,0.0806
1465.00,0.1091
1462.00,0.1312
1459.00,0.1319
1456.00,0.1172
1453.00,0.1060
1450.00,0.1058
1447.00,0.1207
1444.00,0.1415
1441.00,0.1629
1438.00,0.1787
1435.00,0.1983
1432.00,0.2099
1429.00,0.2240
1426.00,0.2331
1423.00,0.2396
1420.00,0.2239
1417.00,0.1809
1414.00,0.1394
1411.00,0.1086
1408.00,0.0903
1405.00,0.0801
1402.00,0.0745
1399.00,0.0715
1396.00,0.0705
1393.00,0.0711
1390.00,0.0725
1387.00,0.0773
1384.00,0.0837
1381.00,0.0901
1378.00,0.0953
1375.00,0.0966
1372.00,0.0926
1369.00,0.0856
1366.00,0.0780
1363.00,0.0704
1360.00,0.0645
1357.00,0.0611
1354.00,0.0593
1351.00,0.0574
1348.00,0.0549
1345.00,0.0526
1342.00,0.0513
1339.00,0.0517
1336.00,0.0533
1333.00,0.0559
1330.00,0.0604
1327.00,0.0672
1324.00,0.0758
1321.00,0.0838
1318.00,0.0881
1315.00,0.0863
1312.00,0.0807
1309.00,0.0757
1306.00,0.0745
1303.00,0.0801
1300.00,0.0963
1297.00,0.1276
1294.00,0.1722
1291.00,0.2149
1288.00,0.2395
1285.00,0.2390
1282.00,0.2205
1279.00,0.2049
1276.00,0.2035
1273.00,0.2066
1270.00,0.1998
1267.00,0.1800
1264.00,0.1555
1261.00,0.1332
1258.00,0.1150
1255.00,0.1003
1252.00,0.0891
1249.00,0.0809
1246.00,0.0759
1243.00,0.0742
1240.00,0.0760
1237.00,0.0817
1234.00,0.0904
1231.00,0.0992
1228.00,0.1040
1225.00,0.1041
1222.00,0.1020
1219.00,0.0983
1216.00,0.0922
1213.00,0.0845
1210.00,0.0773
1207.00,0.0717
1204.00,0.0676
1201.00,0.0640
1198.00,0.0606
1195.00,0.0578
1192.00,0.0557
1189.00,0.0546
1186.00,0.0540
1183.00,0.0543
1180.00,0.0561
1177.00,0.0602
1174.00,0.0666
1171.00,0.0741
1168.00,0.0799
1165.00,0.0813
1162.00,0.0771
1159.00,0.0700
1156.00,0.0631
1153.00,0.0568
1150.00,0.0509
1147.00,0.0456
1144.00,0.0412
1141.00,0.0382
1138.00,0.0358
1135.00,0.0338
1132.00,0.0328
1129.00,0.0327
1126.00,0.0332
1123.00,0.0339
1120.00,0.0352
1117.00,0.0369
1114.00,0.0395
1111.00,0.0422
1108.00,0.0439
1105.00,0.0443
1102.00,0.0445
1099.00,0.0458
1096.00,0.0477
1093.00,0.0489
1090.00,0.0496
1087.00,0.0518
1084.00,0.0544
1081.00,0.0552
1078.00,0.0540
1075.00,0.0523
1072.00,0.0500
1069.00,0.0477
1066.00,0.0465
1063.00,0.0473
1060.00,0.0514
1057.00,0.0616
1054.00,0.0802
1051.00,0.0998
1048.00,0.1062
1045.00,0.1010
1042.00,0.0957
1039.00,0.0943
1036.00,0.0936
1033.00,0.0910
1030.00,0.0866
1027.00,0.0815
1024.00,0.0773
1021.00,0.0744
1018.00,0.0710
1015.00,0.0641
1012.00,0.0547
1009.00,0.0483
1006.00,0.0479
1003.00,0.0503
1000.00,0.0489
997.00,0.0446
994.00,0.0411
991.00,0.0396
988.00,0.0393
985.00,0.0387
982.00,0.0366
979.00,0.0342
976.00,0.0323
973.00,0.0307
970.00,0.0289
967.00,0.0271
964.00,0.0257
961.00,0.0244
958.00,0.0231
955.00,0.0219
952.00,0.0211
949.00,0.0208
946.00,0.0208
943.00,0.0213
940.00,0.0232
937.00,0.0268
934.00,0.0305
931.00,0.0302
928.00,0.0280
925.00,0.0273
922.00,0.0273
919.00,0.0279
916.00,0.0288
913.00,0.0300
910.00,0.0312
907.00,0.0322
904.00,0.0328
901.00,0.0335
898.00,0.0344
895.00,0.0349
892.00,0.0340
889.00,0.0328
886.00,0.0320
883.00,0.0319
880.00,0.0323
877.00,0.0331
874.00,0.0341
871.00,0.0353
868.00,0.0370
865.00,0.0397
862.00,0.0436
859.00,0.0486
856.00,0.0545
853.00,0.0610
850.00,0.0671
847.00,0.0719
844.00,0.0750
841.00,0.0766
838.00,0.0773
835.00,0.0779
832.00,0.0780
829.00,0.0768
826.00,0.0729
823.00,0.0671
820.00,0.0611
817.00,0.0563
814.00,0.0529
811.00,0.0508
808.00,0.0496
805.00,0.0490
802.00,0.0488
799.00,0.0492
796.00,0.0500
793.00,0.0504
790.00,0.0505
787.00,0.0506
784.00,0.0512
781.00,0.0521
778.00,0.0529
775.00,0.0534
772.00,0.0539
769.00,0.0547
766.00,0.0561
763.00,0.0582
760.00,0.0614
757.00,0.0654
754.00,0.0695
751.00,0.0738
748.00,0.0783
745.00,0.0822
742.00,0.0856
739.00,0.0886
736.00,0.0906
733.00,0.0901
730.00,0.0860
727.00,0.0802
724.00,0.0752
721.00,0.0716
718.00,0.0693
715.00,0.0682
712.00,0.0681
709.00,0.0685
706.00,0.0689
703.00,0.0696
700.00,0.0708
697.00,0.0722
694.00,0.0738
691.00,0.0758
688.00,0.0785
685.00,0.0817
682.00,0.0846
679.00,0.0872
676.00,0.0899
673.00,0.0930
670.00,0.0957
667.00,0.1024
664.00,0.1064
661.00,0.1122
658.00,0.1188
655.00,0.1258
652.00,0.1321
649.00,0.1358
646.00,0.1351
643.00,0.1302
640.00,0.1230
637.00,0.1165
634.00,0.1109
631.00,0.1061
628.00,0.1026
625.00,0.0998
622.00,0.0977
619.00,0.0965
616.00,0.0964
613.00,0.0968
610.00,0.0979
607.00,0.0985
604.00,0.1003
601.00,0.1024
598.00,0.1042
595.00,0.1064
592.00,0.1095
589.00,0.1134
586.00,0.1191
583.00,0.1262
580.00,0.1327
577.00,0.1371
574.00,0.1384
571.00,0.1373
568.00,0.1348
565.00,0.1309
562.00,0.1254
559.00,0.1192
556.00,0.1139
553.00,0.1102
550.00,0.1066
547.00,0.1037
544.00,0.1023
541.00,0.1010
538.00,0.0994
535.00,0.0984
532.00,0.0981
529.00,0.0978
526.00,0.0969
523.00,0.0954
520.00,0.0946
517.00,0.0941
514.00,0.0931
511.00,0.0921
508.00,0.0911
505.00,0.0908
502.00,0.0906
499.00,0.0907
496.00,0.0915
493.00,0.0923
490.00,0.0927
487.00,0.0923
484.00,0.0928
481.00,0.0934
478.00,0.0936
475.00,0.0943
472.00,0.0944
469.00,0.0935
466.00,0.0923
463.00,0.0917
460.00,0.0921
457.00,0.0924
454.00,0.0917
451.00,0.0904
448.00,0.0894
445.00,0.0879
442.00,0.0866
439.00,0.0846
436.00,0.0842
433.00,0.0834
430.00,0.0812
427.00,0.0797
424.00,0.0816
421.00,0.0823
418.00,0.0800
415.00,0.0797
412.00,0.0795
409.00,0.0810
406.00,0.0815
403.00,0.0825
400.00,0.0817