File: FTIR/Olivia/2025_07_29_Polystyrene_Std_scan2.csv
Created as New Dataset,Sample 952 By YargerLab Date Tuesday, July 29 2025
cm-1,A
4000.00,0.0013
3997.00,0.0012
3994.00,0.0012
3991.00,0.0011
3988.00,0.0012
3985.00,0.0012
3982.00,0.0012
3979.00,0.0011
3976.00,0.0011
3973.00,0.0012
3970.00,0.0012
3967.00,0.0011
3964.00,0.0011
3961.00,0.0011
3958.00,0.0012
3955.00,0.0012
3952.00,0.0012
3949.00,0.0012
3946.00,0.0012
3943.00,0.0011
3940.00,0.0012
3937.00,0.0012
3934.00,0.0011
3931.00,0.0011
3928.00,0.0012
3925.00,0.0011
3922.00,0.0011
3919.00,0.0012
3916.00,0.0011
3913.00,0.0012
3910.00,0.0012
3907.00,0.0011
3904.00,0.0011
3901.00,0.0011
3898.00,0.0011
3895.00,0.0011
3892.00,0.0011
3889.00,0.0011
3886.00,0.0011
3883.00,0.0011
3880.00,0.0011
3877.00,0.0011
3874.00,0.0011
3871.00,0.0011
3868.00,0.0011
3865.00,0.0010
3862.00,0.0011
3859.00,0.0011
3856.00,0.0011
3853.00,0.0011
3850.00,0.0011
3847.00,0.0011
3844.00,0.0012
3841.00,0.0011
3838.00,0.0010
3835.00,0.0010
3832.00,0.0011
3829.00,0.0011
3826.00,0.0011
3823.00,0.0011
3820.00,0.0012
3817.00,0.0012
3814.00,0.0012
3811.00,0.0012
3808.00,0.0011
3805.00,0.0011
3802.00,0.0011
3799.00,0.0011
3796.00,0.0012
3793.00,0.0012
3790.00,0.0012
3787.00,0.0011
3784.00,0.0012
3781.00,0.0012
3778.00,0.0012
3775.00,0.0012
3772.00,0.0012
3769.00,0.0012
3766.00,0.0012
3763.00,0.0012
3760.00,0.0012
3757.00,0.0012
3754.00,0.0011
3751.00,0.0010
3748.00,0.0010
3745.00,0.0010
3742.00,0.0010
3739.00,0.0010
3736.00,0.0010
3733.00,0.0010
3730.00,0.0010
3727.00,0.0011
3724.00,0.0012
3721.00,0.0012
3718.00,0.0011
3715.00,0.0011
3712.00,0.0011
3709.00,0.0011
3706.00,0.0011
3703.00,0.0012
3700.00,0.0012
3697.00,0.0012
3694.00,0.0011
3691.00,0.0011
3688.00,0.0011
3685.00,0.0011
3682.00,0.0011
3679.00,0.0012
3676.00,0.0011
3673.00,0.0011
3670.00,0.0011
3667.00,0.0012
3664.00,0.0012
3661.00,0.0012
3658.00,0.0013
3655.00,0.0013
3652.00,0.0012
3649.00,0.0012
3646.00,0.0012
3643.00,0.0012
3640.00,0.0012
3637.00,0.0012
3634.00,0.0012
3631.00,0.0012
3628.00,0.0012
3625.00,0.0012
3622.00,0.0012
3619.00,0.0013
3616.00,0.0013
3613.00,0.0013
3610.00,0.0012
3607.00,0.0012
3604.00,0.0013
3601.00,0.0013
3598.00,0.0013
3595.00,0.0013
3592.00,0.0013
3589.00,0.0013
3586.00,0.0013
3583.00,0.0013
3580.00,0.0014
3577.00,0.0014
3574.00,0.0015
3571.00,0.0015
3568.00,0.0014
3565.00,0.0015
3562.00,0.0015
3559.00,0.0015
3556.00,0.0016
3553.00,0.0016
3550.00,0.0017
3547.00,0.0016
3544.00,0.0016
3541.00,0.0016
3538.00,0.0017
3535.00,0.0017
3532.00,0.0018
3529.00,0.0018
3526.00,0.0018
3523.00,0.0018
3520.00,0.0018
3517.00,0.0019
3514.00,0.0019
3511.00,0.0019
3508.00,0.0019
3505.00,0.0019
3502.00,0.0020
3499.00,0.0020
3496.00,0.0019
3493.00,0.0020
3490.00,0.0020
3487.00,0.0020
3484.00,0.0020
3481.00,0.0020
3478.00,0.0020
3475.00,0.0020
3472.00,0.0021
3469.00,0.0021
3466.00,0.0021
3463.00,0.0021
3460.00,0.0022
3457.00,0.0021
3454.00,0.0021
3451.00,0.0021
3448.00,0.0021
3445.00,0.0022
3442.00,0.0022
3439.00,0.0021
3436.00,0.0021
3433.00,0.0022
3430.00,0.0022
3427.00,0.0021
3424.00,0.0021
3421.00,0.0021
3418.00,0.0021
3415.00,0.0022
3412.00,0.0022
3409.00,0.0022
3406.00,0.0021
3403.00,0.0022
3400.00,0.0022
3397.00,0.0021
3394.00,0.0021
3391.00,0.0021
3388.00,0.0021
3385.00,0.0022
3382.00,0.0022
3379.00,0.0022
3376.00,0.0021
3373.00,0.0022
3370.00,0.0022
3367.00,0.0021
3364.00,0.0021
3361.00,0.0021
3358.00,0.0022
3355.00,0.0021
3352.00,0.0021
3349.00,0.0020
3346.00,0.0020
3343.00,0.0021
3340.00,0.0021
3337.00,0.0021
3334.00,0.0021
3331.00,0.0021
3328.00,0.0020
3325.00,0.0020
3322.00,0.0020
3319.00,0.0020
3316.00,0.0020
3313.00,0.0021
3310.00,0.0020
3307.00,0.0020
3304.00,0.0020
3301.00,0.0021
3298.00,0.0020
3295.00,0.0020
3292.00,0.0019
3289.00,0.0020
3286.00,0.0020
3283.00,0.0020
3280.00,0.0020
3277.00,0.0020
3274.00,0.0020
3271.00,0.0019
3268.00,0.0020
3265.00,0.0019
3262.00,0.0019
3259.00,0.0019
3256.00,0.0019
3253.00,0.0019
3250.00,0.0018
3247.00,0.0019
3244.00,0.0018
3241.00,0.0018
3238.00,0.0018
3235.00,0.0018
3232.00,0.0018
3229.00,0.0018
3226.00,0.0018
3223.00,0.0018
3220.00,0.0018
3217.00,0.0018
3214.00,0.0018
3211.00,0.0018
3208.00,0.0018
3205.00,0.0018
3202.00,0.0019
3199.00,0.0019
3196.00,0.0018
3193.00,0.0018
3190.00,0.0018
3187.00,0.0017
3184.00,0.0017
3181.00,0.0017
3178.00,0.0017
3175.00,0.0017
3172.00,0.0017
3169.00,0.0018
3166.00,0.0018
3163.00,0.0018
3160.00,0.0017
3157.00,0.0017
3154.00,0.0017
3151.00,0.0016
3148.00,0.0016
3145.00,0.0016
3142.00,0.0016
3139.00,0.0016
3136.00,0.0016
3133.00,0.0016
3130.00,0.0016
3127.00,0.0017
3124.00,0.0017
3121.00,0.0018
3118.00,0.0019
3115.00,0.0020
3112.00,0.0023
3109.00,0.0028
3106.00,0.0033
3103.00,0.0036
3100.00,0.0035
3097.00,0.0033
3094.00,0.0035
3091.00,0.0043
3088.00,0.0058
3085.00,0.0075
3082.00,0.0082
3079.00,0.0074
3076.00,0.0064
3073.00,0.0061
3070.00,0.0065
3067.00,0.0079
3064.00,0.0097
3061.00,0.0111
3058.00,0.0109
3055.00,0.0092
3052.00,0.0075
3049.00,0.0064
3046.00,0.0058
3043.00,0.0060
3040.00,0.0067
3037.00,0.0083
3034.00,0.0110
3031.00,0.0152
3028.00,0.0196
3025.00,0.0212
3022.00,0.0182
3019.00,0.0130
3016.00,0.0089
3013.00,0.0066
3010.00,0.0056
3007.00,0.0055
3004.00,0.0060
3001.00,0.0063
2998.00,0.0056
2995.00,0.0045
2992.00,0.0039
2989.00,0.0036
2986.00,0.0036
2983.00,0.0036
2980.00,0.0036
2977.00,0.0038
2974.00,0.0039
2971.00,0.0041
2968.00,0.0044
2965.00,0.0047
2962.00,0.0052
2959.00,0.0058
2956.00,0.0064
2953.00,0.0073
2950.00,0.0082
2947.00,0.0094
2944.00,0.0110
2941.00,0.0129
2938.00,0.0151
2935.00,0.0178
2932.00,0.0206
2929.00,0.0232
2926.00,0.0252
2923.00,0.0261
2920.00,0.0260
2917.00,0.0251
2914.00,0.0236
2911.00,0.0218
2908.00,0.0198
2905.00,0.0179
2902.00,0.0159
2899.00,0.0140
2896.00,0.0123
2893.00,0.0111
2890.00,0.0102
2887.00,0.0094
2884.00,0.0088
2881.00,0.0082
2878.00,0.0077
2875.00,0.0072
2872.00,0.0070
2869.00,0.0068
2866.00,0.0070
2863.00,0.0076
2860.00,0.0085
2857.00,0.0097
2854.00,0.0108
2851.00,0.0115
2848.00,0.0115
2845.00,0.0105
2842.00,0.0087
2839.00,0.0067
2836.00,0.0051
2833.00,0.0041
2830.00,0.0035
2827.00,0.0031
2824.00,0.0029
2821.00,0.0028
2818.00,0.0027
2815.00,0.0026
2812.00,0.0026
2809.00,0.0025
2806.00,0.0024
2803.00,0.0023
2800.00,0.0023
2797.00,0.0022
2794.00,0.0021
2791.00,0.0021
2788.00,0.0021
2785.00,0.0021
2782.00,0.0021
2779.00,0.0021
2776.00,0.0020
2773.00,0.0020
2770.00,0.0019
2767.00,0.0019
2764.00,0.0018
2761.00,0.0018
2758.00,0.0018
2755.00,0.0018
2752.00,0.0017
2749.00,0.0017
2746.00,0.0018
2743.00,0.0018
2740.00,0.0018
2737.00,0.0018
2734.00,0.0018
2731.00,0.0018
2728.00,0.0018
2725.00,0.0018
2722.00,0.0018
2719.00,0.0018
2716.00,0.0018
2713.00,0.0018
2710.00,0.0018
2707.00,0.0018
2704.00,0.0017
2701.00,0.0017
2698.00,0.0017
2695.00,0.0017
2692.00,0.0017
2689.00,0.0018
2686.00,0.0017
2683.00,0.0017
2680.00,0.0017
2677.00,0.0017
2674.00,0.0017
2671.00,0.0017
2668.00,0.0017
2665.00,0.0018
2662.00,0.0019
2659.00,0.0020
2656.00,0.0021
2653.00,0.0021
2650.00,0.0021
2647.00,0.0021
2644.00,0.0021
2641.00,0.0021
2638.00,0.0021
2635.00,0.0021
2632.00,0.0022
2629.00,0.0021
2626.00,0.0020
2623.00,0.0020
2620.00,0.0020
2617.00,0.0019
2614.00,0.0019
2611.00,0.0019
2608.00,0.0019
2605.00,0.0019
2602.00,0.0019
2599.00,0.0019
2596.00,0.0017
2593.00,0.0017
2590.00,0.0017
2587.00,0.0017
2584.00,0.0017
2581.00,0.0017
2578.00,0.0017
2575.00,0.0016
2572.00,0.0015
2569.00,0.0015
2566.00,0.0015
2563.00,0.0015
2560.00,0.0015
2557.00,0.0015
2554.00,0.0015
2551.00,0.0014
2548.00,0.0014
2545.00,0.0014
2542.00,0.0014
2539.00,0.0013
2536.00,0.0013
2533.00,0.0014
2530.00,0.0014
2527.00,0.0014
2524.00,0.0013
2521.00,0.0013
2518.00,0.0013
2515.00,0.0013
2512.00,0.0013
2509.00,0.0013
2506.00,0.0013
2503.00,0.0013
2500.00,0.0013
2497.00,0.0013
2494.00,0.0012
2491.00,0.0013
2488.00,0.0012
2485.00,0.0012
2482.00,0.0011
2479.00,0.0011
2476.00,0.0011
2473.00,0.0011
2470.00,0.0012
2467.00,0.0012
2464.00,0.0011
2461.00,0.0011
2458.00,0.0012
2455.00,0.0012
2452.00,0.0012
2449.00,0.0011
2446.00,0.0011
2443.00,0.0011
2440.00,0.0010
2437.00,0.0010
2434.00,0.0010
2431.00,0.0010
2428.00,0.0010
2425.00,0.0009
2422.00,0.0009
2419.00,0.0009
2416.00,0.0009
2413.00,0.0009
2410.00,0.0008
2407.00,0.0008
2404.00,0.0009
2401.00,0.0008
2398.00,0.0008
2395.00,0.0007
2392.00,0.0007
2389.00,0.0007
2386.00,0.0007
2383.00,0.0006
2380.00,0.0007
2377.00,0.0007
2374.00,0.0006
2371.00,0.0005
2368.00,0.0004
2365.00,0.0006
2362.00,0.0007
2359.00,0.0009
2356.00,0.0009
2353.00,0.0009
2350.00,0.0009
2347.00,0.0011
2344.00,0.0012
2341.00,0.0012
2338.00,0.0014
2335.00,0.0014
2332.00,0.0013
2329.00,0.0013
2326.00,0.0021
2323.00,0.0020
2320.00,0.0017
2317.00,0.0016
2314.00,0.0016
2311.00,0.0015
2308.00,0.0014
2305.00,0.0013
2302.00,0.0013
2299.00,0.0014
2296.00,0.0015
2293.00,0.0017
2290.00,0.0019
2287.00,0.0020
2284.00,0.0018
2281.00,0.0016
2278.00,0.0015
2275.00,0.0014
2272.00,0.0014
2269.00,0.0012
2266.00,0.0011
2263.00,0.0012
2260.00,0.0013
2257.00,0.0012
2254.00,0.0010
2251.00,0.0010
2248.00,0.0010
2245.00,0.0012
2242.00,0.0012
2239.00,0.0010
2236.00,0.0010
2233.00,0.0009
2230.00,0.0010
2227.00,0.0011
2224.00,0.0009
2221.00,0.0009
2218.00,0.0009
2215.00,0.0011
2212.00,0.0010
2209.00,0.0006
2206.00,0.0007
2203.00,0.0008
2200.00,0.0012
2197.00,0.0012
2194.00,0.0011
2191.00,0.0012
2188.00,0.0013
2185.00,0.0009
2182.00,0.0005
2179.00,0.0008
2176.00,0.0004
2173.00,0.0004
2170.00,0.0011
2167.00,0.0012
2164.00,0.0016
2161.00,0.0008
2158.00,-0.0020
2155.00,-0.0015
2152.00,-0.0010
2149.00,-0.0007
2146.00,-0.0008
2143.00,-0.0009
2140.00,-0.0008
2137.00,-0.0008
2134.00,-0.0011
2131.00,-0.0008
2128.00,-0.0004
2125.00,-0.0001
2122.00,0.0001
2119.00,0.0003
2116.00,0.0006
2113.00,0.0007
2110.00,0.0007
2107.00,0.0005
2104.00,0.0006
2101.00,0.0006
2098.00,0.0003
2095.00,0.0001
2092.00,0.0003
2089.00,0.0005
2086.00,0.0007
2083.00,0.0008
2080.00,0.0007
2077.00,0.0008
2074.00,0.0006
2071.00,0.0006
2068.00,0.0006
2065.00,0.0007
2062.00,0.0003
2059.00,0.0004
2056.00,0.0003
2053.00,0.0008
2050.00,0.0012
2047.00,0.0007
2044.00,0.0005
2041.00,0.0005
2038.00,0.0009
2035.00,0.0005
2032.00,0.0001
2029.00,-0.0002
2026.00,-0.0002
2023.00,-0.0001
2020.00,0.0001
2017.00,0.0001
2014.00,0.0001
2011.00,0.0003
2008.00,0.0001
2005.00,-0.0003
2002.00,-0.0001
1999.00,0.0002
1996.00,0.0001
1993.00,0.0002
1990.00,0.0006
1987.00,0.0009
1984.00,0.0014
1981.00,0.0017
1978.00,0.0007
1975.00,0.0002
1972.00,0.0001
1969.00,0.0006
1966.00,0.0007
1963.00,0.0009
1960.00,0.0009
1957.00,0.0014
1954.00,0.0017
1951.00,0.0018
1948.00,0.0023
1945.00,0.0028
1942.00,0.0029
1939.00,0.0026
1936.00,0.0022
1933.00,0.0015
1930.00,0.0011
1927.00,0.0009
1924.00,0.0007
1921.00,0.0008
1918.00,0.0008
1915.00,0.0006
1912.00,0.0006
1909.00,0.0006
1906.00,0.0007
1903.00,0.0007
1900.00,0.0010
1897.00,0.0011
1894.00,0.0014
1891.00,0.0016
1888.00,0.0018
1885.00,0.0019
1882.00,0.0022
1879.00,0.0024
1876.00,0.0024
1873.00,0.0026
1870.00,0.0028
1867.00,0.0027
1864.00,0.0024
1861.00,0.0020
1858.00,0.0015
1855.00,0.0012
1852.00,0.0009
1849.00,0.0008
1846.00,0.0008
1843.00,0.0008
1840.00,0.0007
1837.00,0.0008
1834.00,0.0008
1831.00,0.0010
1828.00,0.0012
1825.00,0.0015
1822.00,0.0016
1819.00,0.0017
1816.00,0.0019
1813.00,0.0023
1810.00,0.0026
1807.00,0.0029
1804.00,0.0031
1801.00,0.0033
1798.00,0.0031
1795.00,0.0027
1792.00,0.0022
1789.00,0.0018
1786.00,0.0016
1783.00,0.0016
1780.00,0.0016
1777.00,0.0016
1774.00,0.0018
1771.00,0.0018
1768.00,0.0018
1765.00,0.0018
1762.00,0.0021
1759.00,0.0023
1756.00,0.0027
1753.00,0.0030
1750.00,0.0035
1747.00,0.0038
1744.00,0.0040
1741.00,0.0042
1738.00,0.0042
1735.00,0.0041
1732.00,0.0038
1729.00,0.0037
1726.00,0.0035
1723.00,0.0034
1720.00,0.0033
1717.00,0.0031
1714.00,0.0030
1711.00,0.0029
1708.00,0.0030
1705.00,0.0031
1702.00,0.0033
1699.00,0.0035
1696.00,0.0037
1693.00,0.0041
1690.00,0.0048
1687.00,0.0053
1684.00,0.0056
1681.00,0.0058
1678.00,0.0060
1675.00,0.0062
1672.00,0.0063
1669.00,0.0064
1666.00,0.0064
1663.00,0.0063
1660.00,0.0060
1657.00,0.0058
1654.00,0.0055
1651.00,0.0047
1648.00,0.0047
1645.00,0.0041
1642.00,0.0038
1639.00,0.0036
1636.00,0.0035
1633.00,0.0032
1630.00,0.0032
1627.00,0.0032
1624.00,0.0033
1621.00,0.0033
1618.00,0.0034
1615.00,0.0037
1612.00,0.0046
1609.00,0.0070
1606.00,0.0122
1603.00,0.0188
1600.00,0.0200
1597.00,0.0142
1594.00,0.0092
1591.00,0.0068
1588.00,0.0063
1585.00,0.0081
1582.00,0.0084
1579.00,0.0057
1576.00,0.0037
1573.00,0.0031
1570.00,0.0028
1567.00,0.0024
1564.00,0.0023
1561.00,0.0024
1558.00,0.0024
1555.00,0.0025
1552.00,0.0028
1549.00,0.0031
1546.00,0.0034
1543.00,0.0036
1540.00,0.0033
1537.00,0.0031
1534.00,0.0029
1531.00,0.0026
1528.00,0.0025
1525.00,0.0023
1522.00,0.0023
1519.00,0.0023
1516.00,0.0025
1513.00,0.0027
1510.00,0.0030
1507.00,0.0035
1504.00,0.0044
1501.00,0.0070
1498.00,0.0154
1495.00,0.0384
1492.00,0.0492
1489.00,0.0298
1486.00,0.0155
1483.00,0.0095
1480.00,0.0067
1477.00,0.0057
1474.00,0.0054
1471.00,0.0055
1468.00,0.0060
1465.00,0.0068
1462.00,0.0081
1459.00,0.0116
1456.00,0.0293
1453.00,0.0482
1450.00,0.0473
1447.00,0.0362
1444.00,0.0285
1441.00,0.0222
1438.00,0.0177
1435.00,0.0127
1432.00,0.0097
1429.00,0.0077
1426.00,0.0066
1423.00,0.0059
1420.00,0.0054
1417.00,0.0049
1414.00,0.0046
1411.00,0.0044
1408.00,0.0043
1405.00,0.0043
1402.00,0.0043
1399.00,0.0044
1396.00,0.0047
1393.00,0.0051
1390.00,0.0058
1387.00,0.0070
1384.00,0.0081
1381.00,0.0091
1378.00,0.0100
1375.00,0.0109
1372.00,0.0111
1369.00,0.0109
1366.00,0.0107
1363.00,0.0105
1360.00,0.0100
1357.00,0.0095
1354.00,0.0092
1351.00,0.0091
1348.00,0.0090
1345.00,0.0087
1342.00,0.0082
1339.00,0.0079
1336.00,0.0080
1333.00,0.0086
1330.00,0.0092
1327.00,0.0093
1324.00,0.0090
1321.00,0.0087
1318.00,0.0088
1315.00,0.0090
1312.00,0.0092
1309.00,0.0090
1306.00,0.0085
1303.00,0.0081
1300.00,0.0079
1297.00,0.0079
1294.00,0.0081
1291.00,0.0081
1288.00,0.0077
1285.00,0.0074
1282.00,0.0072
1279.00,0.0070
1276.00,0.0066
1273.00,0.0060
1270.00,0.0057
1267.00,0.0053
1264.00,0.0052
1261.00,0.0050
1258.00,0.0049
1255.00,0.0049
1252.00,0.0050
1249.00,0.0050
1246.00,0.0051
1243.00,0.0051
1240.00,0.0051
1237.00,0.0050
1234.00,0.0050
1231.00,0.0050
1228.00,0.0050
1225.00,0.0051
1222.00,0.0051
1219.00,0.0051
1216.00,0.0051
1213.00,0.0053
1210.00,0.0055
1207.00,0.0059
1204.00,0.0064
1201.00,0.0070
1198.00,0.0075
1195.00,0.0077
1192.00,0.0078
1189.00,0.0080
1186.00,0.0088
1183.00,0.0101
1180.00,0.0103
1177.00,0.0085
1174.00,0.0068
1171.00,0.0062
1168.00,0.0061
1165.00,0.0062
1162.00,0.0067
1159.00,0.0082
1156.00,0.0102
1153.00,0.0102
1150.00,0.0078
1147.00,0.0059
1144.00,0.0050
1141.00,0.0045
1138.00,0.0042
1135.00,0.0041
1132.00,0.0041
1129.00,0.0041
1126.00,0.0041
1123.00,0.0042
1120.00,0.0046
1117.00,0.0051
1114.00,0.0055
1111.00,0.0056
1108.00,0.0055
1105.00,0.0056
1102.00,0.0057
1099.00,0.0059
1096.00,0.0061
1093.00,0.0064
1090.00,0.0067
1087.00,0.0072
1084.00,0.0079
1081.00,0.0089
1078.00,0.0098
1075.00,0.0113
1072.00,0.0130
1069.00,0.0140
1066.00,0.0135
1063.00,0.0119
1060.00,0.0104
1057.00,0.0094
1054.00,0.0086
1051.00,0.0078
1048.00,0.0074
1045.00,0.0071
1042.00,0.0071
1039.00,0.0077
1036.00,0.0104
1033.00,0.0165
1030.00,0.0229
1027.00,0.0240
1024.00,0.0195
1021.00,0.0152
1018.00,0.0126
1015.00,0.0110
1012.00,0.0098
1009.00,0.0092
1006.00,0.0096
1003.00,0.0101
1000.00,0.0087
997.00,0.0073
994.00,0.0070
991.00,0.0070
988.00,0.0074
985.00,0.0081
982.00,0.0087
979.00,0.0089
976.00,0.0084
973.00,0.0081
970.00,0.0084
967.00,0.0094
964.00,0.0099
961.00,0.0091
958.00,0.0078
955.00,0.0070
952.00,0.0067
949.00,0.0070
946.00,0.0073
943.00,0.0076
940.00,0.0074
937.00,0.0066
934.00,0.0059
931.00,0.0054
928.00,0.0052
925.00,0.0053
922.00,0.0057
919.00,0.0065
916.00,0.0079
913.00,0.0107
910.00,0.0141
907.00,0.0163
904.00,0.0153
901.00,0.0119
898.00,0.0085
895.00,0.0065
892.00,0.0055
889.00,0.0049
886.00,0.0045
883.00,0.0042
880.00,0.0040
877.00,0.0039
874.00,0.0037
871.00,0.0036
868.00,0.0036
865.00,0.0035
862.00,0.0036
859.00,0.0036
856.00,0.0038
853.00,0.0043
850.00,0.0052
847.00,0.0067
844.00,0.0080
841.00,0.0084
838.00,0.0074
835.00,0.0057
832.00,0.0045
829.00,0.0039
826.00,0.0037
823.00,0.0034
820.00,0.0034
817.00,0.0036
814.00,0.0037
811.00,0.0038
808.00,0.0039
805.00,0.0040
802.00,0.0042
799.00,0.0047
796.00,0.0054
793.00,0.0064
790.00,0.0077
787.00,0.0092
784.00,0.0112
781.00,0.0137
778.00,0.0175
775.00,0.0228
772.00,0.0297
769.00,0.0382
766.00,0.0468
763.00,0.0551
760.00,0.0639
757.00,0.0708
754.00,0.0728
751.00,0.0720
748.00,0.0710
745.00,0.0647
742.00,0.0511
739.00,0.0375
736.00,0.0271
733.00,0.0181
730.00,0.0120
727.00,0.0092
724.00,0.0082
721.00,0.0081
718.00,0.0084
715.00,0.0104
712.00,0.0155
709.00,0.0286
706.00,0.0539
703.00,0.0920
700.00,0.1386
697.00,0.1858
694.00,0.2007
691.00,0.1505
688.00,0.0957
685.00,0.0659
682.00,0.0499
679.00,0.0402
676.00,0.0344
673.00,0.0305
670.00,0.0277
667.00,0.0244
664.00,0.0215
661.00,0.0190
658.00,0.0167
655.00,0.0149
652.00,0.0134
649.00,0.0124
646.00,0.0112
643.00,0.0106
640.00,0.0105
637.00,0.0111
634.00,0.0120
631.00,0.0127
628.00,0.0135
625.00,0.0141
622.00,0.0148
619.00,0.0145
616.00,0.0132
613.00,0.0126
610.00,0.0119
607.00,0.0114
604.00,0.0112
601.00,0.0116
598.00,0.0122
595.00,0.0127
592.00,0.0133
589.00,0.0139
586.00,0.0145
583.00,0.0155
580.00,0.0172
577.00,0.0195
574.00,0.0227
571.00,0.0254
568.00,0.0283
565.00,0.0312
562.00,0.0336
559.00,0.0363
556.00,0.0395
553.00,0.0427
550.00,0.0467
547.00,0.0518
544.00,0.0587
541.00,0.0657
538.00,0.0692
535.00,0.0652
532.00,0.0555
529.00,0.0446
526.00,0.0357
523.00,0.0292
520.00,0.0251
517.00,0.0226
514.00,0.0200
511.00,0.0181
508.00,0.0167
505.00,0.0151
502.00,0.0134
499.00,0.0128
496.00,0.0123
493.00,0.0118
490.00,0.0112
487.00,0.0105
484.00,0.0102
481.00,0.0098
478.00,0.0093
475.00,0.0089
472.00,0.0091
469.00,0.0088
466.00,0.0086
463.00,0.0085
460.00,0.0078
457.00,0.0082
454.00,0.0076
451.00,0.0071
448.00,0.0073
445.00,0.0082
442.00,0.0078
439.00,0.0072
436.00,0.0078
433.00,0.0074
430.00,0.0069
427.00,0.0065
424.00,0.0069
421.00,0.0080
418.00,0.0086
415.00,0.0056
412.00,0.0058
409.00,0.0077
406.00,0.0088
403.00,0.0074
400.00,0.0066