File: FTIR/Olivia/2025_08_13_Polystyrene_Standard_scan3.csv
Created as New Dataset,Sample 055 By YargerLab Date Wednesday, August 13 2025
cm-1,A
4000.00,0.0020
3997.00,0.0020
3994.00,0.0019
3991.00,0.0019
3988.00,0.0019
3985.00,0.0020
3982.00,0.0019
3979.00,0.0019
3976.00,0.0019
3973.00,0.0019
3970.00,0.0019
3967.00,0.0019
3964.00,0.0019
3961.00,0.0019
3958.00,0.0019
3955.00,0.0018
3952.00,0.0018
3949.00,0.0018
3946.00,0.0019
3943.00,0.0019
3940.00,0.0018
3937.00,0.0018
3934.00,0.0018
3931.00,0.0018
3928.00,0.0018
3925.00,0.0018
3922.00,0.0018
3919.00,0.0018
3916.00,0.0018
3913.00,0.0018
3910.00,0.0019
3907.00,0.0018
3904.00,0.0016
3901.00,0.0016
3898.00,0.0016
3895.00,0.0017
3892.00,0.0017
3889.00,0.0017
3886.00,0.0016
3883.00,0.0016
3880.00,0.0016
3877.00,0.0017
3874.00,0.0017
3871.00,0.0016
3868.00,0.0016
3865.00,0.0016
3862.00,0.0017
3859.00,0.0016
3856.00,0.0014
3853.00,0.0013
3850.00,0.0013
3847.00,0.0016
3844.00,0.0017
3841.00,0.0017
3838.00,0.0016
3835.00,0.0015
3832.00,0.0016
3829.00,0.0017
3826.00,0.0018
3823.00,0.0017
3820.00,0.0016
3817.00,0.0015
3814.00,0.0017
3811.00,0.0017
3808.00,0.0017
3805.00,0.0016
3802.00,0.0016
3799.00,0.0016
3796.00,0.0017
3793.00,0.0018
3790.00,0.0017
3787.00,0.0018
3784.00,0.0018
3781.00,0.0017
3778.00,0.0017
3775.00,0.0017
3772.00,0.0017
3769.00,0.0016
3766.00,0.0017
3763.00,0.0017
3760.00,0.0017
3757.00,0.0016
3754.00,0.0015
3751.00,0.0014
3748.00,0.0013
3745.00,0.0012
3742.00,0.0013
3739.00,0.0015
3736.00,0.0015
3733.00,0.0015
3730.00,0.0015
3727.00,0.0017
3724.00,0.0017
3721.00,0.0017
3718.00,0.0017
3715.00,0.0015
3712.00,0.0015
3709.00,0.0015
3706.00,0.0015
3703.00,0.0016
3700.00,0.0017
3697.00,0.0017
3694.00,0.0016
3691.00,0.0015
3688.00,0.0015
3685.00,0.0016
3682.00,0.0018
3679.00,0.0016
3676.00,0.0015
3673.00,0.0014
3670.00,0.0015
3667.00,0.0016
3664.00,0.0017
3661.00,0.0018
3658.00,0.0018
3655.00,0.0018
3652.00,0.0016
3649.00,0.0016
3646.00,0.0016
3643.00,0.0017
3640.00,0.0018
3637.00,0.0018
3634.00,0.0017
3631.00,0.0015
3628.00,0.0015
3625.00,0.0016
3622.00,0.0017
3619.00,0.0017
3616.00,0.0017
3613.00,0.0016
3610.00,0.0016
3607.00,0.0017
3604.00,0.0018
3601.00,0.0018
3598.00,0.0018
3595.00,0.0018
3592.00,0.0018
3589.00,0.0017
3586.00,0.0017
3583.00,0.0017
3580.00,0.0018
3577.00,0.0019
3574.00,0.0019
3571.00,0.0018
3568.00,0.0017
3565.00,0.0018
3562.00,0.0019
3559.00,0.0020
3556.00,0.0019
3553.00,0.0019
3550.00,0.0020
3547.00,0.0019
3544.00,0.0020
3541.00,0.0020
3538.00,0.0020
3535.00,0.0020
3532.00,0.0020
3529.00,0.0020
3526.00,0.0020
3523.00,0.0020
3520.00,0.0021
3517.00,0.0021
3514.00,0.0021
3511.00,0.0021
3508.00,0.0022
3505.00,0.0022
3502.00,0.0022
3499.00,0.0022
3496.00,0.0022
3493.00,0.0022
3490.00,0.0022
3487.00,0.0022
3484.00,0.0022
3481.00,0.0022
3478.00,0.0022
3475.00,0.0023
3472.00,0.0023
3469.00,0.0022
3466.00,0.0022
3463.00,0.0023
3460.00,0.0023
3457.00,0.0023
3454.00,0.0023
3451.00,0.0023
3448.00,0.0023
3445.00,0.0023
3442.00,0.0024
3439.00,0.0023
3436.00,0.0023
3433.00,0.0023
3430.00,0.0023
3427.00,0.0023
3424.00,0.0023
3421.00,0.0023
3418.00,0.0022
3415.00,0.0023
3412.00,0.0023
3409.00,0.0023
3406.00,0.0023
3403.00,0.0023
3400.00,0.0022
3397.00,0.0023
3394.00,0.0022
3391.00,0.0022
3388.00,0.0022
3385.00,0.0022
3382.00,0.0022
3379.00,0.0022
3376.00,0.0022
3373.00,0.0022
3370.00,0.0022
3367.00,0.0022
3364.00,0.0022
3361.00,0.0022
3358.00,0.0022
3355.00,0.0022
3352.00,0.0022
3349.00,0.0022
3346.00,0.0022
3343.00,0.0022
3340.00,0.0022
3337.00,0.0022
3334.00,0.0021
3331.00,0.0021
3328.00,0.0022
3325.00,0.0021
3322.00,0.0022
3319.00,0.0021
3316.00,0.0021
3313.00,0.0021
3310.00,0.0021
3307.00,0.0022
3304.00,0.0021
3301.00,0.0021
3298.00,0.0020
3295.00,0.0021
3292.00,0.0021
3289.00,0.0021
3286.00,0.0021
3283.00,0.0021
3280.00,0.0021
3277.00,0.0020
3274.00,0.0020
3271.00,0.0021
3268.00,0.0021
3265.00,0.0020
3262.00,0.0020
3259.00,0.0020
3256.00,0.0020
3253.00,0.0020
3250.00,0.0020
3247.00,0.0020
3244.00,0.0020
3241.00,0.0020
3238.00,0.0020
3235.00,0.0020
3232.00,0.0020
3229.00,0.0020
3226.00,0.0020
3223.00,0.0020
3220.00,0.0021
3217.00,0.0020
3214.00,0.0020
3211.00,0.0020
3208.00,0.0020
3205.00,0.0020
3202.00,0.0021
3199.00,0.0021
3196.00,0.0021
3193.00,0.0020
3190.00,0.0020
3187.00,0.0020
3184.00,0.0020
3181.00,0.0019
3178.00,0.0019
3175.00,0.0019
3172.00,0.0020
3169.00,0.0021
3166.00,0.0021
3163.00,0.0022
3160.00,0.0022
3157.00,0.0020
3154.00,0.0020
3151.00,0.0020
3148.00,0.0020
3145.00,0.0020
3142.00,0.0020
3139.00,0.0019
3136.00,0.0019
3133.00,0.0020
3130.00,0.0020
3127.00,0.0021
3124.00,0.0021
3121.00,0.0022
3118.00,0.0024
3115.00,0.0026
3112.00,0.0032
3109.00,0.0039
3106.00,0.0046
3103.00,0.0048
3100.00,0.0047
3097.00,0.0045
3094.00,0.0049
3091.00,0.0061
3088.00,0.0083
3085.00,0.0107
3082.00,0.0115
3079.00,0.0102
3076.00,0.0088
3073.00,0.0084
3070.00,0.0092
3067.00,0.0112
3064.00,0.0139
3061.00,0.0158
3058.00,0.0152
3055.00,0.0128
3052.00,0.0103
3049.00,0.0088
3046.00,0.0082
3043.00,0.0084
3040.00,0.0097
3037.00,0.0121
3034.00,0.0163
3031.00,0.0224
3028.00,0.0286
3025.00,0.0303
3022.00,0.0252
3019.00,0.0175
3016.00,0.0119
3013.00,0.0089
3010.00,0.0077
3007.00,0.0077
3004.00,0.0085
3001.00,0.0087
2998.00,0.0074
2995.00,0.0058
2992.00,0.0049
2989.00,0.0045
2986.00,0.0044
2983.00,0.0043
2980.00,0.0044
2977.00,0.0046
2974.00,0.0047
2971.00,0.0049
2968.00,0.0053
2965.00,0.0057
2962.00,0.0063
2959.00,0.0071
2956.00,0.0081
2953.00,0.0093
2950.00,0.0108
2947.00,0.0127
2944.00,0.0150
2941.00,0.0178
2938.00,0.0212
2935.00,0.0250
2932.00,0.0289
2929.00,0.0324
2926.00,0.0349
2923.00,0.0360
2920.00,0.0358
2917.00,0.0343
2914.00,0.0321
2911.00,0.0295
2908.00,0.0267
2905.00,0.0239
2902.00,0.0211
2899.00,0.0185
2896.00,0.0163
2893.00,0.0146
2890.00,0.0134
2887.00,0.0124
2884.00,0.0115
2881.00,0.0107
2878.00,0.0100
2875.00,0.0094
2872.00,0.0089
2869.00,0.0088
2866.00,0.0091
2863.00,0.0100
2860.00,0.0114
2857.00,0.0131
2854.00,0.0146
2851.00,0.0155
2848.00,0.0154
2845.00,0.0140
2842.00,0.0115
2839.00,0.0088
2836.00,0.0067
2833.00,0.0053
2830.00,0.0046
2827.00,0.0042
2824.00,0.0040
2821.00,0.0038
2818.00,0.0037
2815.00,0.0036
2812.00,0.0035
2809.00,0.0035
2806.00,0.0034
2803.00,0.0033
2800.00,0.0033
2797.00,0.0032
2794.00,0.0031
2791.00,0.0030
2788.00,0.0030
2785.00,0.0029
2782.00,0.0029
2779.00,0.0029
2776.00,0.0029
2773.00,0.0028
2770.00,0.0027
2767.00,0.0027
2764.00,0.0026
2761.00,0.0026
2758.00,0.0026
2755.00,0.0026
2752.00,0.0026
2749.00,0.0025
2746.00,0.0025
2743.00,0.0026
2740.00,0.0026
2737.00,0.0026
2734.00,0.0026
2731.00,0.0026
2728.00,0.0026
2725.00,0.0026
2722.00,0.0026
2719.00,0.0026
2716.00,0.0026
2713.00,0.0026
2710.00,0.0026
2707.00,0.0025
2704.00,0.0026
2701.00,0.0026
2698.00,0.0026
2695.00,0.0026
2692.00,0.0026
2689.00,0.0026
2686.00,0.0026
2683.00,0.0026
2680.00,0.0026
2677.00,0.0025
2674.00,0.0025
2671.00,0.0025
2668.00,0.0025
2665.00,0.0026
2662.00,0.0027
2659.00,0.0027
2656.00,0.0027
2653.00,0.0027
2650.00,0.0027
2647.00,0.0027
2644.00,0.0027
2641.00,0.0027
2638.00,0.0027
2635.00,0.0028
2632.00,0.0028
2629.00,0.0027
2626.00,0.0026
2623.00,0.0025
2620.00,0.0025
2617.00,0.0025
2614.00,0.0024
2611.00,0.0024
2608.00,0.0025
2605.00,0.0026
2602.00,0.0025
2599.00,0.0025
2596.00,0.0024
2593.00,0.0023
2590.00,0.0023
2587.00,0.0023
2584.00,0.0023
2581.00,0.0024
2578.00,0.0023
2575.00,0.0022
2572.00,0.0022
2569.00,0.0021
2566.00,0.0021
2563.00,0.0020
2560.00,0.0020
2557.00,0.0020
2554.00,0.0020
2551.00,0.0021
2548.00,0.0021
2545.00,0.0020
2542.00,0.0019
2539.00,0.0020
2536.00,0.0020
2533.00,0.0019
2530.00,0.0020
2527.00,0.0019
2524.00,0.0020
2521.00,0.0020
2518.00,0.0019
2515.00,0.0019
2512.00,0.0019
2509.00,0.0020
2506.00,0.0019
2503.00,0.0019
2500.00,0.0019
2497.00,0.0019
2494.00,0.0019
2491.00,0.0020
2488.00,0.0019
2485.00,0.0018
2482.00,0.0018
2479.00,0.0018
2476.00,0.0017
2473.00,0.0017
2470.00,0.0017
2467.00,0.0017
2464.00,0.0018
2461.00,0.0017
2458.00,0.0018
2455.00,0.0018
2452.00,0.0017
2449.00,0.0017
2446.00,0.0018
2443.00,0.0017
2440.00,0.0016
2437.00,0.0016
2434.00,0.0016
2431.00,0.0016
2428.00,0.0016
2425.00,0.0014
2422.00,0.0014
2419.00,0.0015
2416.00,0.0015
2413.00,0.0015
2410.00,0.0015
2407.00,0.0014
2404.00,0.0014
2401.00,0.0014
2398.00,0.0015
2395.00,0.0015
2392.00,0.0015
2389.00,0.0014
2386.00,0.0015
2383.00,0.0015
2380.00,0.0016
2377.00,0.0017
2374.00,0.0017
2371.00,0.0018
2368.00,0.0018
2365.00,0.0018
2362.00,0.0019
2359.00,0.0020
2356.00,0.0021
2353.00,0.0020
2350.00,0.0020
2347.00,0.0022
2344.00,0.0022
2341.00,0.0023
2338.00,0.0024
2335.00,0.0024
2332.00,0.0023
2329.00,0.0023
2326.00,0.0028
2323.00,0.0027
2320.00,0.0025
2317.00,0.0024
2314.00,0.0025
2311.00,0.0025
2308.00,0.0023
2305.00,0.0021
2302.00,0.0021
2299.00,0.0020
2296.00,0.0020
2293.00,0.0021
2290.00,0.0022
2287.00,0.0021
2284.00,0.0020
2281.00,0.0019
2278.00,0.0018
2275.00,0.0017
2272.00,0.0017
2269.00,0.0018
2266.00,0.0017
2263.00,0.0016
2260.00,0.0017
2257.00,0.0016
2254.00,0.0015
2251.00,0.0014
2248.00,0.0014
2245.00,0.0014
2242.00,0.0013
2239.00,0.0014
2236.00,0.0014
2233.00,0.0013
2230.00,0.0013
2227.00,0.0013
2224.00,0.0012
2221.00,0.0011
2218.00,0.0013
2215.00,0.0013
2212.00,0.0010
2209.00,0.0011
2206.00,0.0011
2203.00,0.0011
2200.00,0.0010
2197.00,0.0011
2194.00,0.0012
2191.00,0.0015
2188.00,0.0013
2185.00,0.0011
2182.00,0.0010
2179.00,0.0008
2176.00,0.0008
2173.00,0.0011
2170.00,0.0014
2167.00,0.0017
2164.00,0.0018
2161.00,0.0006
2158.00,-0.0010
2155.00,-0.0003
2152.00,0.0001
2149.00,0.0002
2146.00,0.0000
2143.00,0.0001
2140.00,0.0002
2137.00,-0.0000
2134.00,-0.0001
2131.00,0.0001
2128.00,0.0004
2125.00,0.0005
2122.00,0.0007
2119.00,0.0007
2116.00,0.0010
2113.00,0.0011
2110.00,0.0010
2107.00,0.0010
2104.00,0.0010
2101.00,0.0009
2098.00,0.0008
2095.00,0.0006
2092.00,0.0009
2089.00,0.0009
2086.00,0.0011
2083.00,0.0011
2080.00,0.0010
2077.00,0.0010
2074.00,0.0010
2071.00,0.0009
2068.00,0.0008
2065.00,0.0006
2062.00,0.0008
2059.00,0.0008
2056.00,0.0007
2053.00,0.0010
2050.00,0.0010
2047.00,0.0008
2044.00,0.0006
2041.00,0.0008
2038.00,0.0011
2035.00,0.0005
2032.00,0.0002
2029.00,0.0001
2026.00,0.0002
2023.00,0.0002
2020.00,0.0002
2017.00,0.0001
2014.00,0.0005
2011.00,0.0006
2008.00,-0.0000
2005.00,0.0001
2002.00,0.0003
1999.00,0.0006
1996.00,0.0010
1993.00,0.0011
1990.00,0.0010
1987.00,0.0011
1984.00,0.0014
1981.00,0.0016
1978.00,0.0007
1975.00,0.0005
1972.00,0.0008
1969.00,0.0013
1966.00,0.0017
1963.00,0.0020
1960.00,0.0024
1957.00,0.0028
1954.00,0.0031
1951.00,0.0032
1948.00,0.0037
1945.00,0.0042
1942.00,0.0044
1939.00,0.0040
1936.00,0.0033
1933.00,0.0026
1930.00,0.0021
1927.00,0.0017
1924.00,0.0015
1921.00,0.0014
1918.00,0.0013
1915.00,0.0012
1912.00,0.0011
1909.00,0.0011
1906.00,0.0012
1903.00,0.0013
1900.00,0.0016
1897.00,0.0018
1894.00,0.0022
1891.00,0.0026
1888.00,0.0028
1885.00,0.0030
1882.00,0.0034
1879.00,0.0036
1876.00,0.0038
1873.00,0.0040
1870.00,0.0039
1867.00,0.0038
1864.00,0.0035
1861.00,0.0030
1858.00,0.0024
1855.00,0.0020
1852.00,0.0017
1849.00,0.0015
1846.00,0.0014
1843.00,0.0014
1840.00,0.0014
1837.00,0.0014
1834.00,0.0015
1831.00,0.0017
1828.00,0.0019
1825.00,0.0022
1822.00,0.0026
1819.00,0.0028
1816.00,0.0031
1813.00,0.0035
1810.00,0.0041
1807.00,0.0045
1804.00,0.0047
1801.00,0.0047
1798.00,0.0045
1795.00,0.0040
1792.00,0.0033
1789.00,0.0029
1786.00,0.0027
1783.00,0.0027
1780.00,0.0027
1777.00,0.0028
1774.00,0.0029
1771.00,0.0030
1768.00,0.0030
1765.00,0.0031
1762.00,0.0034
1759.00,0.0038
1756.00,0.0043
1753.00,0.0049
1750.00,0.0055
1747.00,0.0060
1744.00,0.0064
1741.00,0.0066
1738.00,0.0067
1735.00,0.0064
1732.00,0.0062
1729.00,0.0056
1726.00,0.0052
1723.00,0.0049
1720.00,0.0045
1717.00,0.0042
1714.00,0.0041
1711.00,0.0040
1708.00,0.0038
1705.00,0.0036
1702.00,0.0035
1699.00,0.0033
1696.00,0.0033
1693.00,0.0032
1690.00,0.0031
1687.00,0.0031
1684.00,0.0033
1681.00,0.0034
1678.00,0.0035
1675.00,0.0036
1672.00,0.0037
1669.00,0.0037
1666.00,0.0038
1663.00,0.0037
1660.00,0.0036
1657.00,0.0034
1654.00,0.0033
1651.00,0.0033
1648.00,0.0031
1645.00,0.0030
1642.00,0.0030
1639.00,0.0029
1636.00,0.0029
1633.00,0.0030
1630.00,0.0031
1627.00,0.0032
1624.00,0.0033
1621.00,0.0035
1618.00,0.0038
1615.00,0.0046
1612.00,0.0057
1609.00,0.0092
1606.00,0.0168
1603.00,0.0261
1600.00,0.0271
1597.00,0.0189
1594.00,0.0122
1591.00,0.0089
1588.00,0.0083
1585.00,0.0108
1582.00,0.0110
1579.00,0.0073
1576.00,0.0050
1573.00,0.0040
1570.00,0.0034
1567.00,0.0031
1564.00,0.0030
1561.00,0.0029
1558.00,0.0030
1555.00,0.0033
1552.00,0.0037
1549.00,0.0041
1546.00,0.0045
1543.00,0.0045
1540.00,0.0045
1537.00,0.0043
1534.00,0.0038
1531.00,0.0035
1528.00,0.0032
1525.00,0.0030
1522.00,0.0031
1519.00,0.0031
1516.00,0.0032
1513.00,0.0036
1510.00,0.0038
1507.00,0.0046
1504.00,0.0064
1501.00,0.0097
1498.00,0.0218
1495.00,0.0558
1492.00,0.0669
1489.00,0.0389
1486.00,0.0206
1483.00,0.0127
1480.00,0.0089
1477.00,0.0074
1474.00,0.0067
1471.00,0.0067
1468.00,0.0070
1465.00,0.0079
1462.00,0.0098
1459.00,0.0144
1456.00,0.0425
1453.00,0.0674
1450.00,0.0633
1447.00,0.0478
1444.00,0.0372
1441.00,0.0284
1438.00,0.0217
1435.00,0.0154
1432.00,0.0114
1429.00,0.0087
1426.00,0.0073
1423.00,0.0064
1420.00,0.0060
1417.00,0.0058
1414.00,0.0057
1411.00,0.0055
1408.00,0.0055
1405.00,0.0056
1402.00,0.0056
1399.00,0.0057
1396.00,0.0061
1393.00,0.0070
1390.00,0.0081
1387.00,0.0096
1384.00,0.0111
1381.00,0.0122
1378.00,0.0134
1375.00,0.0145
1372.00,0.0150
1369.00,0.0148
1366.00,0.0144
1363.00,0.0139
1360.00,0.0134
1357.00,0.0128
1354.00,0.0125
1351.00,0.0124
1348.00,0.0122
1345.00,0.0117
1342.00,0.0110
1339.00,0.0106
1336.00,0.0109
1333.00,0.0117
1330.00,0.0126
1327.00,0.0126
1324.00,0.0120
1321.00,0.0116
1318.00,0.0117
1315.00,0.0121
1312.00,0.0123
1309.00,0.0120
1306.00,0.0114
1303.00,0.0107
1300.00,0.0102
1297.00,0.0098
1294.00,0.0096
1291.00,0.0093
1288.00,0.0090
1285.00,0.0089
1282.00,0.0088
1279.00,0.0086
1276.00,0.0081
1273.00,0.0076
1270.00,0.0072
1267.00,0.0069
1264.00,0.0067
1261.00,0.0066
1258.00,0.0066
1255.00,0.0068
1252.00,0.0069
1249.00,0.0070
1246.00,0.0071
1243.00,0.0070
1240.00,0.0070
1237.00,0.0069
1234.00,0.0068
1231.00,0.0068
1228.00,0.0069
1225.00,0.0070
1222.00,0.0070
1219.00,0.0070
1216.00,0.0071
1213.00,0.0073
1210.00,0.0078
1207.00,0.0083
1204.00,0.0090
1201.00,0.0099
1198.00,0.0105
1195.00,0.0107
1192.00,0.0109
1189.00,0.0113
1186.00,0.0124
1183.00,0.0144
1180.00,0.0145
1177.00,0.0119
1174.00,0.0097
1171.00,0.0089
1168.00,0.0087
1165.00,0.0088
1162.00,0.0095
1159.00,0.0117
1156.00,0.0145
1153.00,0.0143
1150.00,0.0109
1147.00,0.0084
1144.00,0.0073
1141.00,0.0066
1138.00,0.0062
1135.00,0.0059
1132.00,0.0058
1129.00,0.0058
1126.00,0.0059
1123.00,0.0061
1120.00,0.0066
1117.00,0.0073
1114.00,0.0079
1111.00,0.0080
1108.00,0.0079
1105.00,0.0078
1102.00,0.0079
1099.00,0.0081
1096.00,0.0086
1093.00,0.0090
1090.00,0.0094
1087.00,0.0102
1084.00,0.0113
1081.00,0.0129
1078.00,0.0143
1075.00,0.0163
1072.00,0.0187
1069.00,0.0199
1066.00,0.0190
1063.00,0.0166
1060.00,0.0144
1057.00,0.0129
1054.00,0.0118
1051.00,0.0110
1048.00,0.0103
1045.00,0.0100
1042.00,0.0099
1039.00,0.0108
1036.00,0.0148
1033.00,0.0236
1030.00,0.0324
1027.00,0.0338
1024.00,0.0274
1021.00,0.0214
1018.00,0.0178
1015.00,0.0155
1012.00,0.0140
1009.00,0.0132
1006.00,0.0138
1003.00,0.0145
1000.00,0.0125
997.00,0.0106
994.00,0.0100
991.00,0.0103
988.00,0.0109
985.00,0.0118
982.00,0.0128
979.00,0.0130
976.00,0.0123
973.00,0.0118
970.00,0.0125
967.00,0.0139
964.00,0.0144
961.00,0.0133
958.00,0.0114
955.00,0.0104
952.00,0.0100
949.00,0.0103
946.00,0.0110
943.00,0.0112
940.00,0.0108
937.00,0.0098
934.00,0.0088
931.00,0.0080
928.00,0.0078
925.00,0.0080
922.00,0.0085
919.00,0.0096
916.00,0.0118
913.00,0.0155
910.00,0.0201
907.00,0.0227
904.00,0.0212
901.00,0.0166
898.00,0.0119
895.00,0.0092
892.00,0.0079
889.00,0.0073
886.00,0.0067
883.00,0.0063
880.00,0.0060
877.00,0.0058
874.00,0.0056
871.00,0.0055
868.00,0.0053
865.00,0.0053
862.00,0.0053
859.00,0.0052
856.00,0.0055
853.00,0.0062
850.00,0.0075
847.00,0.0094
844.00,0.0112
841.00,0.0115
838.00,0.0103
835.00,0.0080
832.00,0.0062
829.00,0.0054
826.00,0.0052
823.00,0.0051
820.00,0.0051
817.00,0.0052
814.00,0.0052
811.00,0.0053
808.00,0.0056
805.00,0.0058
802.00,0.0062
799.00,0.0066
796.00,0.0075
793.00,0.0089
790.00,0.0107
787.00,0.0128
784.00,0.0154
781.00,0.0189
778.00,0.0241
775.00,0.0314
772.00,0.0410
769.00,0.0524
766.00,0.0638
763.00,0.0746
760.00,0.0857
757.00,0.0942
754.00,0.0959
751.00,0.0947
748.00,0.0935
745.00,0.0849
742.00,0.0667
739.00,0.0489
736.00,0.0349
733.00,0.0232
730.00,0.0158
727.00,0.0123
724.00,0.0111
721.00,0.0110
718.00,0.0117
715.00,0.0142
712.00,0.0212
709.00,0.0388
706.00,0.0732
703.00,0.1258
700.00,0.1923
697.00,0.2594
694.00,0.2691
691.00,0.1897
688.00,0.1186
685.00,0.0824
682.00,0.0629
679.00,0.0511
676.00,0.0439
673.00,0.0391
670.00,0.0355
667.00,0.0313
664.00,0.0282
661.00,0.0250
658.00,0.0220
655.00,0.0195
652.00,0.0176
649.00,0.0162
646.00,0.0151
643.00,0.0143
640.00,0.0142
637.00,0.0151
634.00,0.0161
631.00,0.0172
628.00,0.0179
625.00,0.0186
622.00,0.0196
619.00,0.0194
616.00,0.0175
613.00,0.0164
610.00,0.0158
607.00,0.0153
604.00,0.0152
601.00,0.0157
598.00,0.0162
595.00,0.0168
592.00,0.0176
589.00,0.0186
586.00,0.0193
583.00,0.0207
580.00,0.0229
577.00,0.0258
574.00,0.0295
571.00,0.0332
568.00,0.0371
565.00,0.0410
562.00,0.0445
559.00,0.0481
556.00,0.0520
553.00,0.0563
550.00,0.0614
547.00,0.0683
544.00,0.0771
541.00,0.0859
538.00,0.0890
535.00,0.0834
532.00,0.0710
529.00,0.0581
526.00,0.0468
523.00,0.0389
520.00,0.0337
517.00,0.0301
514.00,0.0271
511.00,0.0246
508.00,0.0223
505.00,0.0202
502.00,0.0186
499.00,0.0176
496.00,0.0166
493.00,0.0159
490.00,0.0152
487.00,0.0146
484.00,0.0136
481.00,0.0133
478.00,0.0127
475.00,0.0121
472.00,0.0114
469.00,0.0126
466.00,0.0120
463.00,0.0118
460.00,0.0115
457.00,0.0112
454.00,0.0105
451.00,0.0104
448.00,0.0111
445.00,0.0112
442.00,0.0108
439.00,0.0109
436.00,0.0098
433.00,0.0101
430.00,0.0099
427.00,0.0092
424.00,0.0098
421.00,0.0093
418.00,0.0081
415.00,0.0087
412.00,0.0103
409.00,0.0108
406.00,0.0092
403.00,0.0091
400.00,0.0100