File: FTIR/Olivia/2025_08_04_Polystyrene_film_scan3.csv
Created as New Dataset,Sample 1031 By YargerLab Date Monday, August 04 2025
cm-1,A
4000.00,0.0002
3997.00,0.0002
3994.00,0.0002
3991.00,0.0002
3988.00,0.0002
3985.00,0.0002
3982.00,0.0002
3979.00,0.0002
3976.00,0.0002
3973.00,0.0002
3970.00,0.0002
3967.00,0.0002
3964.00,0.0002
3961.00,0.0002
3958.00,0.0002
3955.00,0.0002
3952.00,0.0001
3949.00,0.0001
3946.00,0.0001
3943.00,0.0002
3940.00,0.0002
3937.00,0.0002
3934.00,0.0002
3931.00,0.0001
3928.00,0.0002
3925.00,0.0002
3922.00,0.0002
3919.00,0.0001
3916.00,0.0002
3913.00,0.0002
3910.00,0.0002
3907.00,0.0001
3904.00,0.0001
3901.00,0.0001
3898.00,0.0001
3895.00,0.0001
3892.00,0.0001
3889.00,0.0001
3886.00,0.0001
3883.00,0.0001
3880.00,0.0001
3877.00,0.0001
3874.00,0.0001
3871.00,0.0001
3868.00,0.0001
3865.00,0.0001
3862.00,0.0001
3859.00,0.0001
3856.00,0.0001
3853.00,0.0001
3850.00,0.0000
3847.00,0.0001
3844.00,0.0001
3841.00,0.0001
3838.00,0.0001
3835.00,0.0001
3832.00,0.0002
3829.00,0.0002
3826.00,0.0001
3823.00,0.0000
3820.00,0.0000
3817.00,0.0001
3814.00,0.0002
3811.00,0.0001
3808.00,0.0001
3805.00,0.0002
3802.00,0.0001
3799.00,0.0001
3796.00,0.0001
3793.00,0.0002
3790.00,0.0002
3787.00,0.0002
3784.00,0.0002
3781.00,0.0001
3778.00,0.0002
3775.00,0.0002
3772.00,0.0002
3769.00,0.0002
3766.00,0.0002
3763.00,0.0002
3760.00,0.0001
3757.00,0.0001
3754.00,0.0001
3751.00,0.0001
3748.00,0.0000
3745.00,-0.0000
3742.00,-0.0001
3739.00,-0.0001
3736.00,-0.0001
3733.00,-0.0000
3730.00,-0.0000
3727.00,-0.0000
3724.00,-0.0001
3721.00,-0.0000
3718.00,0.0001
3715.00,0.0001
3712.00,0.0001
3709.00,0.0000
3706.00,0.0000
3703.00,0.0000
3700.00,0.0001
3697.00,0.0001
3694.00,0.0001
3691.00,0.0001
3688.00,0.0000
3685.00,0.0000
3682.00,0.0001
3679.00,0.0001
3676.00,-0.0001
3673.00,-0.0001
3670.00,-0.0001
3667.00,0.0000
3664.00,0.0001
3661.00,0.0001
3658.00,0.0001
3655.00,0.0000
3652.00,-0.0001
3649.00,-0.0002
3646.00,-0.0001
3643.00,0.0000
3640.00,0.0001
3637.00,0.0001
3634.00,0.0001
3631.00,-0.0000
3628.00,-0.0001
3625.00,-0.0000
3622.00,-0.0001
3619.00,-0.0000
3616.00,-0.0001
3613.00,-0.0000
3610.00,0.0000
3607.00,0.0000
3604.00,0.0000
3601.00,0.0000
3598.00,0.0001
3595.00,0.0001
3592.00,0.0001
3589.00,0.0000
3586.00,0.0001
3583.00,0.0000
3580.00,0.0001
3577.00,0.0002
3574.00,0.0001
3571.00,0.0000
3568.00,-0.0000
3565.00,0.0001
3562.00,0.0001
3559.00,0.0002
3556.00,0.0002
3553.00,0.0001
3550.00,0.0001
3547.00,0.0001
3544.00,0.0002
3541.00,0.0002
3538.00,0.0003
3535.00,0.0003
3532.00,0.0002
3529.00,0.0002
3526.00,0.0002
3523.00,0.0003
3520.00,0.0004
3517.00,0.0003
3514.00,0.0003
3511.00,0.0003
3508.00,0.0004
3505.00,0.0003
3502.00,0.0004
3499.00,0.0003
3496.00,0.0004
3493.00,0.0004
3490.00,0.0005
3487.00,0.0005
3484.00,0.0005
3481.00,0.0005
3478.00,0.0005
3475.00,0.0004
3472.00,0.0005
3469.00,0.0005
3466.00,0.0005
3463.00,0.0005
3460.00,0.0005
3457.00,0.0005
3454.00,0.0005
3451.00,0.0005
3448.00,0.0005
3445.00,0.0005
3442.00,0.0005
3439.00,0.0005
3436.00,0.0005
3433.00,0.0005
3430.00,0.0005
3427.00,0.0005
3424.00,0.0005
3421.00,0.0005
3418.00,0.0005
3415.00,0.0005
3412.00,0.0005
3409.00,0.0005
3406.00,0.0006
3403.00,0.0005
3400.00,0.0005
3397.00,0.0005
3394.00,0.0005
3391.00,0.0005
3388.00,0.0005
3385.00,0.0005
3382.00,0.0005
3379.00,0.0005
3376.00,0.0005
3373.00,0.0005
3370.00,0.0005
3367.00,0.0005
3364.00,0.0005
3361.00,0.0004
3358.00,0.0005
3355.00,0.0005
3352.00,0.0005
3349.00,0.0005
3346.00,0.0005
3343.00,0.0005
3340.00,0.0005
3337.00,0.0005
3334.00,0.0005
3331.00,0.0005
3328.00,0.0005
3325.00,0.0005
3322.00,0.0005
3319.00,0.0004
3316.00,0.0004
3313.00,0.0004
3310.00,0.0004
3307.00,0.0004
3304.00,0.0004
3301.00,0.0004
3298.00,0.0004
3295.00,0.0004
3292.00,0.0004
3289.00,0.0004
3286.00,0.0004
3283.00,0.0004
3280.00,0.0004
3277.00,0.0004
3274.00,0.0004
3271.00,0.0004
3268.00,0.0004
3265.00,0.0004
3262.00,0.0004
3259.00,0.0004
3256.00,0.0004
3253.00,0.0004
3250.00,0.0004
3247.00,0.0004
3244.00,0.0004
3241.00,0.0003
3238.00,0.0003
3235.00,0.0003
3232.00,0.0003
3229.00,0.0003
3226.00,0.0003
3223.00,0.0003
3220.00,0.0003
3217.00,0.0003
3214.00,0.0002
3211.00,0.0003
3208.00,0.0003
3205.00,0.0003
3202.00,0.0002
3199.00,0.0003
3196.00,0.0002
3193.00,0.0003
3190.00,0.0003
3187.00,0.0003
3184.00,0.0002
3181.00,0.0002
3178.00,0.0002
3175.00,0.0002
3172.00,0.0002
3169.00,0.0002
3166.00,0.0002
3163.00,0.0002
3160.00,0.0002
3157.00,0.0003
3154.00,0.0003
3151.00,0.0002
3148.00,0.0002
3145.00,0.0002
3142.00,0.0002
3139.00,0.0002
3136.00,0.0002
3133.00,0.0002
3130.00,0.0002
3127.00,0.0002
3124.00,0.0002
3121.00,0.0002
3118.00,0.0003
3115.00,0.0003
3112.00,0.0004
3109.00,0.0006
3106.00,0.0009
3103.00,0.0010
3100.00,0.0010
3097.00,0.0009
3094.00,0.0009
3091.00,0.0012
3088.00,0.0017
3085.00,0.0024
3082.00,0.0028
3079.00,0.0026
3076.00,0.0022
3073.00,0.0019
3070.00,0.0021
3067.00,0.0025
3064.00,0.0032
3061.00,0.0039
3058.00,0.0040
3055.00,0.0034
3052.00,0.0027
3049.00,0.0021
3046.00,0.0020
3043.00,0.0020
3040.00,0.0023
3037.00,0.0028
3034.00,0.0037
3031.00,0.0052
3028.00,0.0070
3025.00,0.0079
3022.00,0.0071
3019.00,0.0051
3016.00,0.0033
3013.00,0.0022
3010.00,0.0017
3007.00,0.0017
3004.00,0.0018
3001.00,0.0019
2998.00,0.0016
2995.00,0.0012
2992.00,0.0009
2989.00,0.0008
2986.00,0.0007
2983.00,0.0006
2980.00,0.0006
2977.00,0.0008
2974.00,0.0010
2971.00,0.0011
2968.00,0.0015
2965.00,0.0018
2962.00,0.0020
2959.00,0.0024
2956.00,0.0027
2953.00,0.0029
2950.00,0.0033
2947.00,0.0037
2944.00,0.0044
2941.00,0.0053
2938.00,0.0064
2935.00,0.0077
2932.00,0.0092
2929.00,0.0106
2926.00,0.0118
2923.00,0.0127
2920.00,0.0131
2917.00,0.0129
2914.00,0.0117
2911.00,0.0101
2908.00,0.0089
2905.00,0.0078
2902.00,0.0069
2899.00,0.0060
2896.00,0.0053
2893.00,0.0046
2890.00,0.0041
2887.00,0.0037
2884.00,0.0034
2881.00,0.0031
2878.00,0.0030
2875.00,0.0029
2872.00,0.0028
2869.00,0.0027
2866.00,0.0028
2863.00,0.0032
2860.00,0.0037
2857.00,0.0045
2854.00,0.0054
2851.00,0.0062
2848.00,0.0061
2845.00,0.0049
2842.00,0.0037
2839.00,0.0027
2836.00,0.0019
2833.00,0.0013
2830.00,0.0010
2827.00,0.0009
2824.00,0.0008
2821.00,0.0007
2818.00,0.0006
2815.00,0.0006
2812.00,0.0006
2809.00,0.0006
2806.00,0.0006
2803.00,0.0005
2800.00,0.0005
2797.00,0.0005
2794.00,0.0004
2791.00,0.0004
2788.00,0.0004
2785.00,0.0004
2782.00,0.0003
2779.00,0.0004
2776.00,0.0004
2773.00,0.0003
2770.00,0.0003
2767.00,0.0003
2764.00,0.0003
2761.00,0.0003
2758.00,0.0003
2755.00,0.0003
2752.00,0.0003
2749.00,0.0003
2746.00,0.0003
2743.00,0.0003
2740.00,0.0003
2737.00,0.0003
2734.00,0.0003
2731.00,0.0003
2728.00,0.0003
2725.00,0.0002
2722.00,0.0002
2719.00,0.0003
2716.00,0.0003
2713.00,0.0003
2710.00,0.0003
2707.00,0.0003
2704.00,0.0002
2701.00,0.0003
2698.00,0.0003
2695.00,0.0003
2692.00,0.0003
2689.00,0.0003
2686.00,0.0003
2683.00,0.0003
2680.00,0.0002
2677.00,0.0003
2674.00,0.0003
2671.00,0.0003
2668.00,0.0003
2665.00,0.0005
2662.00,0.0006
2659.00,0.0006
2656.00,0.0007
2653.00,0.0007
2650.00,0.0007
2647.00,0.0008
2644.00,0.0007
2641.00,0.0007
2638.00,0.0007
2635.00,0.0008
2632.00,0.0008
2629.00,0.0007
2626.00,0.0007
2623.00,0.0006
2620.00,0.0006
2617.00,0.0006
2614.00,0.0006
2611.00,0.0006
2608.00,0.0006
2605.00,0.0006
2602.00,0.0006
2599.00,0.0005
2596.00,0.0005
2593.00,0.0005
2590.00,0.0004
2587.00,0.0005
2584.00,0.0004
2581.00,0.0004
2578.00,0.0004
2575.00,0.0003
2572.00,0.0002
2569.00,0.0002
2566.00,0.0003
2563.00,0.0003
2560.00,0.0003
2557.00,0.0003
2554.00,0.0003
2551.00,0.0002
2548.00,0.0002
2545.00,0.0002
2542.00,0.0002
2539.00,0.0002
2536.00,0.0002
2533.00,0.0002
2530.00,0.0002
2527.00,0.0001
2524.00,0.0001
2521.00,0.0001
2518.00,0.0001
2515.00,0.0002
2512.00,0.0001
2509.00,0.0001
2506.00,0.0001
2503.00,0.0001
2500.00,0.0000
2497.00,0.0001
2494.00,0.0001
2491.00,0.0001
2488.00,0.0000
2485.00,0.0000
2482.00,0.0000
2479.00,0.0000
2476.00,0.0000
2473.00,0.0000
2470.00,0.0000
2467.00,0.0001
2464.00,0.0000
2461.00,0.0001
2458.00,0.0002
2455.00,0.0002
2452.00,0.0001
2449.00,0.0001
2446.00,0.0000
2443.00,0.0001
2440.00,0.0001
2437.00,0.0000
2434.00,-0.0000
2431.00,-0.0000
2428.00,-0.0001
2425.00,-0.0001
2422.00,-0.0001
2419.00,-0.0001
2416.00,-0.0002
2413.00,-0.0002
2410.00,-0.0001
2407.00,-0.0002
2404.00,-0.0002
2401.00,-0.0002
2398.00,-0.0003
2395.00,-0.0003
2392.00,-0.0002
2389.00,-0.0003
2386.00,-0.0003
2383.00,-0.0003
2380.00,-0.0003
2377.00,-0.0003
2374.00,-0.0003
2371.00,-0.0004
2368.00,-0.0004
2365.00,-0.0003
2362.00,-0.0002
2359.00,-0.0002
2356.00,-0.0002
2353.00,-0.0004
2350.00,-0.0002
2347.00,0.0001
2344.00,0.0001
2341.00,0.0002
2338.00,0.0002
2335.00,0.0002
2332.00,0.0001
2329.00,0.0003
2326.00,0.0013
2323.00,0.0012
2320.00,0.0007
2317.00,0.0007
2314.00,0.0005
2311.00,0.0005
2308.00,0.0005
2305.00,0.0006
2302.00,0.0006
2299.00,0.0005
2296.00,0.0006
2293.00,0.0008
2290.00,0.0010
2287.00,0.0011
2284.00,0.0010
2281.00,0.0008
2278.00,0.0007
2275.00,0.0006
2272.00,0.0005
2269.00,0.0004
2266.00,0.0003
2263.00,0.0004
2260.00,0.0005
2257.00,0.0004
2254.00,0.0001
2251.00,0.0001
2248.00,0.0003
2245.00,0.0002
2242.00,0.0001
2239.00,0.0002
2236.00,0.0002
2233.00,0.0003
2230.00,0.0002
2227.00,0.0001
2224.00,-0.0000
2221.00,0.0000
2218.00,0.0002
2215.00,0.0001
2212.00,0.0002
2209.00,0.0002
2206.00,0.0002
2203.00,0.0001
2200.00,0.0001
2197.00,0.0002
2194.00,0.0001
2191.00,0.0002
2188.00,0.0002
2185.00,0.0002
2182.00,-0.0002
2179.00,0.0001
2176.00,-0.0004
2173.00,-0.0003
2170.00,0.0007
2167.00,0.0008
2164.00,0.0008
2161.00,-0.0003
2158.00,-0.0026
2155.00,-0.0024
2152.00,-0.0018
2149.00,-0.0016
2146.00,-0.0015
2143.00,-0.0015
2140.00,-0.0018
2137.00,-0.0018
2134.00,-0.0020
2131.00,-0.0016
2128.00,-0.0011
2125.00,-0.0008
2122.00,-0.0005
2119.00,-0.0004
2116.00,-0.0001
2113.00,-0.0002
2110.00,-0.0002
2107.00,-0.0002
2104.00,-0.0002
2101.00,-0.0001
2098.00,-0.0003
2095.00,-0.0006
2092.00,-0.0006
2089.00,-0.0004
2086.00,-0.0002
2083.00,-0.0000
2080.00,0.0001
2077.00,0.0000
2074.00,-0.0000
2071.00,-0.0002
2068.00,-0.0004
2065.00,-0.0003
2062.00,-0.0004
2059.00,-0.0003
2056.00,-0.0001
2053.00,0.0005
2050.00,0.0007
2047.00,-0.0001
2044.00,-0.0000
2041.00,0.0001
2038.00,-0.0000
2035.00,-0.0003
2032.00,-0.0006
2029.00,-0.0009
2026.00,-0.0006
2023.00,-0.0005
2020.00,-0.0007
2017.00,-0.0006
2014.00,-0.0011
2011.00,-0.0009
2008.00,-0.0011
2005.00,-0.0015
2002.00,-0.0013
1999.00,-0.0008
1996.00,-0.0005
1993.00,-0.0004
1990.00,0.0000
1987.00,0.0004
1984.00,0.0005
1981.00,0.0007
1978.00,-0.0003
1975.00,-0.0010
1972.00,-0.0008
1969.00,-0.0006
1966.00,-0.0002
1963.00,-0.0005
1960.00,-0.0007
1957.00,-0.0007
1954.00,-0.0006
1951.00,-0.0004
1948.00,-0.0001
1945.00,0.0001
1942.00,0.0002
1939.00,0.0000
1936.00,0.0000
1933.00,-0.0003
1930.00,-0.0004
1927.00,-0.0005
1924.00,-0.0006
1921.00,-0.0005
1918.00,-0.0006
1915.00,-0.0005
1912.00,-0.0005
1909.00,-0.0005
1906.00,-0.0005
1903.00,-0.0005
1900.00,-0.0005
1897.00,-0.0004
1894.00,-0.0002
1891.00,-0.0001
1888.00,0.0000
1885.00,0.0001
1882.00,0.0001
1879.00,0.0003
1876.00,0.0004
1873.00,0.0003
1870.00,0.0004
1867.00,0.0003
1864.00,0.0002
1861.00,0.0001
1858.00,-0.0001
1855.00,-0.0002
1852.00,-0.0003
1849.00,-0.0004
1846.00,-0.0005
1843.00,-0.0005
1840.00,-0.0004
1837.00,-0.0004
1834.00,-0.0004
1831.00,-0.0003
1828.00,-0.0001
1825.00,-0.0000
1822.00,0.0000
1819.00,-0.0001
1816.00,-0.0000
1813.00,0.0003
1810.00,0.0005
1807.00,0.0007
1804.00,0.0007
1801.00,0.0008
1798.00,0.0006
1795.00,0.0006
1792.00,0.0005
1789.00,0.0003
1786.00,0.0002
1783.00,0.0001
1780.00,0.0002
1777.00,0.0001
1774.00,0.0001
1771.00,0.0002
1768.00,0.0003
1765.00,0.0004
1762.00,0.0005
1759.00,0.0005
1756.00,0.0007
1753.00,0.0009
1750.00,0.0009
1747.00,0.0010
1744.00,0.0012
1741.00,0.0013
1738.00,0.0012
1735.00,0.0011
1732.00,0.0009
1729.00,0.0009
1726.00,0.0009
1723.00,0.0007
1720.00,0.0007
1717.00,0.0006
1714.00,0.0006
1711.00,0.0005
1708.00,0.0005
1705.00,0.0005
1702.00,0.0004
1699.00,0.0002
1696.00,-0.0001
1693.00,-0.0002
1690.00,-0.0003
1687.00,-0.0003
1684.00,-0.0001
1681.00,0.0000
1678.00,0.0003
1675.00,0.0007
1672.00,0.0009
1669.00,0.0012
1666.00,0.0013
1663.00,0.0015
1660.00,0.0015
1657.00,0.0015
1654.00,0.0015
1651.00,0.0012
1648.00,0.0012
1645.00,0.0011
1642.00,0.0010
1639.00,0.0009
1636.00,0.0008
1633.00,0.0008
1630.00,0.0008
1627.00,0.0008
1624.00,0.0007
1621.00,0.0007
1618.00,0.0007
1615.00,0.0009
1612.00,0.0013
1609.00,0.0023
1606.00,0.0046
1603.00,0.0076
1600.00,0.0084
1597.00,0.0060
1594.00,0.0037
1591.00,0.0026
1588.00,0.0023
1585.00,0.0030
1582.00,0.0034
1579.00,0.0023
1576.00,0.0013
1573.00,0.0010
1570.00,0.0008
1567.00,0.0006
1564.00,0.0006
1561.00,0.0006
1558.00,0.0006
1555.00,0.0006
1552.00,0.0007
1549.00,0.0009
1546.00,0.0011
1543.00,0.0012
1540.00,0.0012
1537.00,0.0011
1534.00,0.0010
1531.00,0.0007
1528.00,0.0006
1525.00,0.0005
1522.00,0.0005
1519.00,0.0005
1516.00,0.0006
1513.00,0.0007
1510.00,0.0008
1507.00,0.0010
1504.00,0.0016
1501.00,0.0027
1498.00,0.0063
1495.00,0.0162
1492.00,0.0228
1489.00,0.0141
1486.00,0.0070
1483.00,0.0042
1480.00,0.0028
1477.00,0.0024
1474.00,0.0024
1471.00,0.0025
1468.00,0.0028
1465.00,0.0031
1462.00,0.0036
1459.00,0.0050
1456.00,0.0121
1453.00,0.0214
1450.00,0.0222
1447.00,0.0167
1444.00,0.0130
1441.00,0.0100
1438.00,0.0078
1435.00,0.0051
1432.00,0.0037
1429.00,0.0026
1426.00,0.0021
1423.00,0.0017
1420.00,0.0016
1417.00,0.0015
1414.00,0.0015
1411.00,0.0014
1408.00,0.0014
1405.00,0.0014
1402.00,0.0014
1399.00,0.0014
1396.00,0.0016
1393.00,0.0019
1390.00,0.0023
1387.00,0.0029
1384.00,0.0034
1381.00,0.0039
1378.00,0.0044
1375.00,0.0048
1372.00,0.0049
1369.00,0.0049
1366.00,0.0048
1363.00,0.0047
1360.00,0.0045
1357.00,0.0042
1354.00,0.0041
1351.00,0.0041
1348.00,0.0041
1345.00,0.0040
1342.00,0.0037
1339.00,0.0035
1336.00,0.0037
1333.00,0.0040
1330.00,0.0043
1327.00,0.0043
1324.00,0.0042
1321.00,0.0040
1318.00,0.0040
1315.00,0.0042
1312.00,0.0042
1309.00,0.0041
1306.00,0.0039
1303.00,0.0037
1300.00,0.0035
1297.00,0.0035
1294.00,0.0034
1291.00,0.0031
1288.00,0.0028
1285.00,0.0027
1282.00,0.0027
1279.00,0.0027
1276.00,0.0025
1273.00,0.0023
1270.00,0.0021
1267.00,0.0020
1264.00,0.0020
1261.00,0.0020
1258.00,0.0020
1255.00,0.0020
1252.00,0.0021
1249.00,0.0022
1246.00,0.0022
1243.00,0.0022
1240.00,0.0022
1237.00,0.0022
1234.00,0.0022
1231.00,0.0022
1228.00,0.0023
1225.00,0.0023
1222.00,0.0023
1219.00,0.0024
1216.00,0.0024
1213.00,0.0025
1210.00,0.0027
1207.00,0.0029
1204.00,0.0033
1201.00,0.0035
1198.00,0.0038
1195.00,0.0039
1192.00,0.0039
1189.00,0.0040
1186.00,0.0046
1183.00,0.0053
1180.00,0.0054
1177.00,0.0045
1174.00,0.0036
1171.00,0.0032
1168.00,0.0031
1165.00,0.0031
1162.00,0.0034
1159.00,0.0042
1156.00,0.0053
1153.00,0.0053
1150.00,0.0041
1147.00,0.0031
1144.00,0.0025
1141.00,0.0023
1138.00,0.0021
1135.00,0.0020
1132.00,0.0021
1129.00,0.0022
1126.00,0.0022
1123.00,0.0023
1120.00,0.0025
1117.00,0.0028
1114.00,0.0031
1111.00,0.0032
1108.00,0.0031
1105.00,0.0031
1102.00,0.0031
1099.00,0.0033
1096.00,0.0035
1093.00,0.0036
1090.00,0.0037
1087.00,0.0040
1084.00,0.0044
1081.00,0.0049
1078.00,0.0056
1075.00,0.0064
1072.00,0.0074
1069.00,0.0079
1066.00,0.0076
1063.00,0.0066
1060.00,0.0058
1057.00,0.0052
1054.00,0.0048
1051.00,0.0043
1048.00,0.0041
1045.00,0.0040
1042.00,0.0040
1039.00,0.0044
1036.00,0.0060
1033.00,0.0093
1030.00,0.0128
1027.00,0.0136
1024.00,0.0112
1021.00,0.0087
1018.00,0.0073
1015.00,0.0062
1012.00,0.0058
1009.00,0.0055
1006.00,0.0056
1003.00,0.0059
1000.00,0.0052
997.00,0.0043
994.00,0.0041
991.00,0.0042
988.00,0.0043
985.00,0.0048
982.00,0.0052
979.00,0.0054
976.00,0.0051
973.00,0.0048
970.00,0.0050
967.00,0.0056
964.00,0.0060
961.00,0.0055
958.00,0.0048
955.00,0.0042
952.00,0.0041
949.00,0.0043
946.00,0.0046
943.00,0.0047
940.00,0.0044
937.00,0.0040
934.00,0.0035
931.00,0.0033
928.00,0.0031
925.00,0.0032
922.00,0.0034
919.00,0.0040
916.00,0.0048
913.00,0.0064
910.00,0.0084
907.00,0.0097
904.00,0.0092
901.00,0.0072
898.00,0.0051
895.00,0.0038
892.00,0.0032
889.00,0.0028
886.00,0.0026
883.00,0.0024
880.00,0.0022
877.00,0.0022
874.00,0.0020
871.00,0.0020
868.00,0.0020
865.00,0.0020
862.00,0.0019
859.00,0.0020
856.00,0.0021
853.00,0.0023
850.00,0.0029
847.00,0.0038
844.00,0.0046
841.00,0.0048
838.00,0.0043
835.00,0.0032
832.00,0.0025
829.00,0.0022
826.00,0.0020
823.00,0.0019
820.00,0.0018
817.00,0.0019
814.00,0.0020
811.00,0.0021
808.00,0.0021
805.00,0.0022
802.00,0.0024
799.00,0.0027
796.00,0.0031
793.00,0.0037
790.00,0.0044
787.00,0.0054
784.00,0.0067
781.00,0.0082
778.00,0.0105
775.00,0.0138
772.00,0.0180
769.00,0.0232
766.00,0.0283
763.00,0.0333
760.00,0.0385
757.00,0.0423
754.00,0.0434
751.00,0.0430
748.00,0.0427
745.00,0.0394
742.00,0.0314
739.00,0.0231
736.00,0.0164
733.00,0.0108
730.00,0.0072
727.00,0.0057
724.00,0.0050
721.00,0.0050
718.00,0.0054
715.00,0.0066
712.00,0.0098
709.00,0.0181
706.00,0.0350
703.00,0.0622
700.00,0.0957
697.00,0.1274
694.00,0.1350
691.00,0.1016
688.00,0.0660
685.00,0.0462
682.00,0.0353
679.00,0.0282
676.00,0.0237
673.00,0.0209
670.00,0.0189
667.00,0.0166
664.00,0.0150
661.00,0.0130
658.00,0.0114
655.00,0.0099
652.00,0.0087
649.00,0.0078
646.00,0.0070
643.00,0.0068
640.00,0.0066
637.00,0.0068
634.00,0.0076
631.00,0.0081
628.00,0.0087
625.00,0.0091
622.00,0.0095
619.00,0.0094
616.00,0.0085
613.00,0.0080
610.00,0.0075
607.00,0.0075
604.00,0.0074
601.00,0.0076
598.00,0.0079
595.00,0.0083
592.00,0.0085
589.00,0.0091
586.00,0.0098
583.00,0.0104
580.00,0.0113
577.00,0.0126
574.00,0.0146
571.00,0.0168
568.00,0.0186
565.00,0.0206
562.00,0.0226
559.00,0.0245
556.00,0.0266
553.00,0.0289
550.00,0.0319
547.00,0.0355
544.00,0.0400
541.00,0.0452
538.00,0.0473
535.00,0.0448
532.00,0.0389
529.00,0.0321
526.00,0.0260
523.00,0.0212
520.00,0.0183
517.00,0.0165
514.00,0.0152
511.00,0.0134
508.00,0.0124
505.00,0.0111
502.00,0.0101
499.00,0.0096
496.00,0.0094
493.00,0.0084
490.00,0.0081
487.00,0.0084
484.00,0.0078
481.00,0.0074
478.00,0.0072
475.00,0.0062
472.00,0.0067
469.00,0.0069
466.00,0.0066
463.00,0.0065
460.00,0.0069
457.00,0.0063
454.00,0.0068
451.00,0.0064
448.00,0.0062
445.00,0.0059
442.00,0.0057
439.00,0.0048
436.00,0.0047
433.00,0.0050
430.00,0.0044
427.00,0.0047
424.00,0.0048
421.00,0.0054
418.00,0.0054
415.00,0.0057
412.00,0.0055
409.00,0.0058
406.00,0.0082
403.00,0.0067
400.00,0.0011