File: FTIR/Olivia/2025_08_06_1CBN_3PVP90_MP_Powder_Scan1.csv
Created as New Dataset,Sample 002 By YargerLab Date Wednesday, August 06 2025
cm-1,A
4000.00,0.0021
3997.00,0.0021
3994.00,0.0021
3991.00,0.0021
3988.00,0.0021
3985.00,0.0022
3982.00,0.0021
3979.00,0.0021
3976.00,0.0021
3973.00,0.0022
3970.00,0.0022
3967.00,0.0022
3964.00,0.0021
3961.00,0.0022
3958.00,0.0022
3955.00,0.0022
3952.00,0.0021
3949.00,0.0021
3946.00,0.0022
3943.00,0.0022
3940.00,0.0022
3937.00,0.0021
3934.00,0.0022
3931.00,0.0022
3928.00,0.0022
3925.00,0.0022
3922.00,0.0021
3919.00,0.0022
3916.00,0.0022
3913.00,0.0022
3910.00,0.0022
3907.00,0.0022
3904.00,0.0021
3901.00,0.0021
3898.00,0.0021
3895.00,0.0021
3892.00,0.0022
3889.00,0.0021
3886.00,0.0021
3883.00,0.0020
3880.00,0.0021
3877.00,0.0021
3874.00,0.0020
3871.00,0.0020
3868.00,0.0020
3865.00,0.0020
3862.00,0.0021
3859.00,0.0020
3856.00,0.0020
3853.00,0.0020
3850.00,0.0021
3847.00,0.0021
3844.00,0.0021
3841.00,0.0021
3838.00,0.0021
3835.00,0.0020
3832.00,0.0021
3829.00,0.0021
3826.00,0.0020
3823.00,0.0020
3820.00,0.0020
3817.00,0.0020
3814.00,0.0021
3811.00,0.0021
3808.00,0.0021
3805.00,0.0020
3802.00,0.0021
3799.00,0.0021
3796.00,0.0021
3793.00,0.0021
3790.00,0.0021
3787.00,0.0021
3784.00,0.0021
3781.00,0.0021
3778.00,0.0021
3775.00,0.0021
3772.00,0.0021
3769.00,0.0021
3766.00,0.0021
3763.00,0.0021
3760.00,0.0021
3757.00,0.0021
3754.00,0.0021
3751.00,0.0020
3748.00,0.0020
3745.00,0.0020
3742.00,0.0020
3739.00,0.0020
3736.00,0.0020
3733.00,0.0019
3730.00,0.0018
3727.00,0.0019
3724.00,0.0019
3721.00,0.0019
3718.00,0.0019
3715.00,0.0019
3712.00,0.0019
3709.00,0.0019
3706.00,0.0019
3703.00,0.0019
3700.00,0.0019
3697.00,0.0019
3694.00,0.0018
3691.00,0.0019
3688.00,0.0019
3685.00,0.0019
3682.00,0.0019
3679.00,0.0018
3676.00,0.0017
3673.00,0.0017
3670.00,0.0017
3667.00,0.0018
3664.00,0.0018
3661.00,0.0019
3658.00,0.0019
3655.00,0.0018
3652.00,0.0018
3649.00,0.0017
3646.00,0.0018
3643.00,0.0018
3640.00,0.0018
3637.00,0.0018
3634.00,0.0018
3631.00,0.0018
3628.00,0.0018
3625.00,0.0018
3622.00,0.0018
3619.00,0.0017
3616.00,0.0017
3613.00,0.0018
3610.00,0.0018
3607.00,0.0017
3604.00,0.0017
3601.00,0.0017
3598.00,0.0017
3595.00,0.0018
3592.00,0.0018
3589.00,0.0018
3586.00,0.0017
3583.00,0.0018
3580.00,0.0018
3577.00,0.0018
3574.00,0.0018
3571.00,0.0018
3568.00,0.0018
3565.00,0.0018
3562.00,0.0019
3559.00,0.0020
3556.00,0.0019
3553.00,0.0020
3550.00,0.0020
3547.00,0.0021
3544.00,0.0021
3541.00,0.0021
3538.00,0.0022
3535.00,0.0022
3532.00,0.0023
3529.00,0.0023
3526.00,0.0024
3523.00,0.0024
3520.00,0.0024
3517.00,0.0025
3514.00,0.0025
3511.00,0.0026
3508.00,0.0026
3505.00,0.0027
3502.00,0.0027
3499.00,0.0028
3496.00,0.0029
3493.00,0.0029
3490.00,0.0029
3487.00,0.0030
3484.00,0.0031
3481.00,0.0032
3478.00,0.0033
3475.00,0.0034
3472.00,0.0035
3469.00,0.0037
3466.00,0.0038
3463.00,0.0040
3460.00,0.0040
3457.00,0.0042
3454.00,0.0044
3451.00,0.0046
3448.00,0.0047
3445.00,0.0049
3442.00,0.0051
3439.00,0.0053
3436.00,0.0055
3433.00,0.0057
3430.00,0.0059
3427.00,0.0062
3424.00,0.0065
3421.00,0.0068
3418.00,0.0071
3415.00,0.0073
3412.00,0.0075
3409.00,0.0079
3406.00,0.0081
3403.00,0.0082
3400.00,0.0083
3397.00,0.0083
3394.00,0.0083
3391.00,0.0083
3388.00,0.0082
3385.00,0.0081
3382.00,0.0079
3379.00,0.0077
3376.00,0.0075
3373.00,0.0073
3370.00,0.0071
3367.00,0.0070
3364.00,0.0069
3361.00,0.0068
3358.00,0.0067
3355.00,0.0066
3352.00,0.0064
3349.00,0.0064
3346.00,0.0063
3343.00,0.0062
3340.00,0.0061
3337.00,0.0061
3334.00,0.0062
3331.00,0.0062
3328.00,0.0062
3325.00,0.0061
3322.00,0.0062
3319.00,0.0062
3316.00,0.0062
3313.00,0.0062
3310.00,0.0063
3307.00,0.0064
3304.00,0.0065
3301.00,0.0065
3298.00,0.0066
3295.00,0.0067
3292.00,0.0068
3289.00,0.0069
3286.00,0.0070
3283.00,0.0072
3280.00,0.0073
3277.00,0.0074
3274.00,0.0074
3271.00,0.0075
3268.00,0.0077
3265.00,0.0079
3262.00,0.0080
3259.00,0.0081
3256.00,0.0082
3253.00,0.0084
3250.00,0.0085
3247.00,0.0085
3244.00,0.0087
3241.00,0.0088
3238.00,0.0089
3235.00,0.0089
3232.00,0.0089
3229.00,0.0090
3226.00,0.0090
3223.00,0.0090
3220.00,0.0090
3217.00,0.0089
3214.00,0.0088
3211.00,0.0088
3208.00,0.0087
3205.00,0.0086
3202.00,0.0084
3199.00,0.0083
3196.00,0.0082
3193.00,0.0080
3190.00,0.0078
3187.00,0.0077
3184.00,0.0076
3181.00,0.0074
3178.00,0.0073
3175.00,0.0072
3172.00,0.0071
3169.00,0.0069
3166.00,0.0067
3163.00,0.0065
3160.00,0.0063
3157.00,0.0061
3154.00,0.0059
3151.00,0.0057
3148.00,0.0057
3145.00,0.0055
3142.00,0.0053
3139.00,0.0052
3136.00,0.0051
3133.00,0.0050
3130.00,0.0049
3127.00,0.0048
3124.00,0.0047
3121.00,0.0047
3118.00,0.0046
3115.00,0.0044
3112.00,0.0043
3109.00,0.0042
3106.00,0.0041
3103.00,0.0041
3100.00,0.0040
3097.00,0.0040
3094.00,0.0039
3091.00,0.0040
3088.00,0.0040
3085.00,0.0040
3082.00,0.0040
3079.00,0.0041
3076.00,0.0040
3073.00,0.0039
3070.00,0.0039
3067.00,0.0039
3064.00,0.0038
3061.00,0.0038
3058.00,0.0039
3055.00,0.0039
3052.00,0.0039
3049.00,0.0039
3046.00,0.0039
3043.00,0.0039
3040.00,0.0039
3037.00,0.0040
3034.00,0.0041
3031.00,0.0041
3028.00,0.0040
3025.00,0.0039
3022.00,0.0038
3019.00,0.0037
3016.00,0.0036
3013.00,0.0036
3010.00,0.0036
3007.00,0.0038
3004.00,0.0040
3001.00,0.0043
2998.00,0.0047
2995.00,0.0053
2992.00,0.0056
2989.00,0.0059
2986.00,0.0063
2983.00,0.0070
2980.00,0.0080
2977.00,0.0086
2974.00,0.0092
2971.00,0.0104
2968.00,0.0112
2965.00,0.0118
2962.00,0.0125
2959.00,0.0126
2956.00,0.0118
2953.00,0.0107
2950.00,0.0099
2947.00,0.0099
2944.00,0.0104
2941.00,0.0113
2938.00,0.0128
2935.00,0.0150
2932.00,0.0176
2929.00,0.0199
2926.00,0.0208
2923.00,0.0201
2920.00,0.0186
2917.00,0.0168
2914.00,0.0150
2911.00,0.0137
2908.00,0.0125
2905.00,0.0116
2902.00,0.0108
2899.00,0.0101
2896.00,0.0094
2893.00,0.0089
2890.00,0.0086
2887.00,0.0083
2884.00,0.0081
2881.00,0.0081
2878.00,0.0087
2875.00,0.0095
2872.00,0.0101
2869.00,0.0100
2866.00,0.0101
2863.00,0.0112
2860.00,0.0131
2857.00,0.0147
2854.00,0.0152
2851.00,0.0146
2848.00,0.0127
2845.00,0.0105
2842.00,0.0087
2839.00,0.0075
2836.00,0.0067
2833.00,0.0062
2830.00,0.0058
2827.00,0.0054
2824.00,0.0051
2821.00,0.0049
2818.00,0.0047
2815.00,0.0046
2812.00,0.0045
2809.00,0.0044
2806.00,0.0043
2803.00,0.0042
2800.00,0.0041
2797.00,0.0041
2794.00,0.0040
2791.00,0.0039
2788.00,0.0038
2785.00,0.0037
2782.00,0.0037
2779.00,0.0036
2776.00,0.0036
2773.00,0.0036
2770.00,0.0036
2767.00,0.0035
2764.00,0.0035
2761.00,0.0035
2758.00,0.0035
2755.00,0.0035
2752.00,0.0035
2749.00,0.0035
2746.00,0.0035
2743.00,0.0036
2740.00,0.0036
2737.00,0.0037
2734.00,0.0038
2731.00,0.0038
2728.00,0.0038
2725.00,0.0038
2722.00,0.0037
2719.00,0.0037
2716.00,0.0036
2713.00,0.0036
2710.00,0.0036
2707.00,0.0036
2704.00,0.0036
2701.00,0.0035
2698.00,0.0035
2695.00,0.0035
2692.00,0.0035
2689.00,0.0034
2686.00,0.0034
2683.00,0.0034
2680.00,0.0034
2677.00,0.0033
2674.00,0.0033
2671.00,0.0034
2668.00,0.0035
2665.00,0.0036
2662.00,0.0037
2659.00,0.0038
2656.00,0.0038
2653.00,0.0038
2650.00,0.0039
2647.00,0.0038
2644.00,0.0038
2641.00,0.0038
2638.00,0.0037
2635.00,0.0037
2632.00,0.0037
2629.00,0.0036
2626.00,0.0036
2623.00,0.0035
2620.00,0.0035
2617.00,0.0034
2614.00,0.0034
2611.00,0.0034
2608.00,0.0034
2605.00,0.0034
2602.00,0.0034
2599.00,0.0034
2596.00,0.0034
2593.00,0.0034
2590.00,0.0034
2587.00,0.0034
2584.00,0.0034
2581.00,0.0033
2578.00,0.0033
2575.00,0.0033
2572.00,0.0032
2569.00,0.0032
2566.00,0.0033
2563.00,0.0032
2560.00,0.0031
2557.00,0.0031
2554.00,0.0031
2551.00,0.0030
2548.00,0.0030
2545.00,0.0030
2542.00,0.0030
2539.00,0.0030
2536.00,0.0030
2533.00,0.0031
2530.00,0.0030
2527.00,0.0030
2524.00,0.0030
2521.00,0.0029
2518.00,0.0029
2515.00,0.0029
2512.00,0.0028
2509.00,0.0028
2506.00,0.0027
2503.00,0.0027
2500.00,0.0026
2497.00,0.0026
2494.00,0.0027
2491.00,0.0027
2488.00,0.0027
2485.00,0.0027
2482.00,0.0027
2479.00,0.0027
2476.00,0.0026
2473.00,0.0026
2470.00,0.0026
2467.00,0.0027
2464.00,0.0027
2461.00,0.0027
2458.00,0.0027
2455.00,0.0027
2452.00,0.0027
2449.00,0.0026
2446.00,0.0027
2443.00,0.0027
2440.00,0.0026
2437.00,0.0025
2434.00,0.0025
2431.00,0.0026
2428.00,0.0024
2425.00,0.0024
2422.00,0.0025
2419.00,0.0025
2416.00,0.0024
2413.00,0.0024
2410.00,0.0025
2407.00,0.0023
2404.00,0.0023
2401.00,0.0023
2398.00,0.0023
2395.00,0.0023
2392.00,0.0022
2389.00,0.0022
2386.00,0.0021
2383.00,0.0019
2380.00,0.0016
2377.00,0.0016
2374.00,0.0017
2371.00,0.0018
2368.00,0.0017
2365.00,0.0017
2362.00,0.0018
2359.00,0.0017
2356.00,0.0018
2353.00,0.0019
2350.00,0.0019
2347.00,0.0020
2344.00,0.0020
2341.00,0.0021
2338.00,0.0022
2335.00,0.0022
2332.00,0.0022
2329.00,0.0023
2326.00,0.0031
2323.00,0.0031
2320.00,0.0027
2317.00,0.0026
2314.00,0.0024
2311.00,0.0022
2308.00,0.0021
2305.00,0.0022
2302.00,0.0023
2299.00,0.0024
2296.00,0.0026
2293.00,0.0028
2290.00,0.0031
2287.00,0.0032
2284.00,0.0032
2281.00,0.0031
2278.00,0.0030
2275.00,0.0028
2272.00,0.0027
2269.00,0.0028
2266.00,0.0027
2263.00,0.0025
2260.00,0.0024
2257.00,0.0023
2254.00,0.0021
2251.00,0.0023
2248.00,0.0024
2245.00,0.0024
2242.00,0.0024
2239.00,0.0025
2236.00,0.0025
2233.00,0.0025
2230.00,0.0025
2227.00,0.0025
2224.00,0.0025
2221.00,0.0024
2218.00,0.0025
2215.00,0.0025
2212.00,0.0024
2209.00,0.0024
2206.00,0.0024
2203.00,0.0024
2200.00,0.0024
2197.00,0.0024
2194.00,0.0024
2191.00,0.0024
2188.00,0.0025
2185.00,0.0024
2182.00,0.0023
2179.00,0.0024
2176.00,0.0019
2173.00,0.0022
2170.00,0.0028
2167.00,0.0028
2164.00,0.0031
2161.00,0.0020
2158.00,-0.0006
2155.00,0.0002
2152.00,0.0007
2149.00,0.0009
2146.00,0.0006
2143.00,0.0008
2140.00,0.0008
2137.00,0.0004
2134.00,0.0003
2131.00,0.0007
2128.00,0.0011
2125.00,0.0014
2122.00,0.0016
2119.00,0.0018
2116.00,0.0019
2113.00,0.0020
2110.00,0.0020
2107.00,0.0020
2104.00,0.0018
2101.00,0.0017
2098.00,0.0016
2095.00,0.0014
2092.00,0.0016
2089.00,0.0019
2086.00,0.0020
2083.00,0.0020
2080.00,0.0022
2077.00,0.0022
2074.00,0.0021
2071.00,0.0020
2068.00,0.0019
2065.00,0.0018
2062.00,0.0018
2059.00,0.0018
2056.00,0.0018
2053.00,0.0023
2050.00,0.0027
2047.00,0.0018
2044.00,0.0017
2041.00,0.0021
2038.00,0.0023
2035.00,0.0018
2032.00,0.0014
2029.00,0.0015
2026.00,0.0016
2023.00,0.0016
2020.00,0.0017
2017.00,0.0015
2014.00,0.0014
2011.00,0.0013
2008.00,0.0008
2005.00,0.0008
2002.00,0.0011
1999.00,0.0015
1996.00,0.0019
1993.00,0.0018
1990.00,0.0021
1987.00,0.0022
1984.00,0.0025
1981.00,0.0030
1978.00,0.0021
1975.00,0.0015
1972.00,0.0014
1969.00,0.0010
1966.00,0.0010
1963.00,0.0009
1960.00,0.0007
1957.00,0.0010
1954.00,0.0012
1951.00,0.0012
1948.00,0.0011
1945.00,0.0012
1942.00,0.0013
1939.00,0.0013
1936.00,0.0015
1933.00,0.0015
1930.00,0.0015
1927.00,0.0015
1924.00,0.0016
1921.00,0.0017
1918.00,0.0017
1915.00,0.0017
1912.00,0.0019
1909.00,0.0022
1906.00,0.0022
1903.00,0.0020
1900.00,0.0019
1897.00,0.0019
1894.00,0.0020
1891.00,0.0019
1888.00,0.0019
1885.00,0.0018
1882.00,0.0018
1879.00,0.0018
1876.00,0.0018
1873.00,0.0018
1870.00,0.0017
1867.00,0.0018
1864.00,0.0018
1861.00,0.0018
1858.00,0.0019
1855.00,0.0019
1852.00,0.0019
1849.00,0.0020
1846.00,0.0020
1843.00,0.0020
1840.00,0.0019
1837.00,0.0019
1834.00,0.0019
1831.00,0.0018
1828.00,0.0018
1825.00,0.0019
1822.00,0.0020
1819.00,0.0018
1816.00,0.0018
1813.00,0.0019
1810.00,0.0019
1807.00,0.0020
1804.00,0.0020
1801.00,0.0020
1798.00,0.0021
1795.00,0.0021
1792.00,0.0021
1789.00,0.0022
1786.00,0.0021
1783.00,0.0021
1780.00,0.0021
1777.00,0.0022
1774.00,0.0022
1771.00,0.0023
1768.00,0.0023
1765.00,0.0022
1762.00,0.0023
1759.00,0.0023
1756.00,0.0023
1753.00,0.0022
1750.00,0.0021
1747.00,0.0021
1744.00,0.0022
1741.00,0.0022
1738.00,0.0022
1735.00,0.0022
1732.00,0.0023
1729.00,0.0024
1726.00,0.0026
1723.00,0.0026
1720.00,0.0026
1717.00,0.0027
1714.00,0.0029
1711.00,0.0030
1708.00,0.0032
1705.00,0.0034
1702.00,0.0037
1699.00,0.0043
1696.00,0.0050
1693.00,0.0058
1690.00,0.0065
1687.00,0.0073
1684.00,0.0074
1681.00,0.0074
1678.00,0.0078
1675.00,0.0077
1672.00,0.0076
1669.00,0.0070
1666.00,0.0071
1663.00,0.0071
1660.00,0.0069
1657.00,0.0073
1654.00,0.0073
1651.00,0.0059
1648.00,0.0065
1645.00,0.0056
1642.00,0.0060
1639.00,0.0063
1636.00,0.0065
1633.00,0.0077
1630.00,0.0112
1627.00,0.0174
1624.00,0.0230
1621.00,0.0258
1618.00,0.0248
1615.00,0.0206
1612.00,0.0205
1609.00,0.0205
1606.00,0.0175
1603.00,0.0139
1600.00,0.0112
1597.00,0.0100
1594.00,0.0104
1591.00,0.0130
1588.00,0.0174
1585.00,0.0209
1582.00,0.0216
1579.00,0.0202
1576.00,0.0175
1573.00,0.0149
1570.00,0.0137
1567.00,0.0124
1564.00,0.0105
1561.00,0.0088
1558.00,0.0070
1555.00,0.0064
1552.00,0.0060
1549.00,0.0056
1546.00,0.0054
1543.00,0.0052
1540.00,0.0051
1537.00,0.0050
1534.00,0.0047
1531.00,0.0047
1528.00,0.0047
1525.00,0.0048
1522.00,0.0050
1519.00,0.0055
1516.00,0.0062
1513.00,0.0068
1510.00,0.0072
1507.00,0.0073
1504.00,0.0077
1501.00,0.0088
1498.00,0.0124
1495.00,0.0146
1492.00,0.0126
1489.00,0.0094
1486.00,0.0077
1483.00,0.0068
1480.00,0.0063
1477.00,0.0062
1474.00,0.0066
1471.00,0.0087
1468.00,0.0123
1465.00,0.0148
1462.00,0.0146
1459.00,0.0151
1456.00,0.0143
1453.00,0.0134
1450.00,0.0134
1447.00,0.0139
1444.00,0.0154
1441.00,0.0174
1438.00,0.0190
1435.00,0.0208
1432.00,0.0230
1429.00,0.0241
1426.00,0.0238
1423.00,0.0226
1420.00,0.0216
1417.00,0.0194
1414.00,0.0181
1411.00,0.0178
1408.00,0.0193
1405.00,0.0228
1402.00,0.0264
1399.00,0.0273
1396.00,0.0245
1393.00,0.0200
1390.00,0.0177
1387.00,0.0183
1384.00,0.0174
1381.00,0.0166
1378.00,0.0167
1375.00,0.0154
1372.00,0.0131
1369.00,0.0140
1366.00,0.0174
1363.00,0.0194
1360.00,0.0224
1357.00,0.0206
1354.00,0.0175
1351.00,0.0167
1348.00,0.0168
1345.00,0.0165
1342.00,0.0150
1339.00,0.0131
1336.00,0.0121
1333.00,0.0126
1330.00,0.0133
1327.00,0.0131
1324.00,0.0124
1321.00,0.0120
1318.00,0.0115
1315.00,0.0108
1312.00,0.0106
1309.00,0.0116
1306.00,0.0141
1303.00,0.0181
1300.00,0.0202
1297.00,0.0191
1294.00,0.0186
1291.00,0.0184
1288.00,0.0195
1285.00,0.0224
1282.00,0.0234
1279.00,0.0204
1276.00,0.0168
1273.00,0.0149
1270.00,0.0139
1267.00,0.0133
1264.00,0.0127
1261.00,0.0117
1258.00,0.0108
1255.00,0.0103
1252.00,0.0105
1249.00,0.0117
1246.00,0.0140
1243.00,0.0162
1240.00,0.0177
1237.00,0.0202
1234.00,0.0227
1231.00,0.0221
1228.00,0.0192
1225.00,0.0167
1222.00,0.0154
1219.00,0.0155
1216.00,0.0169
1213.00,0.0172
1210.00,0.0151
1207.00,0.0130
1204.00,0.0131
1201.00,0.0157
1198.00,0.0199
1195.00,0.0240
1192.00,0.0238
1189.00,0.0199
1186.00,0.0153
1183.00,0.0122
1180.00,0.0105
1177.00,0.0096
1174.00,0.0091
1171.00,0.0089
1168.00,0.0089
1165.00,0.0092
1162.00,0.0107
1159.00,0.0147
1156.00,0.0216
1153.00,0.0229
1150.00,0.0161
1147.00,0.0110
1144.00,0.0094
1141.00,0.0090
1138.00,0.0097
1135.00,0.0126
1132.00,0.0196
1129.00,0.0272
1126.00,0.0274
1123.00,0.0222
1120.00,0.0164
1117.00,0.0136
1114.00,0.0129
1111.00,0.0120
1108.00,0.0111
1105.00,0.0120
1102.00,0.0161
1099.00,0.0193
1096.00,0.0161
1093.00,0.0114
1090.00,0.0091
1087.00,0.0080
1084.00,0.0077
1081.00,0.0076
1078.00,0.0076
1075.00,0.0080
1072.00,0.0085
1069.00,0.0095
1066.00,0.0107
1063.00,0.0129
1060.00,0.0180
1057.00,0.0270
1054.00,0.0351
1051.00,0.0381
1048.00,0.0377
1045.00,0.0326
1042.00,0.0254
1039.00,0.0204
1036.00,0.0195
1033.00,0.0208
1030.00,0.0262
1027.00,0.0340
1024.00,0.0320
1021.00,0.0237
1018.00,0.0176
1015.00,0.0142
1012.00,0.0126
1009.00,0.0133
1006.00,0.0160
1003.00,0.0180
1000.00,0.0172
997.00,0.0156
994.00,0.0144
991.00,0.0129
988.00,0.0109
985.00,0.0096
982.00,0.0089
979.00,0.0086
976.00,0.0087
973.00,0.0087
970.00,0.0084
967.00,0.0084
964.00,0.0089
961.00,0.0090
958.00,0.0078
955.00,0.0068
952.00,0.0062
949.00,0.0066
946.00,0.0068
943.00,0.0069
940.00,0.0078
937.00,0.0086
934.00,0.0094
931.00,0.0097
928.00,0.0093
925.00,0.0097
922.00,0.0109
919.00,0.0099
916.00,0.0079
913.00,0.0068
910.00,0.0064
907.00,0.0066
904.00,0.0078
901.00,0.0104
898.00,0.0115
895.00,0.0097
892.00,0.0104
889.00,0.0116
886.00,0.0086
883.00,0.0076
880.00,0.0084
877.00,0.0113
874.00,0.0170
871.00,0.0236
868.00,0.0242
865.00,0.0198
862.00,0.0155
859.00,0.0127
856.00,0.0139
853.00,0.0174
850.00,0.0211
847.00,0.0211
844.00,0.0172
841.00,0.0153
838.00,0.0170
835.00,0.0214
832.00,0.0226
829.00,0.0186
826.00,0.0138
823.00,0.0162
820.00,0.0261
817.00,0.0306
814.00,0.0292
811.00,0.0169
808.00,0.0112
805.00,0.0090
802.00,0.0079
799.00,0.0074
796.00,0.0071
793.00,0.0071
790.00,0.0069
787.00,0.0067
784.00,0.0066
781.00,0.0068
778.00,0.0074
775.00,0.0095
772.00,0.0092
769.00,0.0076
766.00,0.0074
763.00,0.0079
760.00,0.0089
757.00,0.0088
754.00,0.0081
751.00,0.0079
748.00,0.0081
745.00,0.0085
742.00,0.0093
739.00,0.0117
736.00,0.0169
733.00,0.0182
730.00,0.0177
727.00,0.0171
724.00,0.0133
721.00,0.0113
718.00,0.0120
715.00,0.0141
712.00,0.0136
709.00,0.0121
706.00,0.0116
703.00,0.0122
700.00,0.0135
697.00,0.0139
694.00,0.0129
691.00,0.0134
688.00,0.0154
685.00,0.0145
682.00,0.0133
679.00,0.0137
676.00,0.0152
673.00,0.0175
670.00,0.0188
667.00,0.0180
664.00,0.0176
661.00,0.0182
658.00,0.0169
655.00,0.0154
652.00,0.0145
649.00,0.0144
646.00,0.0144
643.00,0.0141
640.00,0.0136
637.00,0.0134
634.00,0.0134
631.00,0.0134
628.00,0.0137
625.00,0.0148
622.00,0.0163
619.00,0.0170
616.00,0.0154
613.00,0.0137
610.00,0.0134
607.00,0.0164
604.00,0.0203
601.00,0.0224
598.00,0.0221
595.00,0.0216
592.00,0.0212
589.00,0.0201
586.00,0.0194
583.00,0.0193
580.00,0.0204
577.00,0.0238
574.00,0.0233
571.00,0.0198
568.00,0.0180
565.00,0.0190
562.00,0.0215
559.00,0.0230
556.00,0.0211
553.00,0.0200
550.00,0.0212
547.00,0.0235
544.00,0.0237
541.00,0.0216
538.00,0.0201
535.00,0.0201
532.00,0.0223
529.00,0.0226
526.00,0.0196
523.00,0.0169
520.00,0.0154
517.00,0.0148
514.00,0.0145
511.00,0.0146
508.00,0.0152
505.00,0.0155
502.00,0.0150
499.00,0.0138
496.00,0.0139
493.00,0.0154
490.00,0.0155
487.00,0.0141
484.00,0.0139
481.00,0.0139
478.00,0.0129
475.00,0.0125
472.00,0.0127
469.00,0.0128
466.00,0.0124
463.00,0.0125
460.00,0.0127
457.00,0.0120
454.00,0.0117
451.00,0.0125
448.00,0.0115
445.00,0.0130
442.00,0.0127
439.00,0.0129
436.00,0.0123
433.00,0.0128
430.00,0.0130
427.00,0.0119
424.00,0.0123
421.00,0.0116
418.00,0.0124
415.00,0.0118
412.00,0.0134
409.00,0.0157
406.00,0.0147
403.00,0.0141
400.00,0.0119