File: FTIR/Olivia/2025_08_06_Polystyrene_film_scan1.csv
Created as New Dataset,Sample 1081 By YargerLab Date Tuesday, August 05 2025
cm-1,A
4000.00,0.0002
3997.00,0.0001
3994.00,0.0001
3991.00,0.0002
3988.00,0.0002
3985.00,0.0001
3982.00,0.0002
3979.00,0.0001
3976.00,0.0001
3973.00,0.0001
3970.00,0.0001
3967.00,0.0001
3964.00,0.0001
3961.00,0.0002
3958.00,0.0002
3955.00,0.0001
3952.00,0.0002
3949.00,0.0002
3946.00,0.0002
3943.00,0.0002
3940.00,0.0002
3937.00,0.0001
3934.00,0.0002
3931.00,0.0002
3928.00,0.0002
3925.00,0.0002
3922.00,0.0002
3919.00,0.0002
3916.00,0.0002
3913.00,0.0002
3910.00,0.0002
3907.00,0.0003
3904.00,0.0003
3901.00,0.0004
3898.00,0.0003
3895.00,0.0003
3892.00,0.0002
3889.00,0.0003
3886.00,0.0003
3883.00,0.0003
3880.00,0.0003
3877.00,0.0003
3874.00,0.0003
3871.00,0.0004
3868.00,0.0005
3865.00,0.0004
3862.00,0.0004
3859.00,0.0003
3856.00,0.0005
3853.00,0.0006
3850.00,0.0006
3847.00,0.0003
3844.00,0.0003
3841.00,0.0004
3838.00,0.0005
3835.00,0.0006
3832.00,0.0005
3829.00,0.0003
3826.00,0.0003
3823.00,0.0005
3820.00,0.0005
3817.00,0.0006
3814.00,0.0005
3811.00,0.0004
3808.00,0.0003
3805.00,0.0005
3802.00,0.0006
3799.00,0.0006
3796.00,0.0004
3793.00,0.0003
3790.00,0.0002
3787.00,0.0003
3784.00,0.0003
3781.00,0.0002
3778.00,0.0002
3775.00,0.0002
3772.00,0.0003
3769.00,0.0003
3766.00,0.0004
3763.00,0.0004
3760.00,0.0004
3757.00,0.0004
3754.00,0.0006
3751.00,0.0007
3748.00,0.0008
3745.00,0.0007
3742.00,0.0006
3739.00,0.0005
3736.00,0.0006
3733.00,0.0005
3730.00,0.0004
3727.00,0.0003
3724.00,0.0003
3721.00,0.0002
3718.00,0.0002
3715.00,0.0003
3712.00,0.0004
3709.00,0.0004
3706.00,0.0002
3703.00,0.0002
3700.00,0.0002
3697.00,0.0002
3694.00,0.0002
3691.00,0.0004
3688.00,0.0005
3685.00,0.0004
3682.00,0.0003
3679.00,0.0004
3676.00,0.0005
3673.00,0.0006
3670.00,0.0005
3667.00,0.0005
3664.00,0.0003
3661.00,0.0003
3658.00,0.0004
3655.00,0.0004
3652.00,0.0007
3649.00,0.0007
3646.00,0.0006
3643.00,0.0004
3640.00,0.0003
3637.00,0.0003
3634.00,0.0003
3631.00,0.0004
3628.00,0.0004
3625.00,0.0004
3622.00,0.0004
3619.00,0.0004
3616.00,0.0004
3613.00,0.0004
3610.00,0.0005
3607.00,0.0005
3604.00,0.0004
3601.00,0.0004
3598.00,0.0004
3595.00,0.0004
3592.00,0.0005
3589.00,0.0005
3586.00,0.0005
3583.00,0.0005
3580.00,0.0005
3577.00,0.0006
3574.00,0.0005
3571.00,0.0006
3568.00,0.0006
3565.00,0.0006
3562.00,0.0006
3559.00,0.0006
3556.00,0.0006
3553.00,0.0006
3550.00,0.0006
3547.00,0.0006
3544.00,0.0007
3541.00,0.0007
3538.00,0.0007
3535.00,0.0007
3532.00,0.0008
3529.00,0.0009
3526.00,0.0009
3523.00,0.0009
3520.00,0.0009
3517.00,0.0009
3514.00,0.0009
3511.00,0.0009
3508.00,0.0009
3505.00,0.0010
3502.00,0.0010
3499.00,0.0010
3496.00,0.0010
3493.00,0.0010
3490.00,0.0011
3487.00,0.0011
3484.00,0.0011
3481.00,0.0011
3478.00,0.0012
3475.00,0.0012
3472.00,0.0012
3469.00,0.0012
3466.00,0.0012
3463.00,0.0012
3460.00,0.0013
3457.00,0.0013
3454.00,0.0013
3451.00,0.0013
3448.00,0.0013
3445.00,0.0014
3442.00,0.0013
3439.00,0.0013
3436.00,0.0013
3433.00,0.0014
3430.00,0.0014
3427.00,0.0014
3424.00,0.0014
3421.00,0.0014
3418.00,0.0014
3415.00,0.0014
3412.00,0.0014
3409.00,0.0014
3406.00,0.0014
3403.00,0.0015
3400.00,0.0014
3397.00,0.0014
3394.00,0.0014
3391.00,0.0014
3388.00,0.0014
3385.00,0.0014
3382.00,0.0014
3379.00,0.0014
3376.00,0.0014
3373.00,0.0014
3370.00,0.0014
3367.00,0.0014
3364.00,0.0014
3361.00,0.0014
3358.00,0.0014
3355.00,0.0014
3352.00,0.0014
3349.00,0.0013
3346.00,0.0014
3343.00,0.0014
3340.00,0.0013
3337.00,0.0013
3334.00,0.0013
3331.00,0.0013
3328.00,0.0013
3325.00,0.0013
3322.00,0.0013
3319.00,0.0012
3316.00,0.0013
3313.00,0.0013
3310.00,0.0013
3307.00,0.0013
3304.00,0.0013
3301.00,0.0012
3298.00,0.0012
3295.00,0.0012
3292.00,0.0013
3289.00,0.0012
3286.00,0.0012
3283.00,0.0012
3280.00,0.0012
3277.00,0.0012
3274.00,0.0012
3271.00,0.0012
3268.00,0.0012
3265.00,0.0012
3262.00,0.0012
3259.00,0.0012
3256.00,0.0012
3253.00,0.0011
3250.00,0.0011
3247.00,0.0011
3244.00,0.0011
3241.00,0.0011
3238.00,0.0011
3235.00,0.0010
3232.00,0.0010
3229.00,0.0010
3226.00,0.0010
3223.00,0.0010
3220.00,0.0010
3217.00,0.0010
3214.00,0.0009
3211.00,0.0010
3208.00,0.0010
3205.00,0.0009
3202.00,0.0009
3199.00,0.0009
3196.00,0.0009
3193.00,0.0009
3190.00,0.0008
3187.00,0.0008
3184.00,0.0008
3181.00,0.0008
3178.00,0.0008
3175.00,0.0008
3172.00,0.0008
3169.00,0.0008
3166.00,0.0008
3163.00,0.0008
3160.00,0.0008
3157.00,0.0008
3154.00,0.0008
3151.00,0.0007
3148.00,0.0007
3145.00,0.0007
3142.00,0.0007
3139.00,0.0007
3136.00,0.0007
3133.00,0.0007
3130.00,0.0006
3127.00,0.0006
3124.00,0.0007
3121.00,0.0007
3118.00,0.0008
3115.00,0.0009
3112.00,0.0010
3109.00,0.0013
3106.00,0.0016
3103.00,0.0017
3100.00,0.0016
3097.00,0.0015
3094.00,0.0016
3091.00,0.0019
3088.00,0.0027
3085.00,0.0036
3082.00,0.0042
3079.00,0.0038
3076.00,0.0032
3073.00,0.0029
3070.00,0.0031
3067.00,0.0037
3064.00,0.0047
3061.00,0.0055
3058.00,0.0055
3055.00,0.0047
3052.00,0.0039
3049.00,0.0032
3046.00,0.0029
3043.00,0.0029
3040.00,0.0033
3037.00,0.0040
3034.00,0.0054
3031.00,0.0075
3028.00,0.0099
3025.00,0.0110
3022.00,0.0098
3019.00,0.0070
3016.00,0.0046
3013.00,0.0033
3010.00,0.0028
3007.00,0.0029
3004.00,0.0032
3001.00,0.0035
2998.00,0.0033
2995.00,0.0028
2992.00,0.0025
2989.00,0.0024
2986.00,0.0026
2983.00,0.0029
2980.00,0.0032
2977.00,0.0033
2974.00,0.0035
2971.00,0.0037
2968.00,0.0038
2965.00,0.0038
2962.00,0.0038
2959.00,0.0039
2956.00,0.0041
2953.00,0.0043
2950.00,0.0047
2947.00,0.0053
2944.00,0.0061
2941.00,0.0071
2938.00,0.0083
2935.00,0.0096
2932.00,0.0111
2929.00,0.0124
2926.00,0.0134
2923.00,0.0140
2920.00,0.0142
2917.00,0.0138
2914.00,0.0129
2911.00,0.0119
2908.00,0.0108
2905.00,0.0098
2902.00,0.0088
2899.00,0.0077
2896.00,0.0068
2893.00,0.0062
2890.00,0.0057
2887.00,0.0053
2884.00,0.0050
2881.00,0.0046
2878.00,0.0043
2875.00,0.0039
2872.00,0.0038
2869.00,0.0037
2866.00,0.0038
2863.00,0.0040
2860.00,0.0044
2857.00,0.0050
2854.00,0.0056
2851.00,0.0062
2848.00,0.0062
2845.00,0.0055
2842.00,0.0045
2839.00,0.0034
2836.00,0.0025
2833.00,0.0018
2830.00,0.0015
2827.00,0.0013
2824.00,0.0012
2821.00,0.0011
2818.00,0.0010
2815.00,0.0010
2812.00,0.0009
2809.00,0.0009
2806.00,0.0009
2803.00,0.0009
2800.00,0.0009
2797.00,0.0008
2794.00,0.0008
2791.00,0.0007
2788.00,0.0007
2785.00,0.0007
2782.00,0.0007
2779.00,0.0007
2776.00,0.0007
2773.00,0.0006
2770.00,0.0006
2767.00,0.0006
2764.00,0.0006
2761.00,0.0006
2758.00,0.0006
2755.00,0.0005
2752.00,0.0005
2749.00,0.0005
2746.00,0.0006
2743.00,0.0006
2740.00,0.0005
2737.00,0.0005
2734.00,0.0006
2731.00,0.0006
2728.00,0.0006
2725.00,0.0006
2722.00,0.0005
2719.00,0.0006
2716.00,0.0006
2713.00,0.0006
2710.00,0.0006
2707.00,0.0005
2704.00,0.0005
2701.00,0.0005
2698.00,0.0005
2695.00,0.0006
2692.00,0.0005
2689.00,0.0005
2686.00,0.0006
2683.00,0.0006
2680.00,0.0005
2677.00,0.0005
2674.00,0.0005
2671.00,0.0005
2668.00,0.0006
2665.00,0.0007
2662.00,0.0009
2659.00,0.0010
2656.00,0.0010
2653.00,0.0010
2650.00,0.0011
2647.00,0.0011
2644.00,0.0011
2641.00,0.0011
2638.00,0.0011
2635.00,0.0011
2632.00,0.0011
2629.00,0.0010
2626.00,0.0010
2623.00,0.0010
2620.00,0.0009
2617.00,0.0009
2614.00,0.0009
2611.00,0.0009
2608.00,0.0009
2605.00,0.0009
2602.00,0.0008
2599.00,0.0008
2596.00,0.0007
2593.00,0.0007
2590.00,0.0007
2587.00,0.0007
2584.00,0.0007
2581.00,0.0006
2578.00,0.0006
2575.00,0.0006
2572.00,0.0006
2569.00,0.0006
2566.00,0.0006
2563.00,0.0005
2560.00,0.0005
2557.00,0.0005
2554.00,0.0004
2551.00,0.0004
2548.00,0.0003
2545.00,0.0003
2542.00,0.0004
2539.00,0.0004
2536.00,0.0004
2533.00,0.0003
2530.00,0.0004
2527.00,0.0003
2524.00,0.0003
2521.00,0.0003
2518.00,0.0004
2515.00,0.0004
2512.00,0.0003
2509.00,0.0003
2506.00,0.0003
2503.00,0.0002
2500.00,0.0003
2497.00,0.0002
2494.00,0.0002
2491.00,0.0002
2488.00,0.0003
2485.00,0.0002
2482.00,0.0003
2479.00,0.0002
2476.00,0.0002
2473.00,0.0002
2470.00,0.0002
2467.00,0.0002
2464.00,0.0002
2461.00,0.0002
2458.00,0.0003
2455.00,0.0003
2452.00,0.0003
2449.00,0.0002
2446.00,0.0002
2443.00,0.0001
2440.00,0.0001
2437.00,0.0001
2434.00,0.0001
2431.00,0.0000
2428.00,0.0000
2425.00,0.0000
2422.00,-0.0000
2419.00,0.0000
2416.00,0.0000
2413.00,0.0000
2410.00,0.0000
2407.00,-0.0001
2404.00,-0.0002
2401.00,-0.0002
2398.00,-0.0002
2395.00,-0.0001
2392.00,-0.0002
2389.00,-0.0002
2386.00,-0.0002
2383.00,-0.0003
2380.00,-0.0004
2377.00,-0.0004
2374.00,-0.0004
2371.00,-0.0004
2368.00,-0.0005
2365.00,-0.0004
2362.00,-0.0003
2359.00,-0.0003
2356.00,-0.0003
2353.00,-0.0002
2350.00,-0.0002
2347.00,-0.0001
2344.00,0.0000
2341.00,0.0001
2338.00,0.0002
2335.00,0.0002
2332.00,0.0002
2329.00,0.0004
2326.00,0.0013
2323.00,0.0013
2320.00,0.0009
2317.00,0.0007
2314.00,0.0007
2311.00,0.0006
2308.00,0.0005
2305.00,0.0006
2302.00,0.0007
2299.00,0.0007
2296.00,0.0007
2293.00,0.0009
2290.00,0.0012
2287.00,0.0013
2284.00,0.0011
2281.00,0.0009
2278.00,0.0008
2275.00,0.0008
2272.00,0.0008
2269.00,0.0006
2266.00,0.0004
2263.00,0.0004
2260.00,0.0005
2257.00,0.0005
2254.00,0.0003
2251.00,0.0004
2248.00,0.0003
2245.00,0.0004
2242.00,0.0003
2239.00,0.0003
2236.00,0.0005
2233.00,0.0004
2230.00,0.0005
2227.00,0.0005
2224.00,0.0004
2221.00,0.0002
2218.00,0.0002
2215.00,0.0002
2212.00,0.0003
2209.00,0.0003
2206.00,0.0002
2203.00,0.0002
2200.00,0.0002
2197.00,0.0004
2194.00,0.0005
2191.00,0.0005
2188.00,0.0008
2185.00,0.0007
2182.00,0.0000
2179.00,-0.0002
2176.00,-0.0004
2173.00,-0.0005
2170.00,0.0006
2167.00,0.0011
2164.00,0.0017
2161.00,0.0001
2158.00,-0.0032
2155.00,-0.0026
2152.00,-0.0019
2149.00,-0.0019
2146.00,-0.0018
2143.00,-0.0017
2140.00,-0.0016
2137.00,-0.0019
2134.00,-0.0024
2131.00,-0.0018
2128.00,-0.0011
2125.00,-0.0010
2122.00,-0.0007
2119.00,-0.0004
2116.00,-0.0001
2113.00,0.0001
2110.00,-0.0001
2107.00,-0.0002
2104.00,-0.0001
2101.00,-0.0000
2098.00,-0.0003
2095.00,-0.0008
2092.00,-0.0006
2089.00,-0.0001
2086.00,0.0000
2083.00,0.0002
2080.00,0.0001
2077.00,0.0001
2074.00,0.0001
2071.00,-0.0001
2068.00,-0.0003
2065.00,-0.0002
2062.00,-0.0002
2059.00,-0.0001
2056.00,-0.0001
2053.00,0.0005
2050.00,0.0008
2047.00,0.0002
2044.00,0.0003
2041.00,0.0003
2038.00,0.0003
2035.00,-0.0001
2032.00,-0.0005
2029.00,-0.0008
2026.00,-0.0006
2023.00,-0.0008
2020.00,-0.0008
2017.00,-0.0008
2014.00,-0.0005
2011.00,-0.0006
2008.00,-0.0010
2005.00,-0.0016
2002.00,-0.0008
1999.00,-0.0004
1996.00,-0.0007
1993.00,-0.0006
1990.00,-0.0003
1987.00,0.0001
1984.00,0.0006
1981.00,0.0009
1978.00,-0.0005
1975.00,-0.0008
1972.00,-0.0007
1969.00,-0.0005
1966.00,-0.0003
1963.00,-0.0004
1960.00,-0.0006
1957.00,-0.0005
1954.00,-0.0001
1951.00,0.0000
1948.00,0.0003
1945.00,0.0006
1942.00,0.0006
1939.00,0.0006
1936.00,0.0001
1933.00,-0.0001
1930.00,-0.0002
1927.00,-0.0004
1924.00,-0.0006
1921.00,-0.0005
1918.00,-0.0005
1915.00,-0.0004
1912.00,-0.0004
1909.00,-0.0005
1906.00,-0.0004
1903.00,-0.0003
1900.00,-0.0002
1897.00,-0.0001
1894.00,0.0000
1891.00,0.0002
1888.00,0.0003
1885.00,0.0005
1882.00,0.0006
1879.00,0.0007
1876.00,0.0007
1873.00,0.0009
1870.00,0.0009
1867.00,0.0008
1864.00,0.0006
1861.00,0.0005
1858.00,0.0003
1855.00,0.0000
1852.00,-0.0000
1849.00,-0.0001
1846.00,-0.0002
1843.00,-0.0002
1840.00,-0.0002
1837.00,-0.0002
1834.00,-0.0001
1831.00,-0.0001
1828.00,0.0001
1825.00,0.0002
1822.00,0.0003
1819.00,0.0003
1816.00,0.0004
1813.00,0.0007
1810.00,0.0010
1807.00,0.0012
1804.00,0.0013
1801.00,0.0013
1798.00,0.0013
1795.00,0.0011
1792.00,0.0008
1789.00,0.0006
1786.00,0.0005
1783.00,0.0005
1780.00,0.0006
1777.00,0.0006
1774.00,0.0007
1771.00,0.0007
1768.00,0.0007
1765.00,0.0008
1762.00,0.0009
1759.00,0.0011
1756.00,0.0013
1753.00,0.0015
1750.00,0.0017
1747.00,0.0018
1744.00,0.0018
1741.00,0.0018
1738.00,0.0018
1735.00,0.0018
1732.00,0.0017
1729.00,0.0016
1726.00,0.0015
1723.00,0.0014
1720.00,0.0014
1717.00,0.0014
1714.00,0.0013
1711.00,0.0013
1708.00,0.0013
1705.00,0.0013
1702.00,0.0014
1699.00,0.0014
1696.00,0.0014
1693.00,0.0017
1690.00,0.0019
1687.00,0.0024
1684.00,0.0028
1681.00,0.0029
1678.00,0.0034
1675.00,0.0038
1672.00,0.0043
1669.00,0.0046
1666.00,0.0048
1663.00,0.0049
1660.00,0.0046
1657.00,0.0045
1654.00,0.0042
1651.00,0.0034
1648.00,0.0031
1645.00,0.0026
1642.00,0.0024
1639.00,0.0022
1636.00,0.0019
1633.00,0.0018
1630.00,0.0017
1627.00,0.0017
1624.00,0.0017
1621.00,0.0019
1618.00,0.0019
1615.00,0.0021
1612.00,0.0026
1609.00,0.0039
1606.00,0.0070
1603.00,0.0110
1600.00,0.0120
1597.00,0.0087
1594.00,0.0055
1591.00,0.0040
1588.00,0.0037
1585.00,0.0048
1582.00,0.0051
1579.00,0.0035
1576.00,0.0022
1573.00,0.0017
1570.00,0.0015
1567.00,0.0013
1564.00,0.0012
1561.00,0.0012
1558.00,0.0013
1555.00,0.0012
1552.00,0.0015
1549.00,0.0017
1546.00,0.0019
1543.00,0.0021
1540.00,0.0021
1537.00,0.0019
1534.00,0.0017
1531.00,0.0014
1528.00,0.0013
1525.00,0.0013
1522.00,0.0012
1519.00,0.0013
1516.00,0.0013
1513.00,0.0015
1510.00,0.0017
1507.00,0.0020
1504.00,0.0029
1501.00,0.0044
1498.00,0.0094
1495.00,0.0234
1492.00,0.0317
1489.00,0.0196
1486.00,0.0100
1483.00,0.0063
1480.00,0.0044
1477.00,0.0038
1474.00,0.0037
1471.00,0.0038
1468.00,0.0043
1465.00,0.0049
1462.00,0.0057
1459.00,0.0077
1456.00,0.0179
1453.00,0.0302
1450.00,0.0307
1447.00,0.0234
1444.00,0.0186
1441.00,0.0147
1438.00,0.0118
1435.00,0.0082
1432.00,0.0063
1429.00,0.0049
1426.00,0.0043
1423.00,0.0038
1420.00,0.0035
1417.00,0.0032
1414.00,0.0031
1411.00,0.0030
1408.00,0.0031
1405.00,0.0030
1402.00,0.0031
1399.00,0.0032
1396.00,0.0033
1393.00,0.0037
1390.00,0.0043
1387.00,0.0051
1384.00,0.0059
1381.00,0.0067
1378.00,0.0073
1375.00,0.0078
1372.00,0.0078
1369.00,0.0077
1366.00,0.0075
1363.00,0.0072
1360.00,0.0068
1357.00,0.0065
1354.00,0.0063
1351.00,0.0061
1348.00,0.0061
1345.00,0.0059
1342.00,0.0056
1339.00,0.0054
1336.00,0.0054
1333.00,0.0058
1330.00,0.0063
1327.00,0.0064
1324.00,0.0062
1321.00,0.0060
1318.00,0.0060
1315.00,0.0062
1312.00,0.0063
1309.00,0.0062
1306.00,0.0060
1303.00,0.0058
1300.00,0.0057
1297.00,0.0059
1294.00,0.0061
1291.00,0.0060
1288.00,0.0055
1285.00,0.0052
1282.00,0.0050
1279.00,0.0049
1276.00,0.0047
1273.00,0.0044
1270.00,0.0041
1267.00,0.0039
1264.00,0.0038
1261.00,0.0037
1258.00,0.0036
1255.00,0.0037
1252.00,0.0037
1249.00,0.0037
1246.00,0.0037
1243.00,0.0037
1240.00,0.0037
1237.00,0.0036
1234.00,0.0036
1231.00,0.0036
1228.00,0.0036
1225.00,0.0036
1222.00,0.0036
1219.00,0.0036
1216.00,0.0036
1213.00,0.0038
1210.00,0.0040
1207.00,0.0042
1204.00,0.0046
1201.00,0.0051
1198.00,0.0054
1195.00,0.0055
1192.00,0.0057
1189.00,0.0058
1186.00,0.0064
1183.00,0.0074
1180.00,0.0076
1177.00,0.0064
1174.00,0.0053
1171.00,0.0049
1168.00,0.0050
1165.00,0.0052
1162.00,0.0057
1159.00,0.0068
1156.00,0.0082
1153.00,0.0082
1150.00,0.0065
1147.00,0.0050
1144.00,0.0043
1141.00,0.0039
1138.00,0.0038
1135.00,0.0039
1132.00,0.0041
1129.00,0.0041
1126.00,0.0040
1123.00,0.0039
1120.00,0.0041
1117.00,0.0045
1114.00,0.0048
1111.00,0.0048
1108.00,0.0048
1105.00,0.0048
1102.00,0.0049
1099.00,0.0050
1096.00,0.0052
1093.00,0.0055
1090.00,0.0057
1087.00,0.0061
1084.00,0.0067
1081.00,0.0075
1078.00,0.0082
1075.00,0.0093
1072.00,0.0106
1069.00,0.0113
1066.00,0.0108
1063.00,0.0096
1060.00,0.0085
1057.00,0.0076
1054.00,0.0068
1051.00,0.0062
1048.00,0.0059
1045.00,0.0057
1042.00,0.0055
1039.00,0.0060
1036.00,0.0080
1033.00,0.0125
1030.00,0.0173
1027.00,0.0182
1024.00,0.0150
1021.00,0.0118
1018.00,0.0099
1015.00,0.0086
1012.00,0.0078
1009.00,0.0074
1006.00,0.0077
1003.00,0.0081
1000.00,0.0071
997.00,0.0060
994.00,0.0057
991.00,0.0057
988.00,0.0060
985.00,0.0066
982.00,0.0071
979.00,0.0074
976.00,0.0071
973.00,0.0069
970.00,0.0074
967.00,0.0082
964.00,0.0085
961.00,0.0081
958.00,0.0075
955.00,0.0070
952.00,0.0070
949.00,0.0072
946.00,0.0072
943.00,0.0071
940.00,0.0068
937.00,0.0061
934.00,0.0054
931.00,0.0048
928.00,0.0046
925.00,0.0047
922.00,0.0050
919.00,0.0056
916.00,0.0068
913.00,0.0089
910.00,0.0113
907.00,0.0129
904.00,0.0122
901.00,0.0097
898.00,0.0070
895.00,0.0054
892.00,0.0046
889.00,0.0042
886.00,0.0039
883.00,0.0036
880.00,0.0035
877.00,0.0035
874.00,0.0034
871.00,0.0032
868.00,0.0032
865.00,0.0032
862.00,0.0032
859.00,0.0032
856.00,0.0033
853.00,0.0037
850.00,0.0045
847.00,0.0056
844.00,0.0066
841.00,0.0069
838.00,0.0062
835.00,0.0049
832.00,0.0039
829.00,0.0034
826.00,0.0032
823.00,0.0032
820.00,0.0033
817.00,0.0035
814.00,0.0036
811.00,0.0035
808.00,0.0035
805.00,0.0036
802.00,0.0038
799.00,0.0040
796.00,0.0046
793.00,0.0054
790.00,0.0065
787.00,0.0078
784.00,0.0093
781.00,0.0114
778.00,0.0144
775.00,0.0186
772.00,0.0242
769.00,0.0310
766.00,0.0377
763.00,0.0443
760.00,0.0510
757.00,0.0563
754.00,0.0575
751.00,0.0568
748.00,0.0565
745.00,0.0520
742.00,0.0413
739.00,0.0306
736.00,0.0221
733.00,0.0148
730.00,0.0100
727.00,0.0078
724.00,0.0071
721.00,0.0070
718.00,0.0073
715.00,0.0089
712.00,0.0132
709.00,0.0242
706.00,0.0465
703.00,0.0820
700.00,0.1267
697.00,0.1690
694.00,0.1780
691.00,0.1319
688.00,0.0851
685.00,0.0597
682.00,0.0458
679.00,0.0369
676.00,0.0314
673.00,0.0279
670.00,0.0253
667.00,0.0227
664.00,0.0201
661.00,0.0178
658.00,0.0157
655.00,0.0138
652.00,0.0122
649.00,0.0110
646.00,0.0101
643.00,0.0095
640.00,0.0096
637.00,0.0102
634.00,0.0108
631.00,0.0116
628.00,0.0122
625.00,0.0126
622.00,0.0134
619.00,0.0131
616.00,0.0119
613.00,0.0114
610.00,0.0109
607.00,0.0105
604.00,0.0104
601.00,0.0108
598.00,0.0111
595.00,0.0116
592.00,0.0122
589.00,0.0127
586.00,0.0134
583.00,0.0140
580.00,0.0153
577.00,0.0174
574.00,0.0202
571.00,0.0223
568.00,0.0250
565.00,0.0275
562.00,0.0300
559.00,0.0325
556.00,0.0353
553.00,0.0383
550.00,0.0420
547.00,0.0465
544.00,0.0526
541.00,0.0588
538.00,0.0618
535.00,0.0581
532.00,0.0503
529.00,0.0415
526.00,0.0337
523.00,0.0278
520.00,0.0246
517.00,0.0221
514.00,0.0202
511.00,0.0182
508.00,0.0162
505.00,0.0151
502.00,0.0140
499.00,0.0132
496.00,0.0122
493.00,0.0122
490.00,0.0116
487.00,0.0107
484.00,0.0105
481.00,0.0103
478.00,0.0099
475.00,0.0093
472.00,0.0093
469.00,0.0097
466.00,0.0090
463.00,0.0080
460.00,0.0088
457.00,0.0089
454.00,0.0081
451.00,0.0080
448.00,0.0082
445.00,0.0079
442.00,0.0077
439.00,0.0064
436.00,0.0069
433.00,0.0081
430.00,0.0080
427.00,0.0069
424.00,0.0070
421.00,0.0068
418.00,0.0067
415.00,0.0068
412.00,0.0061
409.00,0.0086
406.00,0.0099
403.00,0.0079
400.00,0.0069