File: FTIR/Olivia/2025_06_06_Crystalline_Felodipine_Scan2.csv
Created as New Dataset,Sample 624 By YargerLab Date Friday, June 06 2025
cm-1,A
4000.00,0.0098
3997.00,0.0098
3994.00,0.0099
3991.00,0.0099
3988.00,0.0099
3985.00,0.0099
3982.00,0.0099
3979.00,0.0099
3976.00,0.0099
3973.00,0.0099
3970.00,0.0099
3967.00,0.0099
3964.00,0.0098
3961.00,0.0099
3958.00,0.0099
3955.00,0.0098
3952.00,0.0098
3949.00,0.0097
3946.00,0.0098
3943.00,0.0098
3940.00,0.0097
3937.00,0.0098
3934.00,0.0098
3931.00,0.0098
3928.00,0.0099
3925.00,0.0100
3922.00,0.0099
3919.00,0.0099
3916.00,0.0099
3913.00,0.0099
3910.00,0.0099
3907.00,0.0098
3904.00,0.0096
3901.00,0.0095
3898.00,0.0094
3895.00,0.0095
3892.00,0.0096
3889.00,0.0095
3886.00,0.0096
3883.00,0.0094
3880.00,0.0094
3877.00,0.0094
3874.00,0.0094
3871.00,0.0093
3868.00,0.0093
3865.00,0.0093
3862.00,0.0093
3859.00,0.0094
3856.00,0.0093
3853.00,0.0093
3850.00,0.0093
3847.00,0.0093
3844.00,0.0093
3841.00,0.0092
3838.00,0.0093
3835.00,0.0092
3832.00,0.0092
3829.00,0.0093
3826.00,0.0094
3823.00,0.0093
3820.00,0.0092
3817.00,0.0092
3814.00,0.0093
3811.00,0.0094
3808.00,0.0094
3805.00,0.0093
3802.00,0.0093
3799.00,0.0092
3796.00,0.0093
3793.00,0.0094
3790.00,0.0095
3787.00,0.0095
3784.00,0.0094
3781.00,0.0094
3778.00,0.0094
3775.00,0.0094
3772.00,0.0094
3769.00,0.0093
3766.00,0.0092
3763.00,0.0092
3760.00,0.0093
3757.00,0.0092
3754.00,0.0091
3751.00,0.0090
3748.00,0.0089
3745.00,0.0090
3742.00,0.0090
3739.00,0.0091
3736.00,0.0090
3733.00,0.0090
3730.00,0.0090
3727.00,0.0091
3724.00,0.0091
3721.00,0.0091
3718.00,0.0090
3715.00,0.0090
3712.00,0.0089
3709.00,0.0089
3706.00,0.0089
3703.00,0.0090
3700.00,0.0090
3697.00,0.0090
3694.00,0.0090
3691.00,0.0088
3688.00,0.0087
3685.00,0.0086
3682.00,0.0085
3679.00,0.0083
3676.00,0.0080
3673.00,0.0078
3670.00,0.0078
3667.00,0.0078
3664.00,0.0079
3661.00,0.0079
3658.00,0.0078
3655.00,0.0078
3652.00,0.0077
3649.00,0.0077
3646.00,0.0077
3643.00,0.0079
3640.00,0.0081
3637.00,0.0080
3634.00,0.0082
3631.00,0.0083
3628.00,0.0083
3625.00,0.0084
3622.00,0.0085
3619.00,0.0085
3616.00,0.0084
3613.00,0.0084
3610.00,0.0084
3607.00,0.0085
3604.00,0.0086
3601.00,0.0086
3598.00,0.0085
3595.00,0.0085
3592.00,0.0085
3589.00,0.0085
3586.00,0.0085
3583.00,0.0085
3580.00,0.0086
3577.00,0.0086
3574.00,0.0086
3571.00,0.0086
3568.00,0.0085
3565.00,0.0084
3562.00,0.0086
3559.00,0.0086
3556.00,0.0086
3553.00,0.0086
3550.00,0.0086
3547.00,0.0086
3544.00,0.0085
3541.00,0.0086
3538.00,0.0087
3535.00,0.0086
3532.00,0.0086
3529.00,0.0085
3526.00,0.0085
3523.00,0.0086
3520.00,0.0085
3517.00,0.0085
3514.00,0.0085
3511.00,0.0085
3508.00,0.0085
3505.00,0.0085
3502.00,0.0085
3499.00,0.0084
3496.00,0.0085
3493.00,0.0084
3490.00,0.0084
3487.00,0.0085
3484.00,0.0084
3481.00,0.0084
3478.00,0.0084
3475.00,0.0084
3472.00,0.0083
3469.00,0.0083
3466.00,0.0083
3463.00,0.0083
3460.00,0.0082
3457.00,0.0082
3454.00,0.0082
3451.00,0.0083
3448.00,0.0083
3445.00,0.0083
3442.00,0.0084
3439.00,0.0084
3436.00,0.0085
3433.00,0.0085
3430.00,0.0086
3427.00,0.0087
3424.00,0.0088
3421.00,0.0090
3418.00,0.0092
3415.00,0.0095
3412.00,0.0098
3409.00,0.0103
3406.00,0.0109
3403.00,0.0114
3400.00,0.0125
3397.00,0.0139
3394.00,0.0154
3391.00,0.0175
3388.00,0.0207
3385.00,0.0249
3382.00,0.0310
3379.00,0.0395
3376.00,0.0497
3373.00,0.0588
3370.00,0.0637
3367.00,0.0637
3364.00,0.0602
3361.00,0.0551
3358.00,0.0496
3355.00,0.0443
3352.00,0.0394
3349.00,0.0354
3346.00,0.0321
3343.00,0.0293
3340.00,0.0272
3337.00,0.0255
3334.00,0.0239
3331.00,0.0227
3328.00,0.0218
3325.00,0.0209
3322.00,0.0202
3319.00,0.0197
3316.00,0.0192
3313.00,0.0188
3310.00,0.0184
3307.00,0.0181
3304.00,0.0177
3301.00,0.0173
3298.00,0.0168
3295.00,0.0164
3292.00,0.0159
3289.00,0.0156
3286.00,0.0151
3283.00,0.0146
3280.00,0.0143
3277.00,0.0139
3274.00,0.0136
3271.00,0.0133
3268.00,0.0132
3265.00,0.0132
3262.00,0.0131
3259.00,0.0130
3256.00,0.0128
3253.00,0.0129
3250.00,0.0129
3247.00,0.0128
3244.00,0.0130
3241.00,0.0131
3238.00,0.0132
3235.00,0.0131
3232.00,0.0131
3229.00,0.0130
3226.00,0.0128
3223.00,0.0125
3220.00,0.0123
3217.00,0.0120
3214.00,0.0118
3211.00,0.0116
3208.00,0.0115
3205.00,0.0113
3202.00,0.0111
3199.00,0.0110
3196.00,0.0109
3193.00,0.0108
3190.00,0.0108
3187.00,0.0107
3184.00,0.0107
3181.00,0.0106
3178.00,0.0106
3175.00,0.0105
3172.00,0.0105
3169.00,0.0104
3166.00,0.0104
3163.00,0.0104
3160.00,0.0105
3157.00,0.0104
3154.00,0.0104
3151.00,0.0105
3148.00,0.0106
3145.00,0.0107
3142.00,0.0107
3139.00,0.0107
3136.00,0.0107
3133.00,0.0108
3130.00,0.0109
3127.00,0.0110
3124.00,0.0111
3121.00,0.0113
3118.00,0.0115
3115.00,0.0117
3112.00,0.0120
3109.00,0.0123
3106.00,0.0126
3103.00,0.0128
3100.00,0.0130
3097.00,0.0130
3094.00,0.0129
3091.00,0.0128
3088.00,0.0126
3085.00,0.0125
3082.00,0.0125
3079.00,0.0126
3076.00,0.0128
3073.00,0.0134
3070.00,0.0138
3067.00,0.0132
3064.00,0.0123
3061.00,0.0118
3058.00,0.0116
3055.00,0.0117
3052.00,0.0117
3049.00,0.0115
3046.00,0.0112
3043.00,0.0110
3040.00,0.0110
3037.00,0.0110
3034.00,0.0111
3031.00,0.0112
3028.00,0.0114
3025.00,0.0117
3022.00,0.0121
3019.00,0.0124
3016.00,0.0125
3013.00,0.0125
3010.00,0.0125
3007.00,0.0125
3004.00,0.0126
3001.00,0.0130
2998.00,0.0139
2995.00,0.0153
2992.00,0.0164
2989.00,0.0168
2986.00,0.0162
2983.00,0.0143
2980.00,0.0136
2977.00,0.0134
2974.00,0.0119
2971.00,0.0106
2968.00,0.0111
2965.00,0.0123
2962.00,0.0141
2959.00,0.0162
2956.00,0.0182
2953.00,0.0203
2950.00,0.0220
2947.00,0.0219
2944.00,0.0208
2941.00,0.0198
2938.00,0.0193
2935.00,0.0186
2932.00,0.0173
2929.00,0.0159
2926.00,0.0148
2923.00,0.0139
2920.00,0.0131
2917.00,0.0125
2914.00,0.0124
2911.00,0.0125
2908.00,0.0126
2905.00,0.0128
2902.00,0.0128
2899.00,0.0126
2896.00,0.0123
2893.00,0.0119
2890.00,0.0116
2887.00,0.0116
2884.00,0.0115
2881.00,0.0117
2878.00,0.0119
2875.00,0.0119
2872.00,0.0117
2869.00,0.0114
2866.00,0.0111
2863.00,0.0110
2860.00,0.0109
2857.00,0.0110
2854.00,0.0110
2851.00,0.0111
2848.00,0.0113
2845.00,0.0117
2842.00,0.0122
2839.00,0.0125
2836.00,0.0124
2833.00,0.0121
2830.00,0.0118
2827.00,0.0116
2824.00,0.0114
2821.00,0.0114
2818.00,0.0114
2815.00,0.0116
2812.00,0.0117
2809.00,0.0118
2806.00,0.0119
2803.00,0.0119
2800.00,0.0118
2797.00,0.0116
2794.00,0.0113
2791.00,0.0111
2788.00,0.0108
2785.00,0.0105
2782.00,0.0103
2779.00,0.0102
2776.00,0.0101
2773.00,0.0100
2770.00,0.0100
2767.00,0.0100
2764.00,0.0100
2761.00,0.0100
2758.00,0.0100
2755.00,0.0100
2752.00,0.0099
2749.00,0.0098
2746.00,0.0098
2743.00,0.0097
2740.00,0.0096
2737.00,0.0096
2734.00,0.0096
2731.00,0.0096
2728.00,0.0095
2725.00,0.0094
2722.00,0.0093
2719.00,0.0093
2716.00,0.0092
2713.00,0.0092
2710.00,0.0092
2707.00,0.0093
2704.00,0.0094
2701.00,0.0094
2698.00,0.0094
2695.00,0.0094
2692.00,0.0093
2689.00,0.0093
2686.00,0.0092
2683.00,0.0092
2680.00,0.0091
2677.00,0.0091
2674.00,0.0090
2671.00,0.0090
2668.00,0.0091
2665.00,0.0092
2662.00,0.0094
2659.00,0.0094
2656.00,0.0095
2653.00,0.0095
2650.00,0.0095
2647.00,0.0095
2644.00,0.0095
2641.00,0.0095
2638.00,0.0096
2635.00,0.0096
2632.00,0.0097
2629.00,0.0097
2626.00,0.0097
2623.00,0.0097
2620.00,0.0098
2617.00,0.0098
2614.00,0.0098
2611.00,0.0098
2608.00,0.0098
2605.00,0.0098
2602.00,0.0098
2599.00,0.0097
2596.00,0.0096
2593.00,0.0096
2590.00,0.0096
2587.00,0.0094
2584.00,0.0092
2581.00,0.0091
2578.00,0.0091
2575.00,0.0090
2572.00,0.0090
2569.00,0.0090
2566.00,0.0089
2563.00,0.0089
2560.00,0.0090
2557.00,0.0090
2554.00,0.0090
2551.00,0.0091
2548.00,0.0089
2545.00,0.0087
2542.00,0.0086
2539.00,0.0086
2536.00,0.0085
2533.00,0.0085
2530.00,0.0085
2527.00,0.0086
2524.00,0.0086
2521.00,0.0087
2518.00,0.0088
2515.00,0.0089
2512.00,0.0089
2509.00,0.0089
2506.00,0.0088
2503.00,0.0088
2500.00,0.0087
2497.00,0.0088
2494.00,0.0087
2491.00,0.0087
2488.00,0.0087
2485.00,0.0087
2482.00,0.0088
2479.00,0.0088
2476.00,0.0088
2473.00,0.0087
2470.00,0.0087
2467.00,0.0086
2464.00,0.0086
2461.00,0.0087
2458.00,0.0088
2455.00,0.0087
2452.00,0.0085
2449.00,0.0085
2446.00,0.0084
2443.00,0.0084
2440.00,0.0083
2437.00,0.0083
2434.00,0.0082
2431.00,0.0082
2428.00,0.0082
2425.00,0.0083
2422.00,0.0083
2419.00,0.0082
2416.00,0.0081
2413.00,0.0082
2410.00,0.0082
2407.00,0.0080
2404.00,0.0079
2401.00,0.0078
2398.00,0.0077
2395.00,0.0077
2392.00,0.0076
2389.00,0.0077
2386.00,0.0076
2383.00,0.0074
2380.00,0.0075
2377.00,0.0074
2374.00,0.0074
2371.00,0.0074
2368.00,0.0074
2365.00,0.0074
2362.00,0.0074
2359.00,0.0075
2356.00,0.0075
2353.00,0.0075
2350.00,0.0075
2347.00,0.0076
2344.00,0.0077
2341.00,0.0078
2338.00,0.0079
2335.00,0.0078
2332.00,0.0078
2329.00,0.0080
2326.00,0.0092
2323.00,0.0089
2320.00,0.0084
2317.00,0.0081
2314.00,0.0080
2311.00,0.0078
2308.00,0.0079
2305.00,0.0079
2302.00,0.0079
2299.00,0.0080
2296.00,0.0083
2293.00,0.0085
2290.00,0.0087
2287.00,0.0089
2284.00,0.0086
2281.00,0.0083
2278.00,0.0082
2275.00,0.0081
2272.00,0.0079
2269.00,0.0078
2266.00,0.0076
2263.00,0.0077
2260.00,0.0077
2257.00,0.0078
2254.00,0.0075
2251.00,0.0076
2248.00,0.0075
2245.00,0.0076
2242.00,0.0075
2239.00,0.0074
2236.00,0.0072
2233.00,0.0071
2230.00,0.0070
2227.00,0.0069
2224.00,0.0070
2221.00,0.0070
2218.00,0.0069
2215.00,0.0069
2212.00,0.0066
2209.00,0.0066
2206.00,0.0064
2203.00,0.0064
2200.00,0.0064
2197.00,0.0061
2194.00,0.0062
2191.00,0.0064
2188.00,0.0064
2185.00,0.0061
2182.00,0.0057
2179.00,0.0062
2176.00,0.0059
2173.00,0.0062
2170.00,0.0073
2167.00,0.0079
2164.00,0.0086
2161.00,0.0062
2158.00,0.0030
2155.00,0.0041
2152.00,0.0049
2149.00,0.0049
2146.00,0.0046
2143.00,0.0048
2140.00,0.0050
2137.00,0.0046
2134.00,0.0043
2131.00,0.0048
2128.00,0.0052
2125.00,0.0054
2122.00,0.0054
2119.00,0.0058
2116.00,0.0062
2113.00,0.0063
2110.00,0.0064
2107.00,0.0064
2104.00,0.0066
2101.00,0.0067
2098.00,0.0063
2095.00,0.0058
2092.00,0.0062
2089.00,0.0065
2086.00,0.0064
2083.00,0.0064
2080.00,0.0065
2077.00,0.0065
2074.00,0.0066
2071.00,0.0064
2068.00,0.0063
2065.00,0.0062
2062.00,0.0060
2059.00,0.0060
2056.00,0.0060
2053.00,0.0067
2050.00,0.0066
2047.00,0.0055
2044.00,0.0054
2041.00,0.0055
2038.00,0.0053
2035.00,0.0053
2032.00,0.0048
2029.00,0.0045
2026.00,0.0049
2023.00,0.0050
2020.00,0.0051
2017.00,0.0052
2014.00,0.0051
2011.00,0.0056
2008.00,0.0046
2005.00,0.0041
2002.00,0.0049
1999.00,0.0054
1996.00,0.0054
1993.00,0.0053
1990.00,0.0057
1987.00,0.0059
1984.00,0.0064
1981.00,0.0072
1978.00,0.0057
1975.00,0.0050
1972.00,0.0045
1969.00,0.0044
1966.00,0.0047
1963.00,0.0047
1960.00,0.0040
1957.00,0.0041
1954.00,0.0043
1951.00,0.0044
1948.00,0.0046
1945.00,0.0045
1942.00,0.0050
1939.00,0.0052
1936.00,0.0051
1933.00,0.0051
1930.00,0.0052
1927.00,0.0053
1924.00,0.0056
1921.00,0.0059
1918.00,0.0065
1915.00,0.0068
1912.00,0.0065
1909.00,0.0062
1906.00,0.0058
1903.00,0.0056
1900.00,0.0054
1897.00,0.0053
1894.00,0.0052
1891.00,0.0053
1888.00,0.0054
1885.00,0.0055
1882.00,0.0056
1879.00,0.0055
1876.00,0.0055
1873.00,0.0053
1870.00,0.0053
1867.00,0.0054
1864.00,0.0054
1861.00,0.0055
1858.00,0.0059
1855.00,0.0062
1852.00,0.0062
1849.00,0.0056
1846.00,0.0052
1843.00,0.0054
1840.00,0.0053
1837.00,0.0052
1834.00,0.0051
1831.00,0.0051
1828.00,0.0049
1825.00,0.0049
1822.00,0.0049
1819.00,0.0048
1816.00,0.0047
1813.00,0.0050
1810.00,0.0052
1807.00,0.0053
1804.00,0.0053
1801.00,0.0055
1798.00,0.0057
1795.00,0.0059
1792.00,0.0061
1789.00,0.0059
1786.00,0.0058
1783.00,0.0059
1780.00,0.0059
1777.00,0.0058
1774.00,0.0060
1771.00,0.0061
1768.00,0.0061
1765.00,0.0063
1762.00,0.0066
1759.00,0.0070
1756.00,0.0073
1753.00,0.0071
1750.00,0.0075
1747.00,0.0078
1744.00,0.0080
1741.00,0.0081
1738.00,0.0084
1735.00,0.0090
1732.00,0.0097
1729.00,0.0101
1726.00,0.0108
1723.00,0.0120
1720.00,0.0133
1717.00,0.0169
1714.00,0.0223
1711.00,0.0313
1708.00,0.0465
1705.00,0.0753
1702.00,0.1059
1699.00,0.1467
1696.00,0.1604
1693.00,0.1650
1690.00,0.1728
1687.00,0.1755
1684.00,0.1532
1681.00,0.1249
1678.00,0.0995
1675.00,0.0769
1672.00,0.0631
1669.00,0.0536
1666.00,0.0475
1663.00,0.0432
1660.00,0.0403
1657.00,0.0396
1654.00,0.0425
1651.00,0.0521
1648.00,0.0638
1645.00,0.0806
1642.00,0.0812
1639.00,0.0709
1636.00,0.0607
1633.00,0.0583
1630.00,0.0646
1627.00,0.0785
1624.00,0.0935
1621.00,0.1040
1618.00,0.1032
1615.00,0.0914
1612.00,0.0793
1609.00,0.0671
1606.00,0.0570
1603.00,0.0493
1600.00,0.0429
1597.00,0.0378
1594.00,0.0338
1591.00,0.0310
1588.00,0.0285
1585.00,0.0273
1582.00,0.0281
1579.00,0.0268
1576.00,0.0229
1573.00,0.0200
1570.00,0.0184
1567.00,0.0177
1564.00,0.0190
1561.00,0.0200
1558.00,0.0174
1555.00,0.0157
1552.00,0.0149
1549.00,0.0144
1546.00,0.0141
1543.00,0.0139
1540.00,0.0142
1537.00,0.0145
1534.00,0.0153
1531.00,0.0163
1528.00,0.0171
1525.00,0.0184
1522.00,0.0206
1519.00,0.0237
1516.00,0.0285
1513.00,0.0349
1510.00,0.0440
1507.00,0.0615
1504.00,0.0901
1501.00,0.1197
1498.00,0.1555
1495.00,0.1788
1492.00,0.1778
1489.00,0.1583
1486.00,0.1352
1483.00,0.1157
1480.00,0.0989
1477.00,0.0869
1474.00,0.0770
1471.00,0.0694
1468.00,0.0662
1465.00,0.0653
1462.00,0.0672
1459.00,0.0666
1456.00,0.0615
1453.00,0.0604
1450.00,0.0656
1447.00,0.0846
1444.00,0.0862
1441.00,0.0719
1438.00,0.0682
1435.00,0.0802
1432.00,0.0938
1429.00,0.0886
1426.00,0.0766
1423.00,0.0734
1420.00,0.1014
1417.00,0.1195
1414.00,0.0922
1411.00,0.0690
1408.00,0.0551
1405.00,0.0465
1402.00,0.0406
1399.00,0.0371
1396.00,0.0354
1393.00,0.0361
1390.00,0.0400
1387.00,0.0522
1384.00,0.0713
1381.00,0.0838
1378.00,0.0757
1375.00,0.0566
1372.00,0.0443
1369.00,0.0435
1366.00,0.0517
1363.00,0.0544
1360.00,0.0391
1357.00,0.0276
1354.00,0.0219
1351.00,0.0192
1348.00,0.0178
1345.00,0.0172
1342.00,0.0169
1339.00,0.0169
1336.00,0.0172
1333.00,0.0177
1330.00,0.0184
1327.00,0.0196
1324.00,0.0218
1321.00,0.0264
1318.00,0.0336
1315.00,0.0427
1312.00,0.0603
1309.00,0.0896
1306.00,0.1002
1303.00,0.0823
1300.00,0.0620
1297.00,0.0526
1294.00,0.0544
1291.00,0.0635
1288.00,0.0782
1285.00,0.1013
1282.00,0.1353
1279.00,0.1738
1276.00,0.1919
1273.00,0.1761
1270.00,0.1445
1267.00,0.1140
1264.00,0.0895
1261.00,0.0707
1258.00,0.0565
1255.00,0.0470
1252.00,0.0439
1249.00,0.0447
1246.00,0.0397
1243.00,0.0337
1240.00,0.0301
1237.00,0.0284
1234.00,0.0285
1231.00,0.0302
1228.00,0.0336
1225.00,0.0379
1222.00,0.0438
1219.00,0.0529
1216.00,0.0647
1213.00,0.0854
1210.00,0.1238
1207.00,0.1684
1204.00,0.1928
1201.00,0.1880
1198.00,0.1651
1195.00,0.1420
1192.00,0.1326
1189.00,0.1324
1186.00,0.1258
1183.00,0.1102
1180.00,0.0948
1177.00,0.0889
1174.00,0.0953
1171.00,0.0951
1168.00,0.0745
1165.00,0.0547
1162.00,0.0437
1159.00,0.0398
1156.00,0.0444
1153.00,0.0498
1150.00,0.0509
1147.00,0.0672
1144.00,0.0964
1141.00,0.1207
1138.00,0.1319
1135.00,0.1288
1132.00,0.1124
1129.00,0.0940
1126.00,0.0842
1123.00,0.0894
1120.00,0.1157
1117.00,0.1553
1114.00,0.1699
1111.00,0.1529
1108.00,0.1425
1105.00,0.1582
1102.00,0.1883
1099.00,0.2280
1096.00,0.2405
1093.00,0.2205
1090.00,0.1893
1087.00,0.1591
1084.00,0.1341
1081.00,0.1145
1078.00,0.0993
1075.00,0.0870
1072.00,0.0784
1069.00,0.0764
1066.00,0.0857
1063.00,0.1082
1060.00,0.1279
1057.00,0.1258
1054.00,0.1108
1051.00,0.0978
1048.00,0.0939
1045.00,0.1061
1042.00,0.1223
1039.00,0.1176
1036.00,0.1076
1033.00,0.1064
1030.00,0.1151
1027.00,0.1305
1024.00,0.1410
1021.00,0.1379
1018.00,0.1241
1015.00,0.1084
1012.00,0.0955
1009.00,0.0870
1006.00,0.0819
1003.00,0.0757
1000.00,0.0681
997.00,0.0626
994.00,0.0589
991.00,0.0563
988.00,0.0550
985.00,0.0551
982.00,0.0567
979.00,0.0595
976.00,0.0612
973.00,0.0592
970.00,0.0539
967.00,0.0482
964.00,0.0447
961.00,0.0446
958.00,0.0462
955.00,0.0461
952.00,0.0419
949.00,0.0380
946.00,0.0353
943.00,0.0334
940.00,0.0321
937.00,0.0311
934.00,0.0303
931.00,0.0296
928.00,0.0292
925.00,0.0286
922.00,0.0279
919.00,0.0273
916.00,0.0269
913.00,0.0264
910.00,0.0260
907.00,0.0257
904.00,0.0256
901.00,0.0258
898.00,0.0258
895.00,0.0249
892.00,0.0241
889.00,0.0236
886.00,0.0232
883.00,0.0235
880.00,0.0248
877.00,0.0250
874.00,0.0248
871.00,0.0274
868.00,0.0395
865.00,0.0669
862.00,0.0753
859.00,0.0622
856.00,0.0605
853.00,0.0500
850.00,0.0374
847.00,0.0310
844.00,0.0280
841.00,0.0263
838.00,0.0247
835.00,0.0234
832.00,0.0229
829.00,0.0242
826.00,0.0296
823.00,0.0334
820.00,0.0293
817.00,0.0263
814.00,0.0256
811.00,0.0277
808.00,0.0364
805.00,0.0662
802.00,0.1202
799.00,0.1115
796.00,0.0672
793.00,0.0461
790.00,0.0410
787.00,0.0352
784.00,0.0299
781.00,0.0305
778.00,0.0366
775.00,0.0521
772.00,0.0831
769.00,0.0926
766.00,0.0664
763.00,0.0455
760.00,0.0366
757.00,0.0333
754.00,0.0327
751.00,0.0348
748.00,0.0415
745.00,0.0586
742.00,0.0776
739.00,0.0705
736.00,0.1082
733.00,0.1417
730.00,0.1345
727.00,0.1727
724.00,0.1540
721.00,0.0971
718.00,0.0652
715.00,0.0501
712.00,0.0420
709.00,0.0367
706.00,0.0328
703.00,0.0300
700.00,0.0279
697.00,0.0266
694.00,0.0259
691.00,0.0267
688.00,0.0304
685.00,0.0322
682.00,0.0307
679.00,0.0320
676.00,0.0388
673.00,0.0585
670.00,0.0833
667.00,0.0708
664.00,0.0487
661.00,0.0362
658.00,0.0315
655.00,0.0296
652.00,0.0289
649.00,0.0291
646.00,0.0298
643.00,0.0307
640.00,0.0322
637.00,0.0343
634.00,0.0373
631.00,0.0411
628.00,0.0463
625.00,0.0534
622.00,0.0625
619.00,0.0732
616.00,0.0825
613.00,0.0842
610.00,0.0741
607.00,0.0574
604.00,0.0438
601.00,0.0392
598.00,0.0430
595.00,0.0520
592.00,0.0563
589.00,0.0489
586.00,0.0464
583.00,0.0507
580.00,0.0584
577.00,0.0683
574.00,0.0801
571.00,0.0919
568.00,0.1036
565.00,0.1108
562.00,0.1127
559.00,0.1077
556.00,0.0979
553.00,0.0871
550.00,0.0774
547.00,0.0699
544.00,0.0669
541.00,0.0754
538.00,0.0788
535.00,0.0644
532.00,0.0530
529.00,0.0462
526.00,0.0414
523.00,0.0383
520.00,0.0357
517.00,0.0332
514.00,0.0316
511.00,0.0297
508.00,0.0289
505.00,0.0276
502.00,0.0276
499.00,0.0264
496.00,0.0259
493.00,0.0247
490.00,0.0241
487.00,0.0238
484.00,0.0237
481.00,0.0239
478.00,0.0239
475.00,0.0245
472.00,0.0313
469.00,0.0408
466.00,0.0444
463.00,0.0533
460.00,0.0684
457.00,0.0588
454.00,0.0413
451.00,0.0312
448.00,0.0263
445.00,0.0235
442.00,0.0221
439.00,0.0219
436.00,0.0219
433.00,0.0214
430.00,0.0225
427.00,0.0244
424.00,0.0271
421.00,0.0309
418.00,0.0354
415.00,0.0380
412.00,0.0350
409.00,0.0308
406.00,0.0298
403.00,0.0277
400.00,0.0339