File: FTIR/Olivia/2025_06_05_CBD_Powder_scan1.csv
Created as New Dataset,Sample 582 By YargerLab Date Thursday, June 05 2025
cm-1,A
4000.00,0.0085
3997.00,0.0085
3994.00,0.0085
3991.00,0.0084
3988.00,0.0084
3985.00,0.0084
3982.00,0.0085
3979.00,0.0085
3976.00,0.0085
3973.00,0.0085
3970.00,0.0085
3967.00,0.0086
3964.00,0.0086
3961.00,0.0086
3958.00,0.0086
3955.00,0.0087
3952.00,0.0087
3949.00,0.0086
3946.00,0.0086
3943.00,0.0086
3940.00,0.0086
3937.00,0.0086
3934.00,0.0086
3931.00,0.0086
3928.00,0.0087
3925.00,0.0087
3922.00,0.0087
3919.00,0.0086
3916.00,0.0086
3913.00,0.0086
3910.00,0.0085
3907.00,0.0084
3904.00,0.0083
3901.00,0.0083
3898.00,0.0083
3895.00,0.0083
3892.00,0.0083
3889.00,0.0083
3886.00,0.0082
3883.00,0.0081
3880.00,0.0081
3877.00,0.0080
3874.00,0.0080
3871.00,0.0080
3868.00,0.0081
3865.00,0.0081
3862.00,0.0081
3859.00,0.0080
3856.00,0.0080
3853.00,0.0080
3850.00,0.0080
3847.00,0.0080
3844.00,0.0080
3841.00,0.0079
3838.00,0.0079
3835.00,0.0079
3832.00,0.0079
3829.00,0.0079
3826.00,0.0078
3823.00,0.0077
3820.00,0.0078
3817.00,0.0079
3814.00,0.0079
3811.00,0.0079
3808.00,0.0078
3805.00,0.0079
3802.00,0.0078
3799.00,0.0078
3796.00,0.0079
3793.00,0.0079
3790.00,0.0079
3787.00,0.0079
3784.00,0.0079
3781.00,0.0079
3778.00,0.0079
3775.00,0.0079
3772.00,0.0079
3769.00,0.0079
3766.00,0.0078
3763.00,0.0078
3760.00,0.0077
3757.00,0.0078
3754.00,0.0077
3751.00,0.0075
3748.00,0.0075
3745.00,0.0076
3742.00,0.0075
3739.00,0.0074
3736.00,0.0074
3733.00,0.0074
3730.00,0.0075
3727.00,0.0075
3724.00,0.0075
3721.00,0.0075
3718.00,0.0074
3715.00,0.0073
3712.00,0.0073
3709.00,0.0073
3706.00,0.0073
3703.00,0.0074
3700.00,0.0074
3697.00,0.0074
3694.00,0.0074
3691.00,0.0074
3688.00,0.0073
3685.00,0.0074
3682.00,0.0072
3679.00,0.0071
3676.00,0.0070
3673.00,0.0070
3670.00,0.0069
3667.00,0.0070
3664.00,0.0071
3661.00,0.0070
3658.00,0.0069
3655.00,0.0068
3652.00,0.0067
3649.00,0.0067
3646.00,0.0069
3643.00,0.0070
3640.00,0.0070
3637.00,0.0069
3634.00,0.0069
3631.00,0.0069
3628.00,0.0070
3625.00,0.0070
3622.00,0.0072
3619.00,0.0072
3616.00,0.0072
3613.00,0.0073
3610.00,0.0073
3607.00,0.0073
3604.00,0.0073
3601.00,0.0073
3598.00,0.0074
3595.00,0.0074
3592.00,0.0075
3589.00,0.0076
3586.00,0.0077
3583.00,0.0078
3580.00,0.0079
3577.00,0.0080
3574.00,0.0081
3571.00,0.0083
3568.00,0.0085
3565.00,0.0087
3562.00,0.0090
3559.00,0.0093
3556.00,0.0098
3553.00,0.0102
3550.00,0.0108
3547.00,0.0117
3544.00,0.0130
3541.00,0.0145
3538.00,0.0167
3535.00,0.0200
3532.00,0.0251
3529.00,0.0332
3526.00,0.0438
3523.00,0.0531
3520.00,0.0566
3517.00,0.0535
3514.00,0.0466
3511.00,0.0393
3508.00,0.0335
3505.00,0.0299
3502.00,0.0278
3499.00,0.0268
3496.00,0.0266
3493.00,0.0268
3490.00,0.0272
3487.00,0.0279
3484.00,0.0289
3481.00,0.0302
3478.00,0.0315
3475.00,0.0331
3472.00,0.0350
3469.00,0.0370
3466.00,0.0392
3463.00,0.0415
3460.00,0.0439
3457.00,0.0463
3454.00,0.0487
3451.00,0.0510
3448.00,0.0532
3445.00,0.0555
3442.00,0.0577
3439.00,0.0599
3436.00,0.0620
3433.00,0.0640
3430.00,0.0660
3427.00,0.0680
3424.00,0.0704
3421.00,0.0735
3418.00,0.0771
3415.00,0.0810
3412.00,0.0844
3409.00,0.0862
3406.00,0.0855
3403.00,0.0822
3400.00,0.0762
3397.00,0.0686
3394.00,0.0612
3391.00,0.0545
3388.00,0.0489
3385.00,0.0443
3382.00,0.0406
3379.00,0.0375
3376.00,0.0349
3373.00,0.0325
3370.00,0.0304
3367.00,0.0286
3364.00,0.0269
3361.00,0.0254
3358.00,0.0241
3355.00,0.0229
3352.00,0.0218
3349.00,0.0209
3346.00,0.0200
3343.00,0.0192
3340.00,0.0184
3337.00,0.0178
3334.00,0.0172
3331.00,0.0167
3328.00,0.0161
3325.00,0.0157
3322.00,0.0153
3319.00,0.0149
3316.00,0.0145
3313.00,0.0142
3310.00,0.0139
3307.00,0.0136
3304.00,0.0133
3301.00,0.0129
3298.00,0.0126
3295.00,0.0123
3292.00,0.0121
3289.00,0.0120
3286.00,0.0118
3283.00,0.0116
3280.00,0.0113
3277.00,0.0111
3274.00,0.0110
3271.00,0.0108
3268.00,0.0109
3265.00,0.0109
3262.00,0.0108
3259.00,0.0107
3256.00,0.0106
3253.00,0.0106
3250.00,0.0105
3247.00,0.0103
3244.00,0.0104
3241.00,0.0104
3238.00,0.0102
3235.00,0.0100
3232.00,0.0099
3229.00,0.0099
3226.00,0.0098
3223.00,0.0097
3220.00,0.0097
3217.00,0.0097
3214.00,0.0096
3211.00,0.0096
3208.00,0.0096
3205.00,0.0096
3202.00,0.0096
3199.00,0.0095
3196.00,0.0094
3193.00,0.0094
3190.00,0.0094
3187.00,0.0094
3184.00,0.0094
3181.00,0.0094
3178.00,0.0096
3175.00,0.0097
3172.00,0.0097
3169.00,0.0098
3166.00,0.0099
3163.00,0.0099
3160.00,0.0098
3157.00,0.0097
3154.00,0.0094
3151.00,0.0094
3148.00,0.0095
3145.00,0.0095
3142.00,0.0093
3139.00,0.0093
3136.00,0.0094
3133.00,0.0094
3130.00,0.0094
3127.00,0.0093
3124.00,0.0093
3121.00,0.0093
3118.00,0.0093
3115.00,0.0093
3112.00,0.0093
3109.00,0.0093
3106.00,0.0093
3103.00,0.0093
3100.00,0.0094
3097.00,0.0095
3094.00,0.0096
3091.00,0.0097
3088.00,0.0100
3085.00,0.0105
3082.00,0.0118
3079.00,0.0149
3076.00,0.0190
3073.00,0.0191
3070.00,0.0154
3067.00,0.0127
3064.00,0.0114
3061.00,0.0109
3058.00,0.0106
3055.00,0.0104
3052.00,0.0104
3049.00,0.0106
3046.00,0.0109
3043.00,0.0114
3040.00,0.0118
3037.00,0.0124
3034.00,0.0130
3031.00,0.0132
3028.00,0.0126
3025.00,0.0120
3022.00,0.0115
3019.00,0.0113
3016.00,0.0113
3013.00,0.0114
3010.00,0.0116
3007.00,0.0117
3004.00,0.0117
3001.00,0.0119
2998.00,0.0123
2995.00,0.0127
2992.00,0.0136
2989.00,0.0148
2986.00,0.0153
2983.00,0.0155
2980.00,0.0175
2977.00,0.0220
2974.00,0.0288
2971.00,0.0372
2968.00,0.0452
2965.00,0.0490
2962.00,0.0490
2959.00,0.0471
2956.00,0.0430
2953.00,0.0391
2950.00,0.0378
2947.00,0.0410
2944.00,0.0483
2941.00,0.0554
2938.00,0.0615
2935.00,0.0690
2932.00,0.0782
2929.00,0.0878
2926.00,0.0948
2923.00,0.0954
2920.00,0.0927
2917.00,0.0904
2914.00,0.0862
2911.00,0.0786
2908.00,0.0698
2905.00,0.0623
2902.00,0.0574
2899.00,0.0532
2896.00,0.0481
2893.00,0.0434
2890.00,0.0405
2887.00,0.0391
2884.00,0.0387
2881.00,0.0389
2878.00,0.0403
2875.00,0.0425
2872.00,0.0444
2869.00,0.0437
2866.00,0.0429
2863.00,0.0468
2860.00,0.0574
2857.00,0.0693
2854.00,0.0687
2851.00,0.0563
2848.00,0.0435
2845.00,0.0343
2842.00,0.0288
2839.00,0.0264
2836.00,0.0274
2833.00,0.0329
2830.00,0.0389
2827.00,0.0359
2824.00,0.0274
2821.00,0.0216
2818.00,0.0186
2815.00,0.0169
2812.00,0.0159
2809.00,0.0152
2806.00,0.0146
2803.00,0.0141
2800.00,0.0136
2797.00,0.0132
2794.00,0.0128
2791.00,0.0125
2788.00,0.0123
2785.00,0.0121
2782.00,0.0118
2779.00,0.0116
2776.00,0.0114
2773.00,0.0113
2770.00,0.0112
2767.00,0.0110
2764.00,0.0108
2761.00,0.0107
2758.00,0.0107
2755.00,0.0106
2752.00,0.0106
2749.00,0.0106
2746.00,0.0107
2743.00,0.0109
2740.00,0.0110
2737.00,0.0113
2734.00,0.0117
2731.00,0.0124
2728.00,0.0126
2725.00,0.0121
2722.00,0.0115
2719.00,0.0111
2716.00,0.0108
2713.00,0.0105
2710.00,0.0104
2707.00,0.0103
2704.00,0.0102
2701.00,0.0101
2698.00,0.0100
2695.00,0.0100
2692.00,0.0100
2689.00,0.0101
2686.00,0.0102
2683.00,0.0103
2680.00,0.0104
2677.00,0.0105
2674.00,0.0106
2671.00,0.0107
2668.00,0.0107
2665.00,0.0108
2662.00,0.0108
2659.00,0.0108
2656.00,0.0108
2653.00,0.0107
2650.00,0.0106
2647.00,0.0105
2644.00,0.0104
2641.00,0.0103
2638.00,0.0102
2635.00,0.0102
2632.00,0.0102
2629.00,0.0102
2626.00,0.0101
2623.00,0.0101
2620.00,0.0101
2617.00,0.0101
2614.00,0.0101
2611.00,0.0100
2608.00,0.0100
2605.00,0.0100
2602.00,0.0099
2599.00,0.0099
2596.00,0.0098
2593.00,0.0097
2590.00,0.0098
2587.00,0.0098
2584.00,0.0098
2581.00,0.0097
2578.00,0.0097
2575.00,0.0097
2572.00,0.0097
2569.00,0.0097
2566.00,0.0097
2563.00,0.0097
2560.00,0.0097
2557.00,0.0096
2554.00,0.0096
2551.00,0.0095
2548.00,0.0095
2545.00,0.0094
2542.00,0.0094
2539.00,0.0094
2536.00,0.0093
2533.00,0.0093
2530.00,0.0093
2527.00,0.0094
2524.00,0.0094
2521.00,0.0093
2518.00,0.0094
2515.00,0.0094
2512.00,0.0094
2509.00,0.0093
2506.00,0.0093
2503.00,0.0093
2500.00,0.0093
2497.00,0.0093
2494.00,0.0092
2491.00,0.0093
2488.00,0.0093
2485.00,0.0093
2482.00,0.0093
2479.00,0.0094
2476.00,0.0095
2473.00,0.0095
2470.00,0.0094
2467.00,0.0093
2464.00,0.0094
2461.00,0.0095
2458.00,0.0096
2455.00,0.0097
2452.00,0.0097
2449.00,0.0096
2446.00,0.0094
2443.00,0.0092
2440.00,0.0090
2437.00,0.0089
2434.00,0.0088
2431.00,0.0086
2428.00,0.0086
2425.00,0.0085
2422.00,0.0083
2419.00,0.0082
2416.00,0.0082
2413.00,0.0082
2410.00,0.0082
2407.00,0.0080
2404.00,0.0079
2401.00,0.0080
2398.00,0.0081
2395.00,0.0081
2392.00,0.0080
2389.00,0.0080
2386.00,0.0078
2383.00,0.0081
2380.00,0.0079
2377.00,0.0074
2374.00,0.0075
2371.00,0.0074
2368.00,0.0073
2365.00,0.0074
2362.00,0.0074
2359.00,0.0074
2356.00,0.0074
2353.00,0.0074
2350.00,0.0073
2347.00,0.0073
2344.00,0.0077
2341.00,0.0078
2338.00,0.0079
2335.00,0.0078
2332.00,0.0078
2329.00,0.0082
2326.00,0.0091
2323.00,0.0089
2320.00,0.0087
2317.00,0.0085
2314.00,0.0082
2311.00,0.0081
2308.00,0.0081
2305.00,0.0081
2302.00,0.0083
2299.00,0.0083
2296.00,0.0084
2293.00,0.0086
2290.00,0.0090
2287.00,0.0090
2284.00,0.0087
2281.00,0.0084
2278.00,0.0083
2275.00,0.0082
2272.00,0.0081
2269.00,0.0079
2266.00,0.0077
2263.00,0.0079
2260.00,0.0081
2257.00,0.0080
2254.00,0.0077
2251.00,0.0078
2248.00,0.0078
2245.00,0.0077
2242.00,0.0078
2239.00,0.0079
2236.00,0.0079
2233.00,0.0079
2230.00,0.0078
2227.00,0.0078
2224.00,0.0079
2221.00,0.0078
2218.00,0.0075
2215.00,0.0077
2212.00,0.0077
2209.00,0.0075
2206.00,0.0073
2203.00,0.0073
2200.00,0.0073
2197.00,0.0074
2194.00,0.0073
2191.00,0.0075
2188.00,0.0077
2185.00,0.0077
2182.00,0.0072
2179.00,0.0070
2176.00,0.0069
2173.00,0.0074
2170.00,0.0079
2167.00,0.0082
2164.00,0.0085
2161.00,0.0070
2158.00,0.0037
2155.00,0.0043
2152.00,0.0052
2149.00,0.0056
2146.00,0.0052
2143.00,0.0053
2140.00,0.0055
2137.00,0.0049
2134.00,0.0047
2131.00,0.0054
2128.00,0.0057
2125.00,0.0059
2122.00,0.0061
2119.00,0.0065
2116.00,0.0068
2113.00,0.0068
2110.00,0.0067
2107.00,0.0066
2104.00,0.0066
2101.00,0.0065
2098.00,0.0063
2095.00,0.0060
2092.00,0.0062
2089.00,0.0066
2086.00,0.0068
2083.00,0.0068
2080.00,0.0067
2077.00,0.0066
2074.00,0.0066
2071.00,0.0066
2068.00,0.0060
2065.00,0.0059
2062.00,0.0060
2059.00,0.0060
2056.00,0.0063
2053.00,0.0071
2050.00,0.0070
2047.00,0.0058
2044.00,0.0055
2041.00,0.0055
2038.00,0.0056
2035.00,0.0051
2032.00,0.0051
2029.00,0.0048
2026.00,0.0048
2023.00,0.0053
2020.00,0.0052
2017.00,0.0049
2014.00,0.0047
2011.00,0.0046
2008.00,0.0046
2005.00,0.0039
2002.00,0.0044
1999.00,0.0047
1996.00,0.0053
1993.00,0.0059
1990.00,0.0061
1987.00,0.0064
1984.00,0.0071
1981.00,0.0072
1978.00,0.0054
1975.00,0.0047
1972.00,0.0048
1969.00,0.0050
1966.00,0.0050
1963.00,0.0048
1960.00,0.0047
1957.00,0.0050
1954.00,0.0052
1951.00,0.0053
1948.00,0.0052
1945.00,0.0053
1942.00,0.0056
1939.00,0.0055
1936.00,0.0053
1933.00,0.0053
1930.00,0.0053
1927.00,0.0055
1924.00,0.0055
1921.00,0.0057
1918.00,0.0058
1915.00,0.0059
1912.00,0.0061
1909.00,0.0062
1906.00,0.0061
1903.00,0.0062
1900.00,0.0062
1897.00,0.0062
1894.00,0.0063
1891.00,0.0062
1888.00,0.0062
1885.00,0.0063
1882.00,0.0063
1879.00,0.0064
1876.00,0.0065
1873.00,0.0063
1870.00,0.0062
1867.00,0.0063
1864.00,0.0064
1861.00,0.0063
1858.00,0.0063
1855.00,0.0063
1852.00,0.0064
1849.00,0.0063
1846.00,0.0063
1843.00,0.0064
1840.00,0.0065
1837.00,0.0065
1834.00,0.0065
1831.00,0.0065
1828.00,0.0065
1825.00,0.0066
1822.00,0.0068
1819.00,0.0065
1816.00,0.0065
1813.00,0.0068
1810.00,0.0071
1807.00,0.0075
1804.00,0.0077
1801.00,0.0079
1798.00,0.0078
1795.00,0.0076
1792.00,0.0072
1789.00,0.0072
1786.00,0.0072
1783.00,0.0072
1780.00,0.0074
1777.00,0.0076
1774.00,0.0081
1771.00,0.0082
1768.00,0.0079
1765.00,0.0075
1762.00,0.0073
1759.00,0.0072
1756.00,0.0072
1753.00,0.0071
1750.00,0.0069
1747.00,0.0070
1744.00,0.0070
1741.00,0.0071
1738.00,0.0071
1735.00,0.0071
1732.00,0.0071
1729.00,0.0073
1726.00,0.0074
1723.00,0.0075
1720.00,0.0075
1717.00,0.0077
1714.00,0.0080
1711.00,0.0083
1708.00,0.0084
1705.00,0.0086
1702.00,0.0088
1699.00,0.0090
1696.00,0.0091
1693.00,0.0090
1690.00,0.0089
1687.00,0.0088
1684.00,0.0087
1681.00,0.0088
1678.00,0.0090
1675.00,0.0093
1672.00,0.0096
1669.00,0.0104
1666.00,0.0115
1663.00,0.0127
1660.00,0.0130
1657.00,0.0129
1654.00,0.0145
1651.00,0.0187
1648.00,0.0261
1645.00,0.0446
1642.00,0.0472
1639.00,0.0423
1636.00,0.0510
1633.00,0.0683
1630.00,0.0768
1627.00,0.0851
1624.00,0.0978
1621.00,0.0939
1618.00,0.0708
1615.00,0.0470
1612.00,0.0363
1609.00,0.0293
1606.00,0.0253
1603.00,0.0236
1600.00,0.0241
1597.00,0.0269
1594.00,0.0342
1591.00,0.0507
1588.00,0.0774
1585.00,0.1024
1582.00,0.1167
1579.00,0.1082
1576.00,0.0802
1573.00,0.0581
1570.00,0.0432
1567.00,0.0318
1564.00,0.0250
1561.00,0.0212
1558.00,0.0184
1555.00,0.0171
1552.00,0.0160
1549.00,0.0150
1546.00,0.0141
1543.00,0.0135
1540.00,0.0134
1537.00,0.0135
1534.00,0.0135
1531.00,0.0136
1528.00,0.0139
1525.00,0.0149
1522.00,0.0178
1519.00,0.0239
1516.00,0.0301
1513.00,0.0314
1510.00,0.0269
1507.00,0.0224
1504.00,0.0202
1501.00,0.0191
1498.00,0.0175
1495.00,0.0156
1492.00,0.0142
1489.00,0.0132
1486.00,0.0130
1483.00,0.0130
1480.00,0.0135
1477.00,0.0143
1474.00,0.0164
1471.00,0.0236
1468.00,0.0346
1465.00,0.0417
1462.00,0.0457
1459.00,0.0493
1456.00,0.0570
1453.00,0.0694
1450.00,0.0920
1447.00,0.1233
1444.00,0.1411
1441.00,0.1405
1438.00,0.1317
1435.00,0.1180
1432.00,0.1027
1429.00,0.0801
1426.00,0.0548
1423.00,0.0370
1420.00,0.0283
1417.00,0.0233
1414.00,0.0207
1411.00,0.0188
1408.00,0.0176
1405.00,0.0170
1402.00,0.0163
1399.00,0.0155
1396.00,0.0151
1393.00,0.0148
1390.00,0.0147
1387.00,0.0158
1384.00,0.0194
1381.00,0.0285
1378.00,0.0466
1375.00,0.0600
1372.00,0.0528
1369.00,0.0426
1366.00,0.0356
1363.00,0.0301
1360.00,0.0269
1357.00,0.0257
1354.00,0.0258
1351.00,0.0265
1348.00,0.0283
1345.00,0.0313
1342.00,0.0330
1339.00,0.0310
1336.00,0.0283
1333.00,0.0296
1330.00,0.0336
1327.00,0.0374
1324.00,0.0403
1321.00,0.0377
1318.00,0.0362
1315.00,0.0460
1312.00,0.0592
1309.00,0.0588
1306.00,0.0555
1303.00,0.0594
1300.00,0.0610
1297.00,0.0580
1294.00,0.0526
1291.00,0.0472
1288.00,0.0449
1285.00,0.0492
1282.00,0.0567
1279.00,0.0609
1276.00,0.0584
1273.00,0.0502
1270.00,0.0389
1267.00,0.0296
1264.00,0.0240
1261.00,0.0209
1258.00,0.0193
1255.00,0.0191
1252.00,0.0214
1249.00,0.0260
1246.00,0.0288
1243.00,0.0364
1240.00,0.0549
1237.00,0.0714
1234.00,0.0718
1231.00,0.0642
1228.00,0.0641
1225.00,0.0802
1222.00,0.1022
1219.00,0.1353
1216.00,0.1726
1213.00,0.1747
1210.00,0.1427
1207.00,0.1113
1204.00,0.0891
1201.00,0.0678
1198.00,0.0508
1195.00,0.0418
1192.00,0.0397
1189.00,0.0419
1186.00,0.0454
1183.00,0.0494
1180.00,0.0519
1177.00,0.0539
1174.00,0.0581
1171.00,0.0597
1168.00,0.0430
1165.00,0.0302
1162.00,0.0247
1159.00,0.0237
1156.00,0.0287
1153.00,0.0487
1150.00,0.0661
1147.00,0.0443
1144.00,0.0267
1141.00,0.0219
1138.00,0.0224
1135.00,0.0243
1132.00,0.0227
1129.00,0.0189
1126.00,0.0165
1123.00,0.0154
1120.00,0.0152
1117.00,0.0156
1114.00,0.0166
1111.00,0.0176
1108.00,0.0198
1105.00,0.0233
1102.00,0.0279
1099.00,0.0322
1096.00,0.0287
1093.00,0.0229
1090.00,0.0200
1087.00,0.0192
1084.00,0.0227
1081.00,0.0300
1078.00,0.0314
1075.00,0.0257
1072.00,0.0216
1069.00,0.0199
1066.00,0.0196
1063.00,0.0209
1060.00,0.0252
1057.00,0.0379
1054.00,0.0632
1051.00,0.0759
1048.00,0.0645
1045.00,0.0461
1042.00,0.0414
1039.00,0.0462
1036.00,0.0606
1033.00,0.0838
1030.00,0.0841
1027.00,0.0688
1024.00,0.0718
1021.00,0.0969
1018.00,0.1072
1015.00,0.0866
1012.00,0.0662
1009.00,0.0585
1006.00,0.0623
1003.00,0.0719
1000.00,0.0694
997.00,0.0521
994.00,0.0391
991.00,0.0364
988.00,0.0403
985.00,0.0434
982.00,0.0390
979.00,0.0327
976.00,0.0303
973.00,0.0287
970.00,0.0306
967.00,0.0355
964.00,0.0428
961.00,0.0485
958.00,0.0401
955.00,0.0288
952.00,0.0231
949.00,0.0207
946.00,0.0196
943.00,0.0187
940.00,0.0182
937.00,0.0182
934.00,0.0188
931.00,0.0206
928.00,0.0218
925.00,0.0219
922.00,0.0218
919.00,0.0234
916.00,0.0267
913.00,0.0272
910.00,0.0272
907.00,0.0323
904.00,0.0433
901.00,0.0630
898.00,0.0988
895.00,0.1102
892.00,0.0829
889.00,0.0696
886.00,0.0956
883.00,0.1283
880.00,0.0963
877.00,0.0607
874.00,0.0500
871.00,0.0548
868.00,0.0559
865.00,0.0561
862.00,0.0686
859.00,0.0691
856.00,0.0701
853.00,0.0768
850.00,0.0795
847.00,0.0712
844.00,0.0644
841.00,0.0598
838.00,0.0569
835.00,0.0607
832.00,0.0691
829.00,0.0761
826.00,0.0742
823.00,0.0606
820.00,0.0457
817.00,0.0358
814.00,0.0317
811.00,0.0304
808.00,0.0394
805.00,0.0625
802.00,0.0575
799.00,0.0398
796.00,0.0314
793.00,0.0295
790.00,0.0286
787.00,0.0282
784.00,0.0276
781.00,0.0250
778.00,0.0247
775.00,0.0241
772.00,0.0240
769.00,0.0239
766.00,0.0213
763.00,0.0191
760.00,0.0186
757.00,0.0198
754.00,0.0248
751.00,0.0306
748.00,0.0318
745.00,0.0257
742.00,0.0208
739.00,0.0194
736.00,0.0208
733.00,0.0260
730.00,0.0295
727.00,0.0250
724.00,0.0228
721.00,0.0220
718.00,0.0210
715.00,0.0186
712.00,0.0179
709.00,0.0172
706.00,0.0158
703.00,0.0151
700.00,0.0150
697.00,0.0149
694.00,0.0147
691.00,0.0147
688.00,0.0150
685.00,0.0154
682.00,0.0162
679.00,0.0172
676.00,0.0189
673.00,0.0221
670.00,0.0267
667.00,0.0308
664.00,0.0317
661.00,0.0325
658.00,0.0325
655.00,0.0310
652.00,0.0318
649.00,0.0348
646.00,0.0325
643.00,0.0274
640.00,0.0246
637.00,0.0245
634.00,0.0254
631.00,0.0271
628.00,0.0291
625.00,0.0313
622.00,0.0315
619.00,0.0275
616.00,0.0248
613.00,0.0316
610.00,0.0370
607.00,0.0353
604.00,0.0374
601.00,0.0403
598.00,0.0438
595.00,0.0435
592.00,0.0475
589.00,0.0565
586.00,0.0611
583.00,0.0558
580.00,0.0475
577.00,0.0428
574.00,0.0428
571.00,0.0437
568.00,0.0461
565.00,0.0481
562.00,0.0483
559.00,0.0484
556.00,0.0484
553.00,0.0506
550.00,0.0561
547.00,0.0597
544.00,0.0644
541.00,0.0662
538.00,0.0754
535.00,0.0826
532.00,0.0788
529.00,0.0758
526.00,0.0852
523.00,0.1028
520.00,0.0995
517.00,0.0737
514.00,0.0630
511.00,0.0623
508.00,0.0680
505.00,0.0783
502.00,0.0909
499.00,0.1029
496.00,0.1107
493.00,0.1116
490.00,0.1090
487.00,0.1077
484.00,0.1068
481.00,0.1015
478.00,0.0938
475.00,0.0907
472.00,0.0936
469.00,0.0996
466.00,0.1033
463.00,0.1027
460.00,0.1016
457.00,0.1018
454.00,0.1003
451.00,0.0974
448.00,0.0921
445.00,0.0870
442.00,0.0826
439.00,0.0800
436.00,0.0796
433.00,0.0797
430.00,0.0840
427.00,0.0966
424.00,0.1057
421.00,0.1036
418.00,0.1010
415.00,0.0988
412.00,0.1018
409.00,0.1097
406.00,0.1165
403.00,0.1201
400.00,0.1250