File: FTIR/Olivia/2025_08_01_1CBN_3PVP29_mortar_dry_scan3.csv
Created as New Dataset,Sample 1022 By YargerLab Date Friday, August 01 2025
cm-1,A
4000.00,0.0055
3997.00,0.0055
3994.00,0.0055
3991.00,0.0054
3988.00,0.0054
3985.00,0.0055
3982.00,0.0055
3979.00,0.0055
3976.00,0.0055
3973.00,0.0055
3970.00,0.0055
3967.00,0.0055
3964.00,0.0055
3961.00,0.0055
3958.00,0.0054
3955.00,0.0054
3952.00,0.0055
3949.00,0.0054
3946.00,0.0054
3943.00,0.0054
3940.00,0.0054
3937.00,0.0054
3934.00,0.0054
3931.00,0.0054
3928.00,0.0054
3925.00,0.0054
3922.00,0.0054
3919.00,0.0055
3916.00,0.0055
3913.00,0.0055
3910.00,0.0054
3907.00,0.0054
3904.00,0.0054
3901.00,0.0054
3898.00,0.0054
3895.00,0.0054
3892.00,0.0054
3889.00,0.0053
3886.00,0.0053
3883.00,0.0053
3880.00,0.0054
3877.00,0.0054
3874.00,0.0053
3871.00,0.0053
3868.00,0.0053
3865.00,0.0053
3862.00,0.0054
3859.00,0.0054
3856.00,0.0054
3853.00,0.0054
3850.00,0.0054
3847.00,0.0054
3844.00,0.0053
3841.00,0.0053
3838.00,0.0054
3835.00,0.0053
3832.00,0.0053
3829.00,0.0053
3826.00,0.0053
3823.00,0.0053
3820.00,0.0053
3817.00,0.0053
3814.00,0.0054
3811.00,0.0054
3808.00,0.0054
3805.00,0.0054
3802.00,0.0053
3799.00,0.0053
3796.00,0.0052
3793.00,0.0053
3790.00,0.0053
3787.00,0.0053
3784.00,0.0053
3781.00,0.0053
3778.00,0.0053
3775.00,0.0053
3772.00,0.0053
3769.00,0.0053
3766.00,0.0053
3763.00,0.0053
3760.00,0.0053
3757.00,0.0053
3754.00,0.0053
3751.00,0.0054
3748.00,0.0053
3745.00,0.0053
3742.00,0.0053
3739.00,0.0053
3736.00,0.0053
3733.00,0.0052
3730.00,0.0052
3727.00,0.0051
3724.00,0.0051
3721.00,0.0052
3718.00,0.0052
3715.00,0.0051
3712.00,0.0051
3709.00,0.0051
3706.00,0.0050
3703.00,0.0050
3700.00,0.0051
3697.00,0.0051
3694.00,0.0051
3691.00,0.0050
3688.00,0.0050
3685.00,0.0050
3682.00,0.0050
3679.00,0.0050
3676.00,0.0050
3673.00,0.0051
3670.00,0.0051
3667.00,0.0050
3664.00,0.0049
3661.00,0.0049
3658.00,0.0050
3655.00,0.0050
3652.00,0.0050
3649.00,0.0050
3646.00,0.0050
3643.00,0.0051
3640.00,0.0051
3637.00,0.0050
3634.00,0.0050
3631.00,0.0050
3628.00,0.0050
3625.00,0.0051
3622.00,0.0052
3619.00,0.0052
3616.00,0.0052
3613.00,0.0052
3610.00,0.0052
3607.00,0.0052
3604.00,0.0052
3601.00,0.0053
3598.00,0.0053
3595.00,0.0053
3592.00,0.0054
3589.00,0.0054
3586.00,0.0053
3583.00,0.0053
3580.00,0.0054
3577.00,0.0054
3574.00,0.0055
3571.00,0.0056
3568.00,0.0057
3565.00,0.0057
3562.00,0.0057
3559.00,0.0057
3556.00,0.0058
3553.00,0.0059
3550.00,0.0060
3547.00,0.0061
3544.00,0.0063
3541.00,0.0063
3538.00,0.0064
3535.00,0.0065
3532.00,0.0066
3529.00,0.0067
3526.00,0.0069
3523.00,0.0069
3520.00,0.0070
3517.00,0.0072
3514.00,0.0073
3511.00,0.0074
3508.00,0.0076
3505.00,0.0077
3502.00,0.0078
3499.00,0.0080
3496.00,0.0082
3493.00,0.0083
3490.00,0.0086
3487.00,0.0088
3484.00,0.0090
3481.00,0.0093
3478.00,0.0096
3475.00,0.0099
3472.00,0.0102
3469.00,0.0105
3466.00,0.0109
3463.00,0.0113
3460.00,0.0117
3457.00,0.0120
3454.00,0.0124
3451.00,0.0129
3448.00,0.0133
3445.00,0.0137
3442.00,0.0142
3439.00,0.0147
3436.00,0.0153
3433.00,0.0160
3430.00,0.0166
3427.00,0.0173
3424.00,0.0180
3421.00,0.0188
3418.00,0.0195
3415.00,0.0202
3412.00,0.0208
3409.00,0.0213
3406.00,0.0217
3403.00,0.0220
3400.00,0.0221
3397.00,0.0220
3394.00,0.0219
3391.00,0.0216
3388.00,0.0212
3385.00,0.0208
3382.00,0.0204
3379.00,0.0199
3376.00,0.0194
3373.00,0.0190
3370.00,0.0187
3367.00,0.0183
3364.00,0.0179
3361.00,0.0176
3358.00,0.0173
3355.00,0.0170
3352.00,0.0169
3349.00,0.0167
3346.00,0.0165
3343.00,0.0164
3340.00,0.0163
3337.00,0.0162
3334.00,0.0162
3331.00,0.0161
3328.00,0.0162
3325.00,0.0163
3322.00,0.0163
3319.00,0.0164
3316.00,0.0166
3313.00,0.0167
3310.00,0.0170
3307.00,0.0172
3304.00,0.0174
3301.00,0.0176
3298.00,0.0178
3295.00,0.0180
3292.00,0.0183
3289.00,0.0185
3286.00,0.0188
3283.00,0.0191
3280.00,0.0194
3277.00,0.0196
3274.00,0.0199
3271.00,0.0201
3268.00,0.0204
3265.00,0.0206
3262.00,0.0209
3259.00,0.0212
3256.00,0.0214
3253.00,0.0217
3250.00,0.0218
3247.00,0.0220
3244.00,0.0222
3241.00,0.0223
3238.00,0.0224
3235.00,0.0224
3232.00,0.0224
3229.00,0.0223
3226.00,0.0222
3223.00,0.0221
3220.00,0.0219
3217.00,0.0217
3214.00,0.0214
3211.00,0.0211
3208.00,0.0207
3205.00,0.0204
3202.00,0.0200
3199.00,0.0196
3196.00,0.0192
3193.00,0.0187
3190.00,0.0183
3187.00,0.0179
3184.00,0.0175
3181.00,0.0171
3178.00,0.0166
3175.00,0.0162
3172.00,0.0158
3169.00,0.0154
3166.00,0.0150
3163.00,0.0146
3160.00,0.0141
3157.00,0.0137
3154.00,0.0133
3151.00,0.0129
3148.00,0.0125
3145.00,0.0123
3142.00,0.0119
3139.00,0.0116
3136.00,0.0114
3133.00,0.0111
3130.00,0.0108
3127.00,0.0107
3124.00,0.0105
3121.00,0.0103
3118.00,0.0102
3115.00,0.0100
3112.00,0.0097
3109.00,0.0094
3106.00,0.0092
3103.00,0.0090
3100.00,0.0089
3097.00,0.0088
3094.00,0.0087
3091.00,0.0088
3088.00,0.0088
3085.00,0.0089
3082.00,0.0089
3079.00,0.0088
3076.00,0.0087
3073.00,0.0086
3070.00,0.0085
3067.00,0.0085
3064.00,0.0085
3061.00,0.0085
3058.00,0.0086
3055.00,0.0087
3052.00,0.0087
3049.00,0.0087
3046.00,0.0085
3043.00,0.0086
3040.00,0.0087
3037.00,0.0090
3034.00,0.0092
3031.00,0.0093
3028.00,0.0091
3025.00,0.0087
3022.00,0.0084
3019.00,0.0082
3016.00,0.0080
3013.00,0.0079
3010.00,0.0080
3007.00,0.0082
3004.00,0.0086
3001.00,0.0091
2998.00,0.0100
2995.00,0.0112
2992.00,0.0122
2989.00,0.0128
2986.00,0.0135
2983.00,0.0149
2980.00,0.0171
2977.00,0.0183
2974.00,0.0190
2971.00,0.0216
2968.00,0.0235
2965.00,0.0244
2962.00,0.0259
2959.00,0.0268
2956.00,0.0252
2953.00,0.0223
2950.00,0.0202
2947.00,0.0197
2944.00,0.0208
2941.00,0.0228
2938.00,0.0257
2935.00,0.0303
2932.00,0.0359
2929.00,0.0407
2926.00,0.0426
2923.00,0.0407
2920.00,0.0371
2917.00,0.0332
2914.00,0.0296
2911.00,0.0267
2908.00,0.0245
2905.00,0.0226
2902.00,0.0210
2899.00,0.0195
2896.00,0.0183
2893.00,0.0172
2890.00,0.0164
2887.00,0.0157
2884.00,0.0153
2881.00,0.0154
2878.00,0.0166
2875.00,0.0186
2872.00,0.0201
2869.00,0.0200
2866.00,0.0198
2863.00,0.0215
2860.00,0.0255
2857.00,0.0294
2854.00,0.0306
2851.00,0.0290
2848.00,0.0249
2845.00,0.0203
2842.00,0.0167
2839.00,0.0142
2836.00,0.0127
2833.00,0.0117
2830.00,0.0110
2827.00,0.0104
2824.00,0.0099
2821.00,0.0095
2818.00,0.0091
2815.00,0.0089
2812.00,0.0086
2809.00,0.0085
2806.00,0.0084
2803.00,0.0083
2800.00,0.0081
2797.00,0.0079
2794.00,0.0078
2791.00,0.0077
2788.00,0.0075
2785.00,0.0075
2782.00,0.0074
2779.00,0.0073
2776.00,0.0072
2773.00,0.0071
2770.00,0.0071
2767.00,0.0071
2764.00,0.0071
2761.00,0.0071
2758.00,0.0070
2755.00,0.0071
2752.00,0.0071
2749.00,0.0071
2746.00,0.0071
2743.00,0.0072
2740.00,0.0073
2737.00,0.0074
2734.00,0.0076
2731.00,0.0078
2728.00,0.0078
2725.00,0.0077
2722.00,0.0075
2719.00,0.0075
2716.00,0.0074
2713.00,0.0073
2710.00,0.0073
2707.00,0.0073
2704.00,0.0072
2701.00,0.0072
2698.00,0.0072
2695.00,0.0071
2692.00,0.0070
2689.00,0.0070
2686.00,0.0070
2683.00,0.0069
2680.00,0.0068
2677.00,0.0068
2674.00,0.0069
2671.00,0.0069
2668.00,0.0070
2665.00,0.0071
2662.00,0.0073
2659.00,0.0074
2656.00,0.0075
2653.00,0.0074
2650.00,0.0074
2647.00,0.0075
2644.00,0.0075
2641.00,0.0074
2638.00,0.0073
2635.00,0.0072
2632.00,0.0071
2629.00,0.0070
2626.00,0.0069
2623.00,0.0069
2620.00,0.0068
2617.00,0.0068
2614.00,0.0068
2611.00,0.0067
2608.00,0.0068
2605.00,0.0068
2602.00,0.0068
2599.00,0.0068
2596.00,0.0069
2593.00,0.0070
2590.00,0.0069
2587.00,0.0069
2584.00,0.0069
2581.00,0.0069
2578.00,0.0068
2575.00,0.0068
2572.00,0.0067
2569.00,0.0068
2566.00,0.0068
2563.00,0.0068
2560.00,0.0067
2557.00,0.0066
2554.00,0.0064
2551.00,0.0064
2548.00,0.0064
2545.00,0.0064
2542.00,0.0065
2539.00,0.0064
2536.00,0.0065
2533.00,0.0065
2530.00,0.0065
2527.00,0.0064
2524.00,0.0063
2521.00,0.0062
2518.00,0.0062
2515.00,0.0062
2512.00,0.0062
2509.00,0.0061
2506.00,0.0061
2503.00,0.0060
2500.00,0.0060
2497.00,0.0059
2494.00,0.0059
2491.00,0.0058
2488.00,0.0058
2485.00,0.0058
2482.00,0.0058
2479.00,0.0058
2476.00,0.0058
2473.00,0.0058
2470.00,0.0057
2467.00,0.0058
2464.00,0.0058
2461.00,0.0058
2458.00,0.0058
2455.00,0.0058
2452.00,0.0058
2449.00,0.0058
2446.00,0.0057
2443.00,0.0057
2440.00,0.0057
2437.00,0.0056
2434.00,0.0056
2431.00,0.0055
2428.00,0.0055
2425.00,0.0055
2422.00,0.0055
2419.00,0.0054
2416.00,0.0054
2413.00,0.0055
2410.00,0.0055
2407.00,0.0054
2404.00,0.0054
2401.00,0.0054
2398.00,0.0054
2395.00,0.0054
2392.00,0.0053
2389.00,0.0053
2386.00,0.0052
2383.00,0.0052
2380.00,0.0051
2377.00,0.0050
2374.00,0.0051
2371.00,0.0050
2368.00,0.0050
2365.00,0.0050
2362.00,0.0050
2359.00,0.0051
2356.00,0.0051
2353.00,0.0049
2350.00,0.0051
2347.00,0.0052
2344.00,0.0052
2341.00,0.0053
2338.00,0.0053
2335.00,0.0053
2332.00,0.0053
2329.00,0.0054
2326.00,0.0062
2323.00,0.0061
2320.00,0.0057
2317.00,0.0056
2314.00,0.0055
2311.00,0.0054
2308.00,0.0054
2305.00,0.0056
2302.00,0.0056
2299.00,0.0057
2296.00,0.0058
2293.00,0.0060
2290.00,0.0061
2287.00,0.0062
2284.00,0.0062
2281.00,0.0060
2278.00,0.0058
2275.00,0.0057
2272.00,0.0056
2269.00,0.0056
2266.00,0.0053
2263.00,0.0053
2260.00,0.0053
2257.00,0.0051
2254.00,0.0051
2251.00,0.0051
2248.00,0.0051
2245.00,0.0052
2242.00,0.0053
2239.00,0.0054
2236.00,0.0054
2233.00,0.0054
2230.00,0.0052
2227.00,0.0052
2224.00,0.0053
2221.00,0.0054
2218.00,0.0052
2215.00,0.0051
2212.00,0.0052
2209.00,0.0053
2206.00,0.0054
2203.00,0.0053
2200.00,0.0052
2197.00,0.0053
2194.00,0.0054
2191.00,0.0053
2188.00,0.0053
2185.00,0.0053
2182.00,0.0051
2179.00,0.0049
2176.00,0.0046
2173.00,0.0049
2170.00,0.0055
2167.00,0.0059
2164.00,0.0059
2161.00,0.0050
2158.00,0.0026
2155.00,0.0031
2152.00,0.0037
2149.00,0.0037
2146.00,0.0034
2143.00,0.0034
2140.00,0.0035
2137.00,0.0034
2134.00,0.0031
2131.00,0.0035
2128.00,0.0039
2125.00,0.0040
2122.00,0.0043
2119.00,0.0044
2116.00,0.0045
2113.00,0.0046
2110.00,0.0045
2107.00,0.0046
2104.00,0.0044
2101.00,0.0045
2098.00,0.0044
2095.00,0.0040
2092.00,0.0042
2089.00,0.0043
2086.00,0.0045
2083.00,0.0046
2080.00,0.0049
2077.00,0.0048
2074.00,0.0047
2071.00,0.0046
2068.00,0.0046
2065.00,0.0046
2062.00,0.0045
2059.00,0.0044
2056.00,0.0044
2053.00,0.0049
2050.00,0.0051
2047.00,0.0046
2044.00,0.0043
2041.00,0.0043
2038.00,0.0046
2035.00,0.0044
2032.00,0.0041
2029.00,0.0041
2026.00,0.0039
2023.00,0.0040
2020.00,0.0040
2017.00,0.0036
2014.00,0.0038
2011.00,0.0041
2008.00,0.0039
2005.00,0.0036
2002.00,0.0033
1999.00,0.0034
1996.00,0.0041
1993.00,0.0043
1990.00,0.0043
1987.00,0.0044
1984.00,0.0049
1981.00,0.0054
1978.00,0.0043
1975.00,0.0035
1972.00,0.0033
1969.00,0.0034
1966.00,0.0037
1963.00,0.0035
1960.00,0.0032
1957.00,0.0034
1954.00,0.0036
1951.00,0.0037
1948.00,0.0038
1945.00,0.0038
1942.00,0.0038
1939.00,0.0037
1936.00,0.0039
1933.00,0.0039
1930.00,0.0039
1927.00,0.0041
1924.00,0.0042
1921.00,0.0043
1918.00,0.0043
1915.00,0.0043
1912.00,0.0046
1909.00,0.0054
1906.00,0.0053
1903.00,0.0047
1900.00,0.0045
1897.00,0.0045
1894.00,0.0047
1891.00,0.0046
1888.00,0.0044
1885.00,0.0044
1882.00,0.0043
1879.00,0.0043
1876.00,0.0043
1873.00,0.0043
1870.00,0.0043
1867.00,0.0043
1864.00,0.0043
1861.00,0.0044
1858.00,0.0044
1855.00,0.0045
1852.00,0.0045
1849.00,0.0046
1846.00,0.0048
1843.00,0.0048
1840.00,0.0046
1837.00,0.0044
1834.00,0.0043
1831.00,0.0042
1828.00,0.0044
1825.00,0.0044
1822.00,0.0044
1819.00,0.0043
1816.00,0.0043
1813.00,0.0043
1810.00,0.0043
1807.00,0.0044
1804.00,0.0044
1801.00,0.0045
1798.00,0.0047
1795.00,0.0046
1792.00,0.0047
1789.00,0.0047
1786.00,0.0047
1783.00,0.0047
1780.00,0.0047
1777.00,0.0048
1774.00,0.0049
1771.00,0.0050
1768.00,0.0050
1765.00,0.0048
1762.00,0.0049
1759.00,0.0050
1756.00,0.0049
1753.00,0.0046
1750.00,0.0044
1747.00,0.0045
1744.00,0.0044
1741.00,0.0043
1738.00,0.0044
1735.00,0.0044
1732.00,0.0047
1729.00,0.0050
1726.00,0.0052
1723.00,0.0055
1720.00,0.0055
1717.00,0.0057
1714.00,0.0060
1711.00,0.0063
1708.00,0.0062
1705.00,0.0061
1702.00,0.0061
1699.00,0.0057
1696.00,0.0055
1693.00,0.0048
1690.00,0.0043
1687.00,0.0040
1684.00,0.0033
1681.00,0.0035
1678.00,0.0045
1675.00,0.0055
1672.00,0.0067
1669.00,0.0077
1666.00,0.0092
1663.00,0.0107
1660.00,0.0119
1657.00,0.0138
1654.00,0.0158
1651.00,0.0155
1648.00,0.0180
1645.00,0.0185
1642.00,0.0202
1639.00,0.0213
1636.00,0.0215
1633.00,0.0228
1630.00,0.0288
1627.00,0.0398
1624.00,0.0502
1621.00,0.0545
1618.00,0.0528
1615.00,0.0419
1612.00,0.0417
1609.00,0.0410
1606.00,0.0349
1603.00,0.0279
1600.00,0.0224
1597.00,0.0198
1594.00,0.0202
1591.00,0.0248
1588.00,0.0333
1585.00,0.0405
1582.00,0.0420
1579.00,0.0394
1576.00,0.0329
1573.00,0.0277
1570.00,0.0256
1567.00,0.0230
1564.00,0.0194
1561.00,0.0165
1558.00,0.0124
1555.00,0.0115
1552.00,0.0109
1549.00,0.0105
1546.00,0.0101
1543.00,0.0094
1540.00,0.0091
1537.00,0.0090
1534.00,0.0089
1531.00,0.0088
1528.00,0.0087
1525.00,0.0089
1522.00,0.0094
1519.00,0.0101
1516.00,0.0115
1513.00,0.0131
1510.00,0.0141
1507.00,0.0143
1504.00,0.0148
1501.00,0.0171
1498.00,0.0237
1495.00,0.0286
1492.00,0.0248
1489.00,0.0179
1486.00,0.0144
1483.00,0.0128
1480.00,0.0121
1477.00,0.0121
1474.00,0.0130
1471.00,0.0170
1468.00,0.0243
1465.00,0.0289
1462.00,0.0281
1459.00,0.0291
1456.00,0.0266
1453.00,0.0254
1450.00,0.0261
1447.00,0.0275
1444.00,0.0306
1441.00,0.0341
1438.00,0.0367
1435.00,0.0378
1432.00,0.0417
1429.00,0.0434
1426.00,0.0427
1423.00,0.0401
1420.00,0.0381
1417.00,0.0332
1414.00,0.0311
1411.00,0.0308
1408.00,0.0341
1405.00,0.0409
1402.00,0.0480
1399.00,0.0497
1396.00,0.0443
1393.00,0.0355
1390.00,0.0315
1387.00,0.0337
1384.00,0.0325
1381.00,0.0307
1378.00,0.0308
1375.00,0.0277
1372.00,0.0230
1369.00,0.0246
1366.00,0.0316
1363.00,0.0352
1360.00,0.0400
1357.00,0.0369
1354.00,0.0313
1351.00,0.0297
1348.00,0.0301
1345.00,0.0297
1342.00,0.0271
1339.00,0.0235
1336.00,0.0216
1333.00,0.0226
1330.00,0.0243
1327.00,0.0245
1324.00,0.0234
1321.00,0.0227
1318.00,0.0219
1315.00,0.0203
1312.00,0.0196
1309.00,0.0211
1306.00,0.0253
1303.00,0.0328
1300.00,0.0380
1297.00,0.0360
1294.00,0.0347
1291.00,0.0334
1288.00,0.0339
1285.00,0.0379
1282.00,0.0396
1279.00,0.0351
1276.00,0.0293
1273.00,0.0257
1270.00,0.0232
1267.00,0.0215
1264.00,0.0201
1261.00,0.0184
1258.00,0.0171
1255.00,0.0165
1252.00,0.0169
1249.00,0.0192
1246.00,0.0235
1243.00,0.0275
1240.00,0.0299
1237.00,0.0344
1234.00,0.0395
1231.00,0.0386
1228.00,0.0329
1225.00,0.0282
1222.00,0.0260
1219.00,0.0264
1216.00,0.0291
1213.00,0.0300
1210.00,0.0263
1207.00,0.0223
1204.00,0.0222
1201.00,0.0268
1198.00,0.0346
1195.00,0.0422
1192.00,0.0418
1189.00,0.0347
1186.00,0.0265
1183.00,0.0208
1180.00,0.0177
1177.00,0.0162
1174.00,0.0155
1171.00,0.0152
1168.00,0.0152
1165.00,0.0158
1162.00,0.0184
1159.00,0.0261
1156.00,0.0398
1153.00,0.0428
1150.00,0.0296
1147.00,0.0196
1144.00,0.0164
1141.00,0.0160
1138.00,0.0175
1135.00,0.0229
1132.00,0.0360
1129.00,0.0508
1126.00,0.0517
1123.00,0.0418
1120.00,0.0304
1117.00,0.0247
1114.00,0.0235
1111.00,0.0218
1108.00,0.0199
1105.00,0.0212
1102.00,0.0287
1099.00,0.0351
1096.00,0.0291
1093.00,0.0203
1090.00,0.0159
1087.00,0.0141
1084.00,0.0134
1081.00,0.0134
1078.00,0.0136
1075.00,0.0141
1072.00,0.0152
1069.00,0.0169
1066.00,0.0193
1063.00,0.0235
1060.00,0.0329
1057.00,0.0503
1054.00,0.0664
1051.00,0.0711
1048.00,0.0686
1045.00,0.0580
1042.00,0.0442
1039.00,0.0350
1036.00,0.0332
1033.00,0.0356
1030.00,0.0458
1027.00,0.0599
1024.00,0.0545
1021.00,0.0389
1018.00,0.0283
1015.00,0.0226
1012.00,0.0200
1009.00,0.0211
1006.00,0.0266
1003.00,0.0310
1000.00,0.0295
997.00,0.0266
994.00,0.0249
991.00,0.0222
988.00,0.0185
985.00,0.0161
982.00,0.0149
979.00,0.0145
976.00,0.0146
973.00,0.0145
970.00,0.0142
967.00,0.0141
964.00,0.0147
961.00,0.0149
958.00,0.0128
955.00,0.0111
952.00,0.0103
949.00,0.0111
946.00,0.0116
943.00,0.0117
940.00,0.0134
937.00,0.0148
934.00,0.0159
931.00,0.0164
928.00,0.0153
925.00,0.0159
922.00,0.0186
919.00,0.0175
916.00,0.0133
913.00,0.0112
910.00,0.0105
907.00,0.0107
904.00,0.0124
901.00,0.0168
898.00,0.0192
895.00,0.0162
892.00,0.0172
889.00,0.0198
886.00,0.0144
883.00,0.0126
880.00,0.0138
877.00,0.0187
874.00,0.0291
871.00,0.0413
868.00,0.0436
865.00,0.0356
862.00,0.0272
859.00,0.0217
856.00,0.0238
853.00,0.0300
850.00,0.0353
847.00,0.0352
844.00,0.0288
841.00,0.0249
838.00,0.0271
835.00,0.0347
832.00,0.0373
829.00,0.0306
826.00,0.0221
823.00,0.0264
820.00,0.0441
817.00,0.0496
814.00,0.0478
811.00,0.0278
808.00,0.0183
805.00,0.0150
802.00,0.0134
799.00,0.0127
796.00,0.0124
793.00,0.0121
790.00,0.0119
787.00,0.0120
784.00,0.0120
781.00,0.0123
778.00,0.0134
775.00,0.0170
772.00,0.0166
769.00,0.0141
766.00,0.0136
763.00,0.0144
760.00,0.0161
757.00,0.0160
754.00,0.0151
751.00,0.0151
748.00,0.0154
745.00,0.0161
742.00,0.0175
739.00,0.0213
736.00,0.0301
733.00,0.0329
730.00,0.0302
727.00,0.0297
724.00,0.0239
721.00,0.0205
718.00,0.0218
715.00,0.0251
712.00,0.0244
709.00,0.0223
706.00,0.0216
703.00,0.0224
700.00,0.0243
697.00,0.0253
694.00,0.0240
691.00,0.0249
688.00,0.0284
685.00,0.0268
682.00,0.0248
679.00,0.0254
676.00,0.0274
673.00,0.0310
670.00,0.0333
667.00,0.0313
664.00,0.0314
661.00,0.0325
658.00,0.0303
655.00,0.0276
652.00,0.0265
649.00,0.0261
646.00,0.0259
643.00,0.0254
640.00,0.0252
637.00,0.0250
634.00,0.0249
631.00,0.0249
628.00,0.0256
625.00,0.0269
622.00,0.0291
619.00,0.0304
616.00,0.0281
613.00,0.0250
610.00,0.0249
607.00,0.0293
604.00,0.0359
601.00,0.0385
598.00,0.0383
595.00,0.0378
592.00,0.0370
589.00,0.0358
586.00,0.0349
583.00,0.0348
580.00,0.0364
577.00,0.0407
574.00,0.0397
571.00,0.0345
568.00,0.0316
565.00,0.0327
562.00,0.0365
559.00,0.0397
556.00,0.0371
553.00,0.0347
550.00,0.0364
547.00,0.0411
544.00,0.0412
541.00,0.0379
538.00,0.0353
535.00,0.0352
532.00,0.0392
529.00,0.0389
526.00,0.0340
523.00,0.0302
520.00,0.0284
517.00,0.0271
514.00,0.0266
511.00,0.0268
508.00,0.0274
505.00,0.0284
502.00,0.0271
499.00,0.0256
496.00,0.0259
493.00,0.0271
490.00,0.0274
487.00,0.0257
484.00,0.0247
481.00,0.0240
478.00,0.0233
475.00,0.0231
472.00,0.0231
469.00,0.0226
466.00,0.0214
463.00,0.0217
460.00,0.0212
457.00,0.0213
454.00,0.0216
451.00,0.0213
448.00,0.0212
445.00,0.0206
442.00,0.0210
439.00,0.0212
436.00,0.0203
433.00,0.0194
430.00,0.0188
427.00,0.0184
424.00,0.0179
421.00,0.0173
418.00,0.0167
415.00,0.0177
412.00,0.0211
409.00,0.0227
406.00,0.0196
403.00,0.0173
400.00,0.0166