File: FTIR/Olivia/2025_08_05_silicon_dish_scan2.csv
Created as New Dataset,Sample 1073 By YargerLab Date Tuesday, August 05 2025
cm-1,A
4000.00,0.0007
3997.00,0.0007
3994.00,0.0007
3991.00,0.0007
3988.00,0.0007
3985.00,0.0007
3982.00,0.0006
3979.00,0.0006
3976.00,0.0006
3973.00,0.0006
3970.00,0.0006
3967.00,0.0006
3964.00,0.0006
3961.00,0.0007
3958.00,0.0007
3955.00,0.0006
3952.00,0.0006
3949.00,0.0006
3946.00,0.0006
3943.00,0.0006
3940.00,0.0006
3937.00,0.0006
3934.00,0.0006
3931.00,0.0006
3928.00,0.0006
3925.00,0.0006
3922.00,0.0006
3919.00,0.0006
3916.00,0.0006
3913.00,0.0006
3910.00,0.0006
3907.00,0.0006
3904.00,0.0006
3901.00,0.0006
3898.00,0.0006
3895.00,0.0006
3892.00,0.0006
3889.00,0.0006
3886.00,0.0006
3883.00,0.0006
3880.00,0.0006
3877.00,0.0005
3874.00,0.0006
3871.00,0.0006
3868.00,0.0005
3865.00,0.0006
3862.00,0.0006
3859.00,0.0006
3856.00,0.0006
3853.00,0.0006
3850.00,0.0006
3847.00,0.0006
3844.00,0.0007
3841.00,0.0006
3838.00,0.0006
3835.00,0.0007
3832.00,0.0007
3829.00,0.0007
3826.00,0.0008
3823.00,0.0007
3820.00,0.0007
3817.00,0.0006
3814.00,0.0006
3811.00,0.0007
3808.00,0.0007
3805.00,0.0007
3802.00,0.0008
3799.00,0.0007
3796.00,0.0008
3793.00,0.0009
3790.00,0.0010
3787.00,0.0010
3784.00,0.0011
3781.00,0.0011
3778.00,0.0011
3775.00,0.0012
3772.00,0.0013
3769.00,0.0013
3766.00,0.0012
3763.00,0.0012
3760.00,0.0012
3757.00,0.0012
3754.00,0.0012
3751.00,0.0012
3748.00,0.0011
3745.00,0.0010
3742.00,0.0010
3739.00,0.0011
3736.00,0.0011
3733.00,0.0011
3730.00,0.0012
3727.00,0.0013
3724.00,0.0014
3721.00,0.0015
3718.00,0.0016
3715.00,0.0017
3712.00,0.0018
3709.00,0.0019
3706.00,0.0020
3703.00,0.0023
3700.00,0.0025
3697.00,0.0026
3694.00,0.0027
3691.00,0.0028
3688.00,0.0029
3685.00,0.0032
3682.00,0.0034
3679.00,0.0036
3676.00,0.0038
3673.00,0.0041
3670.00,0.0044
3667.00,0.0047
3664.00,0.0050
3661.00,0.0052
3658.00,0.0053
3655.00,0.0055
3652.00,0.0056
3649.00,0.0057
3646.00,0.0058
3643.00,0.0060
3640.00,0.0061
3637.00,0.0061
3634.00,0.0061
3631.00,0.0061
3628.00,0.0062
3625.00,0.0062
3622.00,0.0062
3619.00,0.0063
3616.00,0.0063
3613.00,0.0063
3610.00,0.0064
3607.00,0.0065
3604.00,0.0066
3601.00,0.0066
3598.00,0.0067
3595.00,0.0069
3592.00,0.0069
3589.00,0.0070
3586.00,0.0070
3583.00,0.0071
3580.00,0.0072
3577.00,0.0072
3574.00,0.0073
3571.00,0.0073
3568.00,0.0074
3565.00,0.0076
3562.00,0.0077
3559.00,0.0078
3556.00,0.0079
3553.00,0.0079
3550.00,0.0080
3547.00,0.0082
3544.00,0.0084
3541.00,0.0085
3538.00,0.0087
3535.00,0.0088
3532.00,0.0089
3529.00,0.0090
3526.00,0.0092
3523.00,0.0093
3520.00,0.0094
3517.00,0.0096
3514.00,0.0097
3511.00,0.0098
3508.00,0.0099
3505.00,0.0100
3502.00,0.0101
3499.00,0.0103
3496.00,0.0104
3493.00,0.0106
3490.00,0.0107
3487.00,0.0108
3484.00,0.0108
3481.00,0.0109
3478.00,0.0111
3475.00,0.0112
3472.00,0.0113
3469.00,0.0114
3466.00,0.0115
3463.00,0.0115
3460.00,0.0116
3457.00,0.0117
3454.00,0.0118
3451.00,0.0118
3448.00,0.0118
3445.00,0.0120
3442.00,0.0120
3439.00,0.0121
3436.00,0.0122
3433.00,0.0122
3430.00,0.0123
3427.00,0.0123
3424.00,0.0123
3421.00,0.0123
3418.00,0.0124
3415.00,0.0125
3412.00,0.0125
3409.00,0.0124
3406.00,0.0125
3403.00,0.0126
3400.00,0.0126
3397.00,0.0126
3394.00,0.0126
3391.00,0.0126
3388.00,0.0126
3385.00,0.0125
3382.00,0.0126
3379.00,0.0126
3376.00,0.0125
3373.00,0.0125
3370.00,0.0126
3367.00,0.0125
3364.00,0.0125
3361.00,0.0124
3358.00,0.0124
3355.00,0.0124
3352.00,0.0124
3349.00,0.0124
3346.00,0.0124
3343.00,0.0123
3340.00,0.0123
3337.00,0.0123
3334.00,0.0123
3331.00,0.0123
3328.00,0.0122
3325.00,0.0121
3322.00,0.0120
3319.00,0.0120
3316.00,0.0120
3313.00,0.0120
3310.00,0.0119
3307.00,0.0119
3304.00,0.0119
3301.00,0.0119
3298.00,0.0119
3295.00,0.0118
3292.00,0.0118
3289.00,0.0118
3286.00,0.0118
3283.00,0.0118
3280.00,0.0117
3277.00,0.0117
3274.00,0.0116
3271.00,0.0116
3268.00,0.0116
3265.00,0.0115
3262.00,0.0115
3259.00,0.0115
3256.00,0.0114
3253.00,0.0114
3250.00,0.0113
3247.00,0.0113
3244.00,0.0112
3241.00,0.0112
3238.00,0.0112
3235.00,0.0111
3232.00,0.0111
3229.00,0.0111
3226.00,0.0110
3223.00,0.0109
3220.00,0.0108
3217.00,0.0108
3214.00,0.0107
3211.00,0.0107
3208.00,0.0106
3205.00,0.0105
3202.00,0.0105
3199.00,0.0104
3196.00,0.0104
3193.00,0.0103
3190.00,0.0102
3187.00,0.0101
3184.00,0.0100
3181.00,0.0100
3178.00,0.0100
3175.00,0.0098
3172.00,0.0098
3169.00,0.0098
3166.00,0.0097
3163.00,0.0096
3160.00,0.0096
3157.00,0.0095
3154.00,0.0094
3151.00,0.0094
3148.00,0.0093
3145.00,0.0093
3142.00,0.0093
3139.00,0.0093
3136.00,0.0092
3133.00,0.0092
3130.00,0.0091
3127.00,0.0091
3124.00,0.0091
3121.00,0.0090
3118.00,0.0090
3115.00,0.0090
3112.00,0.0089
3109.00,0.0089
3106.00,0.0088
3103.00,0.0088
3100.00,0.0087
3097.00,0.0086
3094.00,0.0086
3091.00,0.0085
3088.00,0.0084
3085.00,0.0083
3082.00,0.0083
3079.00,0.0082
3076.00,0.0082
3073.00,0.0081
3070.00,0.0081
3067.00,0.0081
3064.00,0.0080
3061.00,0.0080
3058.00,0.0079
3055.00,0.0079
3052.00,0.0078
3049.00,0.0078
3046.00,0.0077
3043.00,0.0076
3040.00,0.0076
3037.00,0.0075
3034.00,0.0074
3031.00,0.0074
3028.00,0.0074
3025.00,0.0074
3022.00,0.0074
3019.00,0.0073
3016.00,0.0074
3013.00,0.0074
3010.00,0.0074
3007.00,0.0075
3004.00,0.0076
3001.00,0.0078
2998.00,0.0081
2995.00,0.0085
2992.00,0.0092
2989.00,0.0101
2986.00,0.0114
2983.00,0.0133
2980.00,0.0164
2977.00,0.0216
2974.00,0.0294
2971.00,0.0408
2968.00,0.0551
2965.00,0.0678
2962.00,0.0700
2959.00,0.0588
2956.00,0.0429
2953.00,0.0303
2950.00,0.0223
2947.00,0.0173
2944.00,0.0142
2941.00,0.0121
2938.00,0.0104
2935.00,0.0093
2932.00,0.0084
2929.00,0.0076
2926.00,0.0071
2923.00,0.0068
2920.00,0.0068
2917.00,0.0072
2914.00,0.0084
2911.00,0.0101
2908.00,0.0115
2905.00,0.0119
2902.00,0.0111
2899.00,0.0098
2896.00,0.0086
2893.00,0.0077
2890.00,0.0070
2887.00,0.0066
2884.00,0.0063
2881.00,0.0060
2878.00,0.0058
2875.00,0.0055
2872.00,0.0052
2869.00,0.0050
2866.00,0.0047
2863.00,0.0045
2860.00,0.0042
2857.00,0.0040
2854.00,0.0037
2851.00,0.0033
2848.00,0.0033
2845.00,0.0037
2842.00,0.0041
2839.00,0.0041
2836.00,0.0041
2833.00,0.0042
2830.00,0.0042
2827.00,0.0041
2824.00,0.0041
2821.00,0.0042
2818.00,0.0042
2815.00,0.0042
2812.00,0.0041
2809.00,0.0041
2806.00,0.0041
2803.00,0.0041
2800.00,0.0040
2797.00,0.0040
2794.00,0.0039
2791.00,0.0038
2788.00,0.0036
2785.00,0.0034
2782.00,0.0033
2779.00,0.0031
2776.00,0.0029
2773.00,0.0028
2770.00,0.0028
2767.00,0.0027
2764.00,0.0026
2761.00,0.0025
2758.00,0.0024
2755.00,0.0024
2752.00,0.0024
2749.00,0.0024
2746.00,0.0023
2743.00,0.0023
2740.00,0.0022
2737.00,0.0022
2734.00,0.0021
2731.00,0.0022
2728.00,0.0021
2725.00,0.0021
2722.00,0.0020
2719.00,0.0020
2716.00,0.0021
2713.00,0.0020
2710.00,0.0020
2707.00,0.0020
2704.00,0.0020
2701.00,0.0020
2698.00,0.0020
2695.00,0.0020
2692.00,0.0019
2689.00,0.0019
2686.00,0.0019
2683.00,0.0019
2680.00,0.0019
2677.00,0.0019
2674.00,0.0020
2671.00,0.0020
2668.00,0.0020
2665.00,0.0020
2662.00,0.0020
2659.00,0.0020
2656.00,0.0019
2653.00,0.0018
2650.00,0.0018
2647.00,0.0017
2644.00,0.0016
2641.00,0.0016
2638.00,0.0015
2635.00,0.0014
2632.00,0.0014
2629.00,0.0014
2626.00,0.0014
2623.00,0.0013
2620.00,0.0013
2617.00,0.0013
2614.00,0.0012
2611.00,0.0012
2608.00,0.0012
2605.00,0.0012
2602.00,0.0011
2599.00,0.0011
2596.00,0.0011
2593.00,0.0011
2590.00,0.0011
2587.00,0.0011
2584.00,0.0011
2581.00,0.0011
2578.00,0.0010
2575.00,0.0010
2572.00,0.0011
2569.00,0.0011
2566.00,0.0011
2563.00,0.0011
2560.00,0.0011
2557.00,0.0011
2554.00,0.0011
2551.00,0.0011
2548.00,0.0011
2545.00,0.0011
2542.00,0.0011
2539.00,0.0011
2536.00,0.0011
2533.00,0.0012
2530.00,0.0012
2527.00,0.0013
2524.00,0.0014
2521.00,0.0013
2518.00,0.0013
2515.00,0.0014
2512.00,0.0014
2509.00,0.0014
2506.00,0.0014
2503.00,0.0015
2500.00,0.0015
2497.00,0.0014
2494.00,0.0013
2491.00,0.0012
2488.00,0.0012
2485.00,0.0011
2482.00,0.0012
2479.00,0.0011
2476.00,0.0011
2473.00,0.0011
2470.00,0.0011
2467.00,0.0010
2464.00,0.0010
2461.00,0.0011
2458.00,0.0010
2455.00,0.0010
2452.00,0.0011
2449.00,0.0010
2446.00,0.0010
2443.00,0.0010
2440.00,0.0009
2437.00,0.0009
2434.00,0.0010
2431.00,0.0010
2428.00,0.0010
2425.00,0.0010
2422.00,0.0010
2419.00,0.0010
2416.00,0.0010
2413.00,0.0009
2410.00,0.0009
2407.00,0.0010
2404.00,0.0010
2401.00,0.0010
2398.00,0.0010
2395.00,0.0010
2392.00,0.0010
2389.00,0.0010
2386.00,0.0010
2383.00,0.0010
2380.00,0.0011
2377.00,0.0010
2374.00,0.0010
2371.00,0.0010
2368.00,0.0011
2365.00,0.0011
2362.00,0.0011
2359.00,0.0011
2356.00,0.0011
2353.00,0.0012
2350.00,0.0012
2347.00,0.0012
2344.00,0.0012
2341.00,0.0011
2338.00,0.0012
2335.00,0.0012
2332.00,0.0012
2329.00,0.0012
2326.00,0.0013
2323.00,0.0013
2320.00,0.0012
2317.00,0.0012
2314.00,0.0012
2311.00,0.0011
2308.00,0.0011
2305.00,0.0011
2302.00,0.0011
2299.00,0.0010
2296.00,0.0010
2293.00,0.0010
2290.00,0.0010
2287.00,0.0009
2284.00,0.0009
2281.00,0.0009
2278.00,0.0008
2275.00,0.0007
2272.00,0.0007
2269.00,0.0006
2266.00,0.0006
2263.00,0.0005
2260.00,0.0006
2257.00,0.0005
2254.00,0.0004
2251.00,0.0004
2248.00,0.0004
2245.00,0.0004
2242.00,0.0003
2239.00,0.0002
2236.00,0.0002
2233.00,0.0002
2230.00,0.0000
2227.00,0.0001
2224.00,0.0002
2221.00,0.0000
2218.00,-0.0005
2215.00,-0.0004
2212.00,-0.0004
2209.00,-0.0004
2206.00,-0.0005
2203.00,-0.0005
2200.00,-0.0007
2197.00,-0.0008
2194.00,-0.0008
2191.00,-0.0010
2188.00,-0.0013
2185.00,-0.0015
2182.00,-0.0014
2179.00,-0.0014
2176.00,-0.0018
2173.00,-0.0015
2170.00,-0.0012
2167.00,-0.0017
2164.00,-0.0023
2161.00,-0.0027
2158.00,-0.0029
2155.00,-0.0025
2152.00,-0.0020
2149.00,-0.0017
2146.00,-0.0015
2143.00,-0.0014
2140.00,-0.0014
2137.00,-0.0012
2134.00,-0.0009
2131.00,-0.0007
2128.00,-0.0007
2125.00,-0.0005
2122.00,-0.0003
2119.00,-0.0002
2116.00,-0.0003
2113.00,-0.0004
2110.00,-0.0005
2107.00,-0.0004
2104.00,-0.0004
2101.00,-0.0003
2098.00,-0.0003
2095.00,-0.0004
2092.00,-0.0004
2089.00,-0.0005
2086.00,-0.0006
2083.00,-0.0005
2080.00,-0.0007
2077.00,-0.0009
2074.00,-0.0010
2071.00,-0.0009
2068.00,-0.0010
2065.00,-0.0011
2062.00,-0.0013
2059.00,-0.0012
2056.00,-0.0015
2053.00,-0.0015
2050.00,-0.0018
2047.00,-0.0023
2044.00,-0.0030
2041.00,-0.0036
2038.00,-0.0041
2035.00,-0.0047
2032.00,-0.0049
2029.00,-0.0050
2026.00,-0.0052
2023.00,-0.0053
2020.00,-0.0050
2017.00,-0.0051
2014.00,-0.0050
2011.00,-0.0049
2008.00,-0.0047
2005.00,-0.0043
2002.00,-0.0037
1999.00,-0.0035
1996.00,-0.0032
1993.00,-0.0034
1990.00,-0.0034
1987.00,-0.0029
1984.00,-0.0026
1981.00,-0.0032
1978.00,-0.0037
1975.00,-0.0031
1972.00,-0.0024
1969.00,-0.0021
1966.00,-0.0015
1963.00,-0.0010
1960.00,-0.0006
1957.00,0.0000
1954.00,0.0005
1951.00,0.0008
1948.00,0.0011
1945.00,0.0013
1942.00,0.0016
1939.00,0.0017
1936.00,0.0016
1933.00,0.0016
1930.00,0.0017
1927.00,0.0017
1924.00,0.0017
1921.00,0.0018
1918.00,0.0019
1915.00,0.0021
1912.00,0.0021
1909.00,0.0022
1906.00,0.0021
1903.00,0.0023
1900.00,0.0024
1897.00,0.0024
1894.00,0.0026
1891.00,0.0027
1888.00,0.0028
1885.00,0.0029
1882.00,0.0030
1879.00,0.0031
1876.00,0.0031
1873.00,0.0031
1870.00,0.0031
1867.00,0.0032
1864.00,0.0032
1861.00,0.0031
1858.00,0.0030
1855.00,0.0030
1852.00,0.0030
1849.00,0.0029
1846.00,0.0029
1843.00,0.0028
1840.00,0.0028
1837.00,0.0028
1834.00,0.0028
1831.00,0.0028
1828.00,0.0028
1825.00,0.0027
1822.00,0.0027
1819.00,0.0029
1816.00,0.0029
1813.00,0.0029
1810.00,0.0030
1807.00,0.0032
1804.00,0.0032
1801.00,0.0033
1798.00,0.0033
1795.00,0.0035
1792.00,0.0035
1789.00,0.0035
1786.00,0.0036
1783.00,0.0038
1780.00,0.0038
1777.00,0.0039
1774.00,0.0039
1771.00,0.0039
1768.00,0.0039
1765.00,0.0039
1762.00,0.0039
1759.00,0.0039
1756.00,0.0039
1753.00,0.0038
1750.00,0.0039
1747.00,0.0040
1744.00,0.0040
1741.00,0.0041
1738.00,0.0041
1735.00,0.0042
1732.00,0.0044
1729.00,0.0045
1726.00,0.0047
1723.00,0.0048
1720.00,0.0049
1717.00,0.0050
1714.00,0.0051
1711.00,0.0052
1708.00,0.0053
1705.00,0.0055
1702.00,0.0057
1699.00,0.0060
1696.00,0.0064
1693.00,0.0067
1690.00,0.0070
1687.00,0.0074
1684.00,0.0078
1681.00,0.0079
1678.00,0.0082
1675.00,0.0084
1672.00,0.0087
1669.00,0.0089
1666.00,0.0091
1663.00,0.0094
1660.00,0.0096
1657.00,0.0097
1654.00,0.0099
1651.00,0.0103
1648.00,0.0104
1645.00,0.0106
1642.00,0.0107
1639.00,0.0108
1636.00,0.0110
1633.00,0.0111
1630.00,0.0112
1627.00,0.0111
1624.00,0.0110
1621.00,0.0109
1618.00,0.0106
1615.00,0.0104
1612.00,0.0101
1609.00,0.0097
1606.00,0.0092
1603.00,0.0089
1600.00,0.0085
1597.00,0.0083
1594.00,0.0080
1591.00,0.0078
1588.00,0.0076
1585.00,0.0074
1582.00,0.0073
1579.00,0.0072
1576.00,0.0070
1573.00,0.0068
1570.00,0.0066
1567.00,0.0064
1564.00,0.0063
1561.00,0.0061
1558.00,0.0058
1555.00,0.0060
1552.00,0.0061
1549.00,0.0062
1546.00,0.0063
1543.00,0.0064
1540.00,0.0064
1537.00,0.0064
1534.00,0.0064
1531.00,0.0063
1528.00,0.0063
1525.00,0.0063
1522.00,0.0064
1519.00,0.0063
1516.00,0.0063
1513.00,0.0063
1510.00,0.0063
1507.00,0.0064
1504.00,0.0065
1501.00,0.0065
1498.00,0.0066
1495.00,0.0067
1492.00,0.0068
1489.00,0.0070
1486.00,0.0072
1483.00,0.0073
1480.00,0.0074
1477.00,0.0074
1474.00,0.0074
1471.00,0.0074
1468.00,0.0074
1465.00,0.0075
1462.00,0.0077
1459.00,0.0082
1456.00,0.0091
1453.00,0.0100
1450.00,0.0111
1447.00,0.0119
1444.00,0.0120
1441.00,0.0115
1438.00,0.0111
1435.00,0.0107
1432.00,0.0108
1429.00,0.0113
1426.00,0.0123
1423.00,0.0141
1420.00,0.0165
1417.00,0.0201
1414.00,0.0219
1411.00,0.0219
1408.00,0.0206
1405.00,0.0195
1402.00,0.0192
1399.00,0.0184
1396.00,0.0165
1393.00,0.0139
1390.00,0.0122
1387.00,0.0110
1384.00,0.0102
1381.00,0.0097
1378.00,0.0094
1375.00,0.0092
1372.00,0.0092
1369.00,0.0091
1366.00,0.0090
1363.00,0.0090
1360.00,0.0089
1357.00,0.0089
1354.00,0.0090
1351.00,0.0091
1348.00,0.0092
1345.00,0.0092
1342.00,0.0093
1339.00,0.0094
1336.00,0.0095
1333.00,0.0095
1330.00,0.0096
1327.00,0.0098
1324.00,0.0101
1321.00,0.0104
1318.00,0.0108
1315.00,0.0112
1312.00,0.0117
1309.00,0.0122
1306.00,0.0128
1303.00,0.0135
1300.00,0.0143
1297.00,0.0152
1294.00,0.0163
1291.00,0.0176
1288.00,0.0192
1285.00,0.0211
1282.00,0.0237
1279.00,0.0277
1276.00,0.0338
1273.00,0.0445
1270.00,0.0660
1267.00,0.1104
1264.00,0.1857
1261.00,0.2674
1258.00,0.2901
1255.00,0.2257
1252.00,0.1508
1249.00,0.1134
1246.00,0.0991
1243.00,0.0944
1240.00,0.0944
1237.00,0.0963
1234.00,0.0992
1231.00,0.1024
1228.00,0.1059
1225.00,0.1093
1222.00,0.1127
1219.00,0.1160
1216.00,0.1190
1213.00,0.1220
1210.00,0.1249
1207.00,0.1277
1204.00,0.1303
1201.00,0.1329
1198.00,0.1355
1195.00,0.1381
1192.00,0.1407
1189.00,0.1434
1186.00,0.1461
1183.00,0.1488
1180.00,0.1516
1177.00,0.1544
1174.00,0.1571
1171.00,0.1599
1168.00,0.1625
1165.00,0.1650
1162.00,0.1677
1159.00,0.1703
1156.00,0.1729
1153.00,0.1756
1150.00,0.1786
1147.00,0.1817
1144.00,0.1851
1141.00,0.1888
1138.00,0.1931
1135.00,0.1979
1132.00,0.2031
1129.00,0.2093
1126.00,0.2166
1123.00,0.2254
1120.00,0.2363
1117.00,0.2499
1114.00,0.2676
1111.00,0.2895
1108.00,0.3161
1105.00,0.3474
1102.00,0.3827
1099.00,0.4212
1096.00,0.4610
1093.00,0.5003
1090.00,0.5378
1087.00,0.5721
1084.00,0.6019
1081.00,0.6271
1078.00,0.6483
1075.00,0.6658
1072.00,0.6789
1069.00,0.6888
1066.00,0.6968
1063.00,0.7023
1060.00,0.7054
1057.00,0.7066
1054.00,0.7068
1051.00,0.7069
1048.00,0.7063
1045.00,0.7058
1042.00,0.7071
1039.00,0.7105
1036.00,0.7165
1033.00,0.7265
1030.00,0.7428
1027.00,0.7666
1024.00,0.7993
1021.00,0.8448
1018.00,0.9068
1015.00,0.9831
1012.00,1.0585
1009.00,1.1014
1006.00,1.0828
1003.00,1.0037
1000.00,0.8896
997.00,0.7685
994.00,0.6567
991.00,0.5594
988.00,0.4780
985.00,0.4115
982.00,0.3582
979.00,0.3158
976.00,0.2823
973.00,0.2557
970.00,0.2346
967.00,0.2172
964.00,0.2023
961.00,0.1894
958.00,0.1777
955.00,0.1670
952.00,0.1573
949.00,0.1483
946.00,0.1398
943.00,0.1318
940.00,0.1244
937.00,0.1175
934.00,0.1112
931.00,0.1052
928.00,0.1001
925.00,0.0952
922.00,0.0910
919.00,0.0876
916.00,0.0850
913.00,0.0831
910.00,0.0816
907.00,0.0806
904.00,0.0800
901.00,0.0799
898.00,0.0807
895.00,0.0825
892.00,0.0852
889.00,0.0893
886.00,0.0959
883.00,0.1053
880.00,0.1167
877.00,0.1280
874.00,0.1372
871.00,0.1439
868.00,0.1488
865.00,0.1519
862.00,0.1504
859.00,0.1430
856.00,0.1323
853.00,0.1225
850.00,0.1162
847.00,0.1133
844.00,0.1132
841.00,0.1158
838.00,0.1214
835.00,0.1306
832.00,0.1446
829.00,0.1667
826.00,0.2016
823.00,0.2491
820.00,0.2984
817.00,0.3392
814.00,0.3748
811.00,0.4157
808.00,0.4708
805.00,0.5453
802.00,0.6403
799.00,0.7522
796.00,0.8725
793.00,0.9916
790.00,1.0932
787.00,1.1354
784.00,1.0824
781.00,0.9561
778.00,0.8077
775.00,0.6664
772.00,0.5481
769.00,0.4563
766.00,0.3872
763.00,0.3360
760.00,0.2970
757.00,0.2668
754.00,0.2430
751.00,0.2236
748.00,0.2081
745.00,0.1957
742.00,0.1851
739.00,0.1746
736.00,0.1642
733.00,0.1549
730.00,0.1472
727.00,0.1410
724.00,0.1362
721.00,0.1327
718.00,0.1320
715.00,0.1359
712.00,0.1471
709.00,0.1647
706.00,0.1805
703.00,0.1881
700.00,0.1886
697.00,0.1857
694.00,0.1828
691.00,0.1820
688.00,0.1836
685.00,0.1837
682.00,0.1786
679.00,0.1715
676.00,0.1657
673.00,0.1618
670.00,0.1596
667.00,0.1620
664.00,0.1670
661.00,0.1737
658.00,0.1580
655.00,0.1276
652.00,0.1115
649.00,0.1046
646.00,0.1010
643.00,0.0992
640.00,0.0984
637.00,0.0984
634.00,0.0987
631.00,0.0992
628.00,0.0996
625.00,0.0996
622.00,0.1000
619.00,0.1002
616.00,0.1009
613.00,0.1016
610.00,0.1021
607.00,0.1027
604.00,0.1038
601.00,0.1052
598.00,0.1068
595.00,0.1085
592.00,0.1103
589.00,0.1123
586.00,0.1145
583.00,0.1169
580.00,0.1191
577.00,0.1216
574.00,0.1242
571.00,0.1264
568.00,0.1285
565.00,0.1309
562.00,0.1329
559.00,0.1348
556.00,0.1368
553.00,0.1382
550.00,0.1395
547.00,0.1405
544.00,0.1411
541.00,0.1418
538.00,0.1422
535.00,0.1420
532.00,0.1419
529.00,0.1425
526.00,0.1429
523.00,0.1444
520.00,0.1453
517.00,0.1479
514.00,0.1518
511.00,0.1572
508.00,0.1641
505.00,0.1722
502.00,0.1828
499.00,0.1967
496.00,0.2136
493.00,0.2352
490.00,0.2625
487.00,0.2947
484.00,0.3303
481.00,0.3680
478.00,0.4080
475.00,0.4504
472.00,0.4904
469.00,0.5256
466.00,0.5544
463.00,0.5761
460.00,0.5881
457.00,0.5921
454.00,0.5878
451.00,0.5779
448.00,0.5612
445.00,0.5367
442.00,0.5111
439.00,0.4858
436.00,0.4590
433.00,0.4275
430.00,0.3985
427.00,0.3729
424.00,0.3462
421.00,0.3284
418.00,0.3189
415.00,0.3265
412.00,0.3501
409.00,0.3805
406.00,0.4188
403.00,0.4558
400.00,0.4815