File: FTIR/Olivia/2025_08_04_1CBN_3PVP10kDa_MortPest_powder_scan2.csv
Created as New Dataset,Sample 1033 By YargerLab Date Monday, August 04 2025
cm-1,A
4000.00,0.0102
3997.00,0.0101
3994.00,0.0101
3991.00,0.0101
3988.00,0.0101
3985.00,0.0101
3982.00,0.0101
3979.00,0.0101
3976.00,0.0102
3973.00,0.0102
3970.00,0.0101
3967.00,0.0101
3964.00,0.0101
3961.00,0.0101
3958.00,0.0101
3955.00,0.0101
3952.00,0.0101
3949.00,0.0101
3946.00,0.0100
3943.00,0.0100
3940.00,0.0101
3937.00,0.0101
3934.00,0.0100
3931.00,0.0101
3928.00,0.0101
3925.00,0.0101
3922.00,0.0100
3919.00,0.0100
3916.00,0.0100
3913.00,0.0101
3910.00,0.0101
3907.00,0.0100
3904.00,0.0100
3901.00,0.0099
3898.00,0.0100
3895.00,0.0099
3892.00,0.0100
3889.00,0.0100
3886.00,0.0099
3883.00,0.0099
3880.00,0.0099
3877.00,0.0099
3874.00,0.0099
3871.00,0.0099
3868.00,0.0099
3865.00,0.0098
3862.00,0.0099
3859.00,0.0100
3856.00,0.0101
3853.00,0.0099
3850.00,0.0099
3847.00,0.0099
3844.00,0.0099
3841.00,0.0098
3838.00,0.0098
3835.00,0.0099
3832.00,0.0099
3829.00,0.0099
3826.00,0.0100
3823.00,0.0099
3820.00,0.0098
3817.00,0.0098
3814.00,0.0099
3811.00,0.0100
3808.00,0.0100
3805.00,0.0099
3802.00,0.0098
3799.00,0.0099
3796.00,0.0098
3793.00,0.0099
3790.00,0.0100
3787.00,0.0100
3784.00,0.0099
3781.00,0.0098
3778.00,0.0099
3775.00,0.0099
3772.00,0.0099
3769.00,0.0099
3766.00,0.0098
3763.00,0.0098
3760.00,0.0098
3757.00,0.0099
3754.00,0.0099
3751.00,0.0098
3748.00,0.0097
3745.00,0.0096
3742.00,0.0097
3739.00,0.0096
3736.00,0.0096
3733.00,0.0096
3730.00,0.0097
3727.00,0.0097
3724.00,0.0097
3721.00,0.0097
3718.00,0.0098
3715.00,0.0098
3712.00,0.0096
3709.00,0.0096
3706.00,0.0097
3703.00,0.0098
3700.00,0.0098
3697.00,0.0098
3694.00,0.0097
3691.00,0.0097
3688.00,0.0097
3685.00,0.0098
3682.00,0.0099
3679.00,0.0099
3676.00,0.0099
3673.00,0.0099
3670.00,0.0100
3667.00,0.0101
3664.00,0.0102
3661.00,0.0103
3658.00,0.0102
3655.00,0.0103
3652.00,0.0102
3649.00,0.0102
3646.00,0.0104
3643.00,0.0106
3640.00,0.0108
3637.00,0.0109
3634.00,0.0110
3631.00,0.0110
3628.00,0.0111
3625.00,0.0113
3622.00,0.0115
3619.00,0.0117
3616.00,0.0118
3613.00,0.0120
3610.00,0.0121
3607.00,0.0124
3604.00,0.0127
3601.00,0.0129
3598.00,0.0131
3595.00,0.0133
3592.00,0.0136
3589.00,0.0137
3586.00,0.0141
3583.00,0.0144
3580.00,0.0147
3577.00,0.0150
3574.00,0.0153
3571.00,0.0157
3568.00,0.0158
3565.00,0.0162
3562.00,0.0165
3559.00,0.0169
3556.00,0.0172
3553.00,0.0175
3550.00,0.0177
3547.00,0.0179
3544.00,0.0182
3541.00,0.0185
3538.00,0.0188
3535.00,0.0190
3532.00,0.0192
3529.00,0.0194
3526.00,0.0195
3523.00,0.0197
3520.00,0.0199
3517.00,0.0201
3514.00,0.0203
3511.00,0.0204
3508.00,0.0206
3505.00,0.0208
3502.00,0.0209
3499.00,0.0211
3496.00,0.0212
3493.00,0.0214
3490.00,0.0215
3487.00,0.0217
3484.00,0.0220
3481.00,0.0222
3478.00,0.0224
3475.00,0.0226
3472.00,0.0228
3469.00,0.0230
3466.00,0.0232
3463.00,0.0235
3460.00,0.0238
3457.00,0.0239
3454.00,0.0242
3451.00,0.0244
3448.00,0.0246
3445.00,0.0247
3442.00,0.0250
3439.00,0.0253
3436.00,0.0256
3433.00,0.0259
3430.00,0.0261
3427.00,0.0264
3424.00,0.0268
3421.00,0.0270
3418.00,0.0274
3415.00,0.0276
3412.00,0.0279
3409.00,0.0281
3406.00,0.0282
3403.00,0.0282
3400.00,0.0282
3397.00,0.0281
3394.00,0.0279
3391.00,0.0277
3388.00,0.0274
3385.00,0.0272
3382.00,0.0268
3379.00,0.0265
3376.00,0.0262
3373.00,0.0258
3370.00,0.0255
3367.00,0.0252
3364.00,0.0250
3361.00,0.0248
3358.00,0.0246
3355.00,0.0244
3352.00,0.0241
3349.00,0.0240
3346.00,0.0239
3343.00,0.0237
3340.00,0.0235
3337.00,0.0235
3334.00,0.0235
3331.00,0.0235
3328.00,0.0233
3325.00,0.0232
3322.00,0.0233
3319.00,0.0233
3316.00,0.0232
3313.00,0.0232
3310.00,0.0230
3307.00,0.0229
3304.00,0.0231
3301.00,0.0233
3298.00,0.0233
3295.00,0.0233
3292.00,0.0234
3289.00,0.0236
3286.00,0.0237
3283.00,0.0237
3280.00,0.0238
3277.00,0.0237
3274.00,0.0236
3271.00,0.0236
3268.00,0.0238
3265.00,0.0239
3262.00,0.0239
3259.00,0.0239
3256.00,0.0239
3253.00,0.0239
3250.00,0.0239
3247.00,0.0238
3244.00,0.0239
3241.00,0.0239
3238.00,0.0238
3235.00,0.0236
3232.00,0.0236
3229.00,0.0235
3226.00,0.0233
3223.00,0.0232
3220.00,0.0230
3217.00,0.0228
3214.00,0.0226
3211.00,0.0223
3208.00,0.0221
3205.00,0.0219
3202.00,0.0216
3199.00,0.0213
3196.00,0.0210
3193.00,0.0207
3190.00,0.0204
3187.00,0.0201
3184.00,0.0199
3181.00,0.0197
3178.00,0.0194
3175.00,0.0191
3172.00,0.0189
3169.00,0.0186
3166.00,0.0184
3163.00,0.0181
3160.00,0.0179
3157.00,0.0176
3154.00,0.0173
3151.00,0.0171
3148.00,0.0169
3145.00,0.0167
3142.00,0.0164
3139.00,0.0162
3136.00,0.0161
3133.00,0.0159
3130.00,0.0157
3127.00,0.0156
3124.00,0.0155
3121.00,0.0153
3118.00,0.0152
3115.00,0.0151
3112.00,0.0149
3109.00,0.0148
3106.00,0.0146
3103.00,0.0144
3100.00,0.0144
3097.00,0.0143
3094.00,0.0143
3091.00,0.0143
3088.00,0.0143
3085.00,0.0142
3082.00,0.0142
3079.00,0.0141
3076.00,0.0141
3073.00,0.0140
3070.00,0.0139
3067.00,0.0139
3064.00,0.0138
3061.00,0.0138
3058.00,0.0138
3055.00,0.0139
3052.00,0.0139
3049.00,0.0139
3046.00,0.0138
3043.00,0.0137
3040.00,0.0138
3037.00,0.0139
3034.00,0.0140
3031.00,0.0141
3028.00,0.0140
3025.00,0.0139
3022.00,0.0138
3019.00,0.0137
3016.00,0.0138
3013.00,0.0139
3010.00,0.0142
3007.00,0.0146
3004.00,0.0153
3001.00,0.0161
2998.00,0.0172
2995.00,0.0185
2992.00,0.0198
2989.00,0.0209
2986.00,0.0222
2983.00,0.0237
2980.00,0.0256
2977.00,0.0267
2974.00,0.0278
2971.00,0.0298
2968.00,0.0313
2965.00,0.0323
2962.00,0.0336
2959.00,0.0344
2956.00,0.0338
2953.00,0.0325
2950.00,0.0315
2947.00,0.0311
2944.00,0.0314
2941.00,0.0321
2938.00,0.0335
2935.00,0.0360
2932.00,0.0392
2929.00,0.0421
2926.00,0.0432
2923.00,0.0424
2920.00,0.0403
2917.00,0.0379
2914.00,0.0356
2911.00,0.0336
2908.00,0.0320
2905.00,0.0306
2902.00,0.0296
2899.00,0.0287
2896.00,0.0282
2893.00,0.0278
2890.00,0.0275
2887.00,0.0272
2884.00,0.0270
2881.00,0.0271
2878.00,0.0276
2875.00,0.0284
2872.00,0.0289
2869.00,0.0287
2866.00,0.0284
2863.00,0.0292
2860.00,0.0311
2857.00,0.0328
2854.00,0.0327
2851.00,0.0312
2848.00,0.0284
2845.00,0.0255
2842.00,0.0233
2839.00,0.0215
2836.00,0.0204
2833.00,0.0195
2830.00,0.0188
2827.00,0.0180
2824.00,0.0174
2821.00,0.0169
2818.00,0.0165
2815.00,0.0161
2812.00,0.0158
2809.00,0.0156
2806.00,0.0154
2803.00,0.0153
2800.00,0.0151
2797.00,0.0149
2794.00,0.0148
2791.00,0.0147
2788.00,0.0146
2785.00,0.0144
2782.00,0.0143
2779.00,0.0142
2776.00,0.0142
2773.00,0.0140
2770.00,0.0140
2767.00,0.0139
2764.00,0.0139
2761.00,0.0138
2758.00,0.0138
2755.00,0.0138
2752.00,0.0138
2749.00,0.0138
2746.00,0.0138
2743.00,0.0139
2740.00,0.0139
2737.00,0.0139
2734.00,0.0140
2731.00,0.0141
2728.00,0.0140
2725.00,0.0139
2722.00,0.0139
2719.00,0.0138
2716.00,0.0138
2713.00,0.0137
2710.00,0.0137
2707.00,0.0137
2704.00,0.0136
2701.00,0.0136
2698.00,0.0136
2695.00,0.0135
2692.00,0.0134
2689.00,0.0133
2686.00,0.0133
2683.00,0.0133
2680.00,0.0132
2677.00,0.0132
2674.00,0.0133
2671.00,0.0133
2668.00,0.0133
2665.00,0.0134
2662.00,0.0136
2659.00,0.0137
2656.00,0.0137
2653.00,0.0137
2650.00,0.0138
2647.00,0.0138
2644.00,0.0137
2641.00,0.0137
2638.00,0.0136
2635.00,0.0135
2632.00,0.0135
2629.00,0.0134
2626.00,0.0134
2623.00,0.0133
2620.00,0.0133
2617.00,0.0132
2614.00,0.0132
2611.00,0.0131
2608.00,0.0132
2605.00,0.0131
2602.00,0.0130
2599.00,0.0131
2596.00,0.0131
2593.00,0.0131
2590.00,0.0131
2587.00,0.0132
2584.00,0.0132
2581.00,0.0132
2578.00,0.0131
2575.00,0.0130
2572.00,0.0130
2569.00,0.0130
2566.00,0.0129
2563.00,0.0129
2560.00,0.0129
2557.00,0.0129
2554.00,0.0127
2551.00,0.0128
2548.00,0.0127
2545.00,0.0126
2542.00,0.0127
2539.00,0.0126
2536.00,0.0127
2533.00,0.0126
2530.00,0.0126
2527.00,0.0126
2524.00,0.0124
2521.00,0.0124
2518.00,0.0125
2515.00,0.0124
2512.00,0.0123
2509.00,0.0123
2506.00,0.0123
2503.00,0.0123
2500.00,0.0123
2497.00,0.0123
2494.00,0.0122
2491.00,0.0121
2488.00,0.0121
2485.00,0.0122
2482.00,0.0122
2479.00,0.0121
2476.00,0.0120
2473.00,0.0120
2470.00,0.0120
2467.00,0.0119
2464.00,0.0119
2461.00,0.0121
2458.00,0.0122
2455.00,0.0121
2452.00,0.0122
2449.00,0.0122
2446.00,0.0121
2443.00,0.0121
2440.00,0.0121
2437.00,0.0120
2434.00,0.0121
2431.00,0.0119
2428.00,0.0119
2425.00,0.0119
2422.00,0.0119
2419.00,0.0119
2416.00,0.0119
2413.00,0.0120
2410.00,0.0120
2407.00,0.0118
2404.00,0.0118
2401.00,0.0118
2398.00,0.0118
2395.00,0.0118
2392.00,0.0118
2389.00,0.0117
2386.00,0.0116
2383.00,0.0115
2380.00,0.0115
2377.00,0.0115
2374.00,0.0115
2371.00,0.0115
2368.00,0.0114
2365.00,0.0114
2362.00,0.0115
2359.00,0.0116
2356.00,0.0115
2353.00,0.0115
2350.00,0.0116
2347.00,0.0119
2344.00,0.0118
2341.00,0.0119
2338.00,0.0119
2335.00,0.0120
2332.00,0.0119
2329.00,0.0121
2326.00,0.0129
2323.00,0.0129
2320.00,0.0124
2317.00,0.0122
2314.00,0.0120
2311.00,0.0119
2308.00,0.0120
2305.00,0.0120
2302.00,0.0121
2299.00,0.0122
2296.00,0.0125
2293.00,0.0127
2290.00,0.0128
2287.00,0.0130
2284.00,0.0128
2281.00,0.0126
2278.00,0.0124
2275.00,0.0124
2272.00,0.0123
2269.00,0.0122
2266.00,0.0120
2263.00,0.0120
2260.00,0.0121
2257.00,0.0120
2254.00,0.0116
2251.00,0.0117
2248.00,0.0119
2245.00,0.0118
2242.00,0.0118
2239.00,0.0119
2236.00,0.0119
2233.00,0.0120
2230.00,0.0119
2227.00,0.0119
2224.00,0.0118
2221.00,0.0117
2218.00,0.0119
2215.00,0.0119
2212.00,0.0118
2209.00,0.0117
2206.00,0.0119
2203.00,0.0119
2200.00,0.0118
2197.00,0.0119
2194.00,0.0122
2191.00,0.0121
2188.00,0.0120
2185.00,0.0121
2182.00,0.0117
2179.00,0.0117
2176.00,0.0116
2173.00,0.0117
2170.00,0.0124
2167.00,0.0126
2164.00,0.0128
2161.00,0.0114
2158.00,0.0086
2155.00,0.0091
2152.00,0.0099
2149.00,0.0100
2146.00,0.0100
2143.00,0.0103
2140.00,0.0103
2137.00,0.0100
2134.00,0.0097
2131.00,0.0102
2128.00,0.0106
2125.00,0.0110
2122.00,0.0113
2119.00,0.0115
2116.00,0.0116
2113.00,0.0116
2110.00,0.0117
2107.00,0.0117
2104.00,0.0116
2101.00,0.0116
2098.00,0.0115
2095.00,0.0110
2092.00,0.0112
2089.00,0.0115
2086.00,0.0115
2083.00,0.0117
2080.00,0.0116
2077.00,0.0116
2074.00,0.0117
2071.00,0.0115
2068.00,0.0114
2065.00,0.0113
2062.00,0.0110
2059.00,0.0110
2056.00,0.0112
2053.00,0.0116
2050.00,0.0120
2047.00,0.0114
2044.00,0.0111
2041.00,0.0110
2038.00,0.0110
2035.00,0.0107
2032.00,0.0103
2029.00,0.0104
2026.00,0.0104
2023.00,0.0105
2020.00,0.0106
2017.00,0.0106
2014.00,0.0104
2011.00,0.0102
2008.00,0.0098
2005.00,0.0092
2002.00,0.0097
1999.00,0.0100
1996.00,0.0104
1993.00,0.0109
1990.00,0.0109
1987.00,0.0108
1984.00,0.0111
1981.00,0.0117
1978.00,0.0106
1975.00,0.0094
1972.00,0.0094
1969.00,0.0098
1966.00,0.0095
1963.00,0.0096
1960.00,0.0092
1957.00,0.0093
1954.00,0.0095
1951.00,0.0095
1948.00,0.0098
1945.00,0.0099
1942.00,0.0098
1939.00,0.0096
1936.00,0.0098
1933.00,0.0098
1930.00,0.0100
1927.00,0.0101
1924.00,0.0102
1921.00,0.0103
1918.00,0.0101
1915.00,0.0101
1912.00,0.0105
1909.00,0.0108
1906.00,0.0106
1903.00,0.0103
1900.00,0.0103
1897.00,0.0104
1894.00,0.0105
1891.00,0.0104
1888.00,0.0102
1885.00,0.0102
1882.00,0.0102
1879.00,0.0102
1876.00,0.0102
1873.00,0.0102
1870.00,0.0104
1867.00,0.0103
1864.00,0.0101
1861.00,0.0102
1858.00,0.0101
1855.00,0.0101
1852.00,0.0101
1849.00,0.0104
1846.00,0.0104
1843.00,0.0102
1840.00,0.0102
1837.00,0.0103
1834.00,0.0101
1831.00,0.0102
1828.00,0.0101
1825.00,0.0101
1822.00,0.0100
1819.00,0.0098
1816.00,0.0097
1813.00,0.0100
1810.00,0.0100
1807.00,0.0100
1804.00,0.0101
1801.00,0.0102
1798.00,0.0101
1795.00,0.0103
1792.00,0.0100
1789.00,0.0099
1786.00,0.0100
1783.00,0.0101
1780.00,0.0102
1777.00,0.0101
1774.00,0.0102
1771.00,0.0101
1768.00,0.0101
1765.00,0.0101
1762.00,0.0102
1759.00,0.0104
1756.00,0.0102
1753.00,0.0102
1750.00,0.0105
1747.00,0.0107
1744.00,0.0108
1741.00,0.0104
1738.00,0.0104
1735.00,0.0104
1732.00,0.0108
1729.00,0.0113
1726.00,0.0115
1723.00,0.0119
1720.00,0.0121
1717.00,0.0127
1714.00,0.0134
1711.00,0.0146
1708.00,0.0160
1705.00,0.0184
1702.00,0.0204
1699.00,0.0260
1696.00,0.0327
1693.00,0.0406
1690.00,0.0492
1687.00,0.0576
1684.00,0.0680
1681.00,0.0774
1678.00,0.0848
1675.00,0.0924
1672.00,0.0992
1669.00,0.1056
1666.00,0.1110
1663.00,0.1157
1660.00,0.1201
1657.00,0.1226
1654.00,0.1229
1651.00,0.1230
1648.00,0.1200
1645.00,0.1131
1642.00,0.1059
1639.00,0.0974
1636.00,0.0876
1633.00,0.0800
1630.00,0.0767
1627.00,0.0772
1624.00,0.0784
1621.00,0.0771
1618.00,0.0712
1615.00,0.0626
1612.00,0.0596
1609.00,0.0566
1606.00,0.0506
1603.00,0.0445
1600.00,0.0396
1597.00,0.0366
1594.00,0.0355
1591.00,0.0370
1588.00,0.0408
1585.00,0.0437
1582.00,0.0433
1579.00,0.0408
1576.00,0.0368
1573.00,0.0338
1570.00,0.0319
1567.00,0.0304
1564.00,0.0282
1561.00,0.0255
1558.00,0.0231
1555.00,0.0228
1552.00,0.0224
1549.00,0.0220
1546.00,0.0214
1543.00,0.0210
1540.00,0.0201
1537.00,0.0198
1534.00,0.0198
1531.00,0.0196
1528.00,0.0196
1525.00,0.0195
1522.00,0.0196
1519.00,0.0200
1516.00,0.0209
1513.00,0.0216
1510.00,0.0230
1507.00,0.0242
1504.00,0.0260
1501.00,0.0302
1498.00,0.0371
1495.00,0.0423
1492.00,0.0405
1489.00,0.0356
1486.00,0.0302
1483.00,0.0269
1480.00,0.0251
1477.00,0.0250
1474.00,0.0270
1471.00,0.0332
1468.00,0.0431
1465.00,0.0537
1462.00,0.0599
1459.00,0.0608
1456.00,0.0542
1453.00,0.0490
1450.00,0.0473
1447.00,0.0505
1444.00,0.0572
1441.00,0.0657
1438.00,0.0721
1435.00,0.0779
1432.00,0.0816
1429.00,0.0852
1426.00,0.0904
1423.00,0.0954
1420.00,0.0934
1417.00,0.0826
1414.00,0.0699
1411.00,0.0597
1408.00,0.0544
1405.00,0.0536
1402.00,0.0542
1399.00,0.0528
1396.00,0.0484
1393.00,0.0429
1390.00,0.0406
1387.00,0.0425
1384.00,0.0432
1381.00,0.0444
1378.00,0.0464
1375.00,0.0462
1372.00,0.0439
1369.00,0.0441
1366.00,0.0462
1363.00,0.0466
1360.00,0.0472
1357.00,0.0435
1354.00,0.0392
1351.00,0.0372
1348.00,0.0366
1345.00,0.0358
1342.00,0.0344
1339.00,0.0329
1336.00,0.0320
1333.00,0.0331
1330.00,0.0351
1327.00,0.0371
1324.00,0.0392
1321.00,0.0418
1318.00,0.0436
1315.00,0.0432
1312.00,0.0413
1309.00,0.0401
1306.00,0.0414
1303.00,0.0464
1300.00,0.0531
1297.00,0.0606
1294.00,0.0728
1291.00,0.0860
1288.00,0.0965
1285.00,0.1022
1282.00,0.1006
1279.00,0.0947
1276.00,0.0917
1273.00,0.0923
1270.00,0.0915
1267.00,0.0868
1264.00,0.0791
1261.00,0.0705
1258.00,0.0628
1255.00,0.0569
1252.00,0.0531
1249.00,0.0515
1246.00,0.0523
1243.00,0.0540
1240.00,0.0556
1237.00,0.0590
1234.00,0.0630
1231.00,0.0635
1228.00,0.0610
1225.00,0.0586
1222.00,0.0572
1219.00,0.0570
1216.00,0.0576
1213.00,0.0566
1210.00,0.0528
1207.00,0.0490
1204.00,0.0474
1201.00,0.0486
1198.00,0.0518
1195.00,0.0552
1192.00,0.0541
1189.00,0.0496
1186.00,0.0448
1183.00,0.0417
1180.00,0.0404
1177.00,0.0403
1174.00,0.0409
1171.00,0.0417
1168.00,0.0422
1165.00,0.0423
1162.00,0.0426
1159.00,0.0456
1156.00,0.0517
1153.00,0.0517
1150.00,0.0437
1147.00,0.0378
1144.00,0.0354
1141.00,0.0342
1138.00,0.0342
1135.00,0.0367
1132.00,0.0438
1129.00,0.0515
1126.00,0.0510
1123.00,0.0455
1120.00,0.0398
1117.00,0.0372
1114.00,0.0367
1111.00,0.0357
1108.00,0.0347
1105.00,0.0355
1102.00,0.0398
1099.00,0.0431
1096.00,0.0399
1093.00,0.0354
1090.00,0.0330
1087.00,0.0320
1084.00,0.0315
1081.00,0.0316
1078.00,0.0320
1075.00,0.0325
1072.00,0.0329
1069.00,0.0334
1066.00,0.0342
1063.00,0.0363
1060.00,0.0417
1057.00,0.0514
1054.00,0.0594
1051.00,0.0610
1048.00,0.0593
1045.00,0.0531
1042.00,0.0456
1039.00,0.0410
1036.00,0.0403
1033.00,0.0418
1030.00,0.0477
1027.00,0.0559
1024.00,0.0542
1021.00,0.0472
1018.00,0.0426
1015.00,0.0392
1012.00,0.0363
1009.00,0.0358
1006.00,0.0387
1003.00,0.0417
1000.00,0.0409
997.00,0.0384
994.00,0.0363
991.00,0.0342
988.00,0.0319
985.00,0.0304
982.00,0.0295
979.00,0.0290
976.00,0.0288
973.00,0.0284
970.00,0.0280
967.00,0.0279
964.00,0.0280
961.00,0.0281
958.00,0.0270
955.00,0.0260
952.00,0.0254
949.00,0.0256
946.00,0.0258
943.00,0.0262
940.00,0.0276
937.00,0.0297
934.00,0.0315
931.00,0.0317
928.00,0.0304
925.00,0.0302
922.00,0.0309
919.00,0.0298
916.00,0.0277
913.00,0.0265
910.00,0.0261
907.00,0.0262
904.00,0.0275
901.00,0.0304
898.00,0.0321
895.00,0.0307
892.00,0.0309
889.00,0.0314
886.00,0.0281
883.00,0.0265
880.00,0.0270
877.00,0.0294
874.00,0.0351
871.00,0.0418
868.00,0.0427
865.00,0.0388
862.00,0.0353
859.00,0.0339
856.00,0.0363
853.00,0.0413
850.00,0.0463
847.00,0.0476
844.00,0.0446
841.00,0.0424
838.00,0.0429
835.00,0.0460
832.00,0.0459
829.00,0.0409
826.00,0.0353
823.00,0.0368
820.00,0.0455
817.00,0.0482
814.00,0.0466
811.00,0.0353
808.00,0.0304
805.00,0.0284
802.00,0.0274
799.00,0.0270
796.00,0.0268
793.00,0.0266
790.00,0.0265
787.00,0.0267
784.00,0.0268
781.00,0.0271
778.00,0.0280
775.00,0.0302
772.00,0.0302
769.00,0.0294
766.00,0.0296
763.00,0.0307
760.00,0.0324
757.00,0.0334
754.00,0.0340
751.00,0.0352
748.00,0.0364
745.00,0.0379
742.00,0.0399
739.00,0.0431
736.00,0.0489
733.00,0.0505
730.00,0.0487
727.00,0.0470
724.00,0.0424
721.00,0.0394
718.00,0.0395
715.00,0.0410
712.00,0.0405
709.00,0.0392
706.00,0.0389
703.00,0.0398
700.00,0.0412
697.00,0.0425
694.00,0.0422
691.00,0.0431
688.00,0.0458
685.00,0.0461
682.00,0.0461
679.00,0.0474
676.00,0.0497
673.00,0.0527
670.00,0.0553
667.00,0.0565
664.00,0.0581
661.00,0.0611
658.00,0.0627
655.00,0.0639
652.00,0.0659
649.00,0.0670
646.00,0.0672
643.00,0.0661
640.00,0.0645
637.00,0.0629
634.00,0.0615
631.00,0.0603
628.00,0.0597
625.00,0.0597
622.00,0.0606
619.00,0.0613
616.00,0.0603
613.00,0.0586
610.00,0.0586
607.00,0.0614
604.00,0.0652
601.00,0.0670
598.00,0.0675
595.00,0.0679
592.00,0.0687
589.00,0.0693
586.00,0.0710
583.00,0.0737
580.00,0.0768
577.00,0.0814
574.00,0.0826
571.00,0.0806
568.00,0.0787
565.00,0.0779
562.00,0.0786
559.00,0.0791
556.00,0.0770
553.00,0.0745
550.00,0.0747
547.00,0.0768
544.00,0.0763
541.00,0.0740
538.00,0.0720
535.00,0.0724
532.00,0.0744
529.00,0.0744
526.00,0.0721
523.00,0.0704
520.00,0.0694
517.00,0.0684
514.00,0.0680
511.00,0.0682
508.00,0.0693
505.00,0.0699
502.00,0.0688
499.00,0.0683
496.00,0.0691
493.00,0.0702
490.00,0.0703
487.00,0.0704
484.00,0.0696
481.00,0.0692
478.00,0.0694
475.00,0.0692
472.00,0.0697
469.00,0.0693
466.00,0.0689
463.00,0.0691
460.00,0.0681
457.00,0.0674
454.00,0.0671
451.00,0.0667
448.00,0.0665
445.00,0.0659
442.00,0.0650
439.00,0.0648
436.00,0.0638
433.00,0.0625
430.00,0.0616
427.00,0.0609
424.00,0.0603
421.00,0.0599
418.00,0.0590
415.00,0.0592
412.00,0.0595
409.00,0.0595
406.00,0.0580
403.00,0.0576
400.00,0.0552