File: FTIR/Olivia/2025_08_04_1CBN_3PVP10kDa_MortPest_powder_scan3.csv
Created as New Dataset,Sample 1034 By YargerLab Date Monday, August 04 2025
cm-1,A
4000.00,0.0046
3997.00,0.0046
3994.00,0.0046
3991.00,0.0046
3988.00,0.0046
3985.00,0.0046
3982.00,0.0046
3979.00,0.0046
3976.00,0.0046
3973.00,0.0046
3970.00,0.0046
3967.00,0.0047
3964.00,0.0046
3961.00,0.0046
3958.00,0.0046
3955.00,0.0046
3952.00,0.0046
3949.00,0.0045
3946.00,0.0045
3943.00,0.0046
3940.00,0.0046
3937.00,0.0046
3934.00,0.0045
3931.00,0.0045
3928.00,0.0046
3925.00,0.0046
3922.00,0.0046
3919.00,0.0045
3916.00,0.0045
3913.00,0.0046
3910.00,0.0046
3907.00,0.0045
3904.00,0.0044
3901.00,0.0044
3898.00,0.0044
3895.00,0.0045
3892.00,0.0045
3889.00,0.0045
3886.00,0.0043
3883.00,0.0044
3880.00,0.0045
3877.00,0.0045
3874.00,0.0045
3871.00,0.0044
3868.00,0.0044
3865.00,0.0044
3862.00,0.0044
3859.00,0.0045
3856.00,0.0046
3853.00,0.0045
3850.00,0.0044
3847.00,0.0044
3844.00,0.0044
3841.00,0.0044
3838.00,0.0044
3835.00,0.0045
3832.00,0.0044
3829.00,0.0044
3826.00,0.0045
3823.00,0.0044
3820.00,0.0044
3817.00,0.0043
3814.00,0.0044
3811.00,0.0045
3808.00,0.0044
3805.00,0.0045
3802.00,0.0044
3799.00,0.0045
3796.00,0.0044
3793.00,0.0045
3790.00,0.0045
3787.00,0.0045
3784.00,0.0045
3781.00,0.0044
3778.00,0.0044
3775.00,0.0044
3772.00,0.0045
3769.00,0.0045
3766.00,0.0045
3763.00,0.0045
3760.00,0.0044
3757.00,0.0045
3754.00,0.0045
3751.00,0.0044
3748.00,0.0043
3745.00,0.0041
3742.00,0.0042
3739.00,0.0041
3736.00,0.0041
3733.00,0.0041
3730.00,0.0042
3727.00,0.0042
3724.00,0.0042
3721.00,0.0043
3718.00,0.0043
3715.00,0.0043
3712.00,0.0042
3709.00,0.0042
3706.00,0.0042
3703.00,0.0042
3700.00,0.0043
3697.00,0.0043
3694.00,0.0043
3691.00,0.0044
3688.00,0.0043
3685.00,0.0042
3682.00,0.0043
3679.00,0.0044
3676.00,0.0043
3673.00,0.0043
3670.00,0.0043
3667.00,0.0044
3664.00,0.0045
3661.00,0.0045
3658.00,0.0045
3655.00,0.0044
3652.00,0.0043
3649.00,0.0044
3646.00,0.0044
3643.00,0.0045
3640.00,0.0047
3637.00,0.0047
3634.00,0.0047
3631.00,0.0047
3628.00,0.0047
3625.00,0.0047
3622.00,0.0049
3619.00,0.0050
3616.00,0.0050
3613.00,0.0051
3610.00,0.0051
3607.00,0.0052
3604.00,0.0054
3601.00,0.0055
3598.00,0.0056
3595.00,0.0056
3592.00,0.0057
3589.00,0.0057
3586.00,0.0058
3583.00,0.0060
3580.00,0.0062
3577.00,0.0064
3574.00,0.0065
3571.00,0.0066
3568.00,0.0066
3565.00,0.0067
3562.00,0.0069
3559.00,0.0071
3556.00,0.0073
3553.00,0.0074
3550.00,0.0075
3547.00,0.0076
3544.00,0.0078
3541.00,0.0079
3538.00,0.0080
3535.00,0.0082
3532.00,0.0083
3529.00,0.0084
3526.00,0.0085
3523.00,0.0086
3520.00,0.0087
3517.00,0.0088
3514.00,0.0089
3511.00,0.0090
3508.00,0.0091
3505.00,0.0092
3502.00,0.0092
3499.00,0.0094
3496.00,0.0095
3493.00,0.0096
3490.00,0.0097
3487.00,0.0098
3484.00,0.0099
3481.00,0.0101
3478.00,0.0102
3475.00,0.0103
3472.00,0.0105
3469.00,0.0107
3466.00,0.0108
3463.00,0.0110
3460.00,0.0111
3457.00,0.0113
3454.00,0.0114
3451.00,0.0117
3448.00,0.0118
3445.00,0.0119
3442.00,0.0122
3439.00,0.0124
3436.00,0.0126
3433.00,0.0128
3430.00,0.0131
3427.00,0.0133
3424.00,0.0136
3421.00,0.0139
3418.00,0.0142
3415.00,0.0144
3412.00,0.0146
3409.00,0.0148
3406.00,0.0150
3403.00,0.0151
3400.00,0.0151
3397.00,0.0150
3394.00,0.0150
3391.00,0.0148
3388.00,0.0147
3385.00,0.0145
3382.00,0.0142
3379.00,0.0141
3376.00,0.0139
3373.00,0.0136
3370.00,0.0135
3367.00,0.0133
3364.00,0.0131
3361.00,0.0129
3358.00,0.0127
3355.00,0.0126
3352.00,0.0125
3349.00,0.0124
3346.00,0.0123
3343.00,0.0122
3340.00,0.0122
3337.00,0.0121
3334.00,0.0120
3331.00,0.0121
3328.00,0.0121
3325.00,0.0120
3322.00,0.0121
3319.00,0.0121
3316.00,0.0120
3313.00,0.0121
3310.00,0.0121
3307.00,0.0121
3304.00,0.0122
3301.00,0.0123
3298.00,0.0123
3295.00,0.0124
3292.00,0.0125
3289.00,0.0126
3286.00,0.0127
3283.00,0.0128
3280.00,0.0129
3277.00,0.0129
3274.00,0.0129
3271.00,0.0130
3268.00,0.0131
3265.00,0.0132
3262.00,0.0133
3259.00,0.0133
3256.00,0.0134
3253.00,0.0134
3250.00,0.0135
3247.00,0.0135
3244.00,0.0136
3241.00,0.0136
3238.00,0.0136
3235.00,0.0135
3232.00,0.0134
3229.00,0.0134
3226.00,0.0133
3223.00,0.0132
3220.00,0.0131
3217.00,0.0130
3214.00,0.0129
3211.00,0.0127
3208.00,0.0125
3205.00,0.0124
3202.00,0.0122
3199.00,0.0120
3196.00,0.0118
3193.00,0.0116
3190.00,0.0114
3187.00,0.0111
3184.00,0.0109
3181.00,0.0107
3178.00,0.0106
3175.00,0.0104
3172.00,0.0102
3169.00,0.0099
3166.00,0.0096
3163.00,0.0095
3160.00,0.0094
3157.00,0.0091
3154.00,0.0090
3151.00,0.0088
3148.00,0.0086
3145.00,0.0085
3142.00,0.0083
3139.00,0.0081
3136.00,0.0080
3133.00,0.0079
3130.00,0.0078
3127.00,0.0077
3124.00,0.0076
3121.00,0.0075
3118.00,0.0074
3115.00,0.0073
3112.00,0.0072
3109.00,0.0071
3106.00,0.0070
3103.00,0.0069
3100.00,0.0068
3097.00,0.0067
3094.00,0.0067
3091.00,0.0068
3088.00,0.0068
3085.00,0.0067
3082.00,0.0068
3079.00,0.0068
3076.00,0.0067
3073.00,0.0067
3070.00,0.0066
3067.00,0.0066
3064.00,0.0065
3061.00,0.0065
3058.00,0.0065
3055.00,0.0066
3052.00,0.0066
3049.00,0.0066
3046.00,0.0065
3043.00,0.0065
3040.00,0.0065
3037.00,0.0066
3034.00,0.0067
3031.00,0.0068
3028.00,0.0067
3025.00,0.0066
3022.00,0.0065
3019.00,0.0064
3016.00,0.0064
3013.00,0.0065
3010.00,0.0066
3007.00,0.0068
3004.00,0.0072
3001.00,0.0077
2998.00,0.0083
2995.00,0.0090
2992.00,0.0097
2989.00,0.0103
2986.00,0.0110
2983.00,0.0119
2980.00,0.0131
2977.00,0.0138
2974.00,0.0143
2971.00,0.0155
2968.00,0.0165
2965.00,0.0170
2962.00,0.0178
2959.00,0.0181
2956.00,0.0176
2953.00,0.0166
2950.00,0.0159
2947.00,0.0156
2944.00,0.0160
2941.00,0.0168
2938.00,0.0180
2935.00,0.0198
2932.00,0.0221
2929.00,0.0240
2926.00,0.0243
2923.00,0.0231
2920.00,0.0211
2917.00,0.0193
2914.00,0.0179
2911.00,0.0168
2908.00,0.0159
2905.00,0.0151
2902.00,0.0144
2899.00,0.0138
2896.00,0.0134
2893.00,0.0131
2890.00,0.0128
2887.00,0.0126
2884.00,0.0124
2881.00,0.0126
2878.00,0.0130
2875.00,0.0137
2872.00,0.0142
2869.00,0.0141
2866.00,0.0140
2863.00,0.0145
2860.00,0.0160
2857.00,0.0172
2854.00,0.0170
2851.00,0.0157
2848.00,0.0139
2845.00,0.0122
2842.00,0.0109
2839.00,0.0099
2836.00,0.0092
2833.00,0.0087
2830.00,0.0083
2827.00,0.0079
2824.00,0.0076
2821.00,0.0074
2818.00,0.0072
2815.00,0.0070
2812.00,0.0069
2809.00,0.0067
2806.00,0.0066
2803.00,0.0066
2800.00,0.0065
2797.00,0.0064
2794.00,0.0064
2791.00,0.0063
2788.00,0.0062
2785.00,0.0061
2782.00,0.0061
2779.00,0.0060
2776.00,0.0060
2773.00,0.0059
2770.00,0.0059
2767.00,0.0059
2764.00,0.0059
2761.00,0.0059
2758.00,0.0059
2755.00,0.0059
2752.00,0.0059
2749.00,0.0059
2746.00,0.0059
2743.00,0.0059
2740.00,0.0060
2737.00,0.0060
2734.00,0.0060
2731.00,0.0061
2728.00,0.0061
2725.00,0.0060
2722.00,0.0060
2719.00,0.0060
2716.00,0.0059
2713.00,0.0059
2710.00,0.0058
2707.00,0.0058
2704.00,0.0058
2701.00,0.0059
2698.00,0.0058
2695.00,0.0058
2692.00,0.0057
2689.00,0.0057
2686.00,0.0057
2683.00,0.0056
2680.00,0.0056
2677.00,0.0056
2674.00,0.0057
2671.00,0.0057
2668.00,0.0057
2665.00,0.0058
2662.00,0.0060
2659.00,0.0061
2656.00,0.0061
2653.00,0.0061
2650.00,0.0062
2647.00,0.0062
2644.00,0.0061
2641.00,0.0061
2638.00,0.0061
2635.00,0.0060
2632.00,0.0060
2629.00,0.0059
2626.00,0.0059
2623.00,0.0059
2620.00,0.0058
2617.00,0.0058
2614.00,0.0057
2611.00,0.0057
2608.00,0.0057
2605.00,0.0057
2602.00,0.0056
2599.00,0.0057
2596.00,0.0057
2593.00,0.0057
2590.00,0.0057
2587.00,0.0057
2584.00,0.0057
2581.00,0.0056
2578.00,0.0056
2575.00,0.0056
2572.00,0.0055
2569.00,0.0055
2566.00,0.0055
2563.00,0.0055
2560.00,0.0055
2557.00,0.0054
2554.00,0.0053
2551.00,0.0054
2548.00,0.0053
2545.00,0.0053
2542.00,0.0053
2539.00,0.0053
2536.00,0.0053
2533.00,0.0053
2530.00,0.0053
2527.00,0.0053
2524.00,0.0052
2521.00,0.0051
2518.00,0.0051
2515.00,0.0051
2512.00,0.0051
2509.00,0.0050
2506.00,0.0051
2503.00,0.0051
2500.00,0.0050
2497.00,0.0049
2494.00,0.0049
2491.00,0.0049
2488.00,0.0049
2485.00,0.0049
2482.00,0.0049
2479.00,0.0049
2476.00,0.0049
2473.00,0.0048
2470.00,0.0048
2467.00,0.0048
2464.00,0.0048
2461.00,0.0049
2458.00,0.0050
2455.00,0.0050
2452.00,0.0050
2449.00,0.0049
2446.00,0.0049
2443.00,0.0049
2440.00,0.0048
2437.00,0.0048
2434.00,0.0049
2431.00,0.0048
2428.00,0.0047
2425.00,0.0047
2422.00,0.0047
2419.00,0.0047
2416.00,0.0047
2413.00,0.0048
2410.00,0.0047
2407.00,0.0045
2404.00,0.0045
2401.00,0.0045
2398.00,0.0045
2395.00,0.0046
2392.00,0.0046
2389.00,0.0045
2386.00,0.0044
2383.00,0.0043
2380.00,0.0042
2377.00,0.0042
2374.00,0.0042
2371.00,0.0042
2368.00,0.0041
2365.00,0.0042
2362.00,0.0043
2359.00,0.0042
2356.00,0.0043
2353.00,0.0043
2350.00,0.0043
2347.00,0.0044
2344.00,0.0045
2341.00,0.0046
2338.00,0.0046
2335.00,0.0046
2332.00,0.0046
2329.00,0.0048
2326.00,0.0057
2323.00,0.0056
2320.00,0.0052
2317.00,0.0050
2314.00,0.0048
2311.00,0.0047
2308.00,0.0047
2305.00,0.0049
2302.00,0.0049
2299.00,0.0051
2296.00,0.0052
2293.00,0.0054
2290.00,0.0056
2287.00,0.0057
2284.00,0.0057
2281.00,0.0055
2278.00,0.0053
2275.00,0.0051
2272.00,0.0051
2269.00,0.0051
2266.00,0.0049
2263.00,0.0049
2260.00,0.0050
2257.00,0.0051
2254.00,0.0047
2251.00,0.0047
2248.00,0.0048
2245.00,0.0048
2242.00,0.0048
2239.00,0.0049
2236.00,0.0049
2233.00,0.0048
2230.00,0.0048
2227.00,0.0048
2224.00,0.0048
2221.00,0.0047
2218.00,0.0048
2215.00,0.0048
2212.00,0.0047
2209.00,0.0046
2206.00,0.0047
2203.00,0.0046
2200.00,0.0047
2197.00,0.0047
2194.00,0.0048
2191.00,0.0048
2188.00,0.0049
2185.00,0.0049
2182.00,0.0045
2179.00,0.0046
2176.00,0.0045
2173.00,0.0046
2170.00,0.0051
2167.00,0.0055
2164.00,0.0057
2161.00,0.0042
2158.00,0.0018
2155.00,0.0022
2152.00,0.0029
2149.00,0.0029
2146.00,0.0029
2143.00,0.0031
2140.00,0.0032
2137.00,0.0029
2134.00,0.0025
2131.00,0.0029
2128.00,0.0033
2125.00,0.0036
2122.00,0.0039
2119.00,0.0042
2116.00,0.0044
2113.00,0.0044
2110.00,0.0044
2107.00,0.0044
2104.00,0.0044
2101.00,0.0043
2098.00,0.0043
2095.00,0.0039
2092.00,0.0041
2089.00,0.0044
2086.00,0.0044
2083.00,0.0046
2080.00,0.0046
2077.00,0.0045
2074.00,0.0045
2071.00,0.0045
2068.00,0.0045
2065.00,0.0044
2062.00,0.0042
2059.00,0.0043
2056.00,0.0047
2053.00,0.0051
2050.00,0.0053
2047.00,0.0045
2044.00,0.0045
2041.00,0.0045
2038.00,0.0043
2035.00,0.0042
2032.00,0.0038
2029.00,0.0037
2026.00,0.0037
2023.00,0.0038
2020.00,0.0035
2017.00,0.0035
2014.00,0.0036
2011.00,0.0038
2008.00,0.0034
2005.00,0.0030
2002.00,0.0033
1999.00,0.0035
1996.00,0.0039
1993.00,0.0042
1990.00,0.0043
1987.00,0.0043
1984.00,0.0045
1981.00,0.0049
1978.00,0.0039
1975.00,0.0029
1972.00,0.0032
1969.00,0.0032
1966.00,0.0028
1963.00,0.0029
1960.00,0.0027
1957.00,0.0027
1954.00,0.0030
1951.00,0.0031
1948.00,0.0032
1945.00,0.0033
1942.00,0.0033
1939.00,0.0033
1936.00,0.0034
1933.00,0.0033
1930.00,0.0034
1927.00,0.0034
1924.00,0.0035
1921.00,0.0036
1918.00,0.0035
1915.00,0.0036
1912.00,0.0037
1909.00,0.0040
1906.00,0.0039
1903.00,0.0037
1900.00,0.0037
1897.00,0.0038
1894.00,0.0039
1891.00,0.0038
1888.00,0.0037
1885.00,0.0036
1882.00,0.0037
1879.00,0.0037
1876.00,0.0037
1873.00,0.0037
1870.00,0.0037
1867.00,0.0037
1864.00,0.0037
1861.00,0.0037
1858.00,0.0037
1855.00,0.0037
1852.00,0.0037
1849.00,0.0038
1846.00,0.0038
1843.00,0.0038
1840.00,0.0038
1837.00,0.0037
1834.00,0.0037
1831.00,0.0037
1828.00,0.0036
1825.00,0.0036
1822.00,0.0037
1819.00,0.0036
1816.00,0.0035
1813.00,0.0036
1810.00,0.0037
1807.00,0.0037
1804.00,0.0038
1801.00,0.0038
1798.00,0.0038
1795.00,0.0038
1792.00,0.0037
1789.00,0.0037
1786.00,0.0038
1783.00,0.0039
1780.00,0.0039
1777.00,0.0038
1774.00,0.0039
1771.00,0.0039
1768.00,0.0038
1765.00,0.0039
1762.00,0.0040
1759.00,0.0041
1756.00,0.0039
1753.00,0.0039
1750.00,0.0040
1747.00,0.0040
1744.00,0.0042
1741.00,0.0040
1738.00,0.0040
1735.00,0.0042
1732.00,0.0043
1729.00,0.0044
1726.00,0.0046
1723.00,0.0048
1720.00,0.0048
1717.00,0.0051
1714.00,0.0053
1711.00,0.0059
1708.00,0.0064
1705.00,0.0071
1702.00,0.0080
1699.00,0.0099
1696.00,0.0126
1693.00,0.0152
1690.00,0.0184
1687.00,0.0216
1684.00,0.0249
1681.00,0.0277
1678.00,0.0307
1675.00,0.0332
1672.00,0.0355
1669.00,0.0375
1666.00,0.0393
1663.00,0.0412
1660.00,0.0422
1657.00,0.0435
1654.00,0.0445
1651.00,0.0422
1648.00,0.0425
1645.00,0.0397
1642.00,0.0381
1639.00,0.0360
1636.00,0.0331
1633.00,0.0305
1630.00,0.0312
1627.00,0.0336
1624.00,0.0361
1621.00,0.0360
1618.00,0.0339
1615.00,0.0286
1612.00,0.0276
1609.00,0.0263
1606.00,0.0229
1603.00,0.0195
1600.00,0.0170
1597.00,0.0155
1594.00,0.0154
1591.00,0.0170
1588.00,0.0201
1585.00,0.0224
1582.00,0.0223
1579.00,0.0207
1576.00,0.0181
1573.00,0.0158
1570.00,0.0148
1567.00,0.0138
1564.00,0.0125
1561.00,0.0112
1558.00,0.0094
1555.00,0.0092
1552.00,0.0090
1549.00,0.0087
1546.00,0.0084
1543.00,0.0079
1540.00,0.0076
1537.00,0.0077
1534.00,0.0077
1531.00,0.0077
1528.00,0.0077
1525.00,0.0077
1522.00,0.0080
1519.00,0.0081
1516.00,0.0087
1513.00,0.0093
1510.00,0.0100
1507.00,0.0106
1504.00,0.0114
1501.00,0.0134
1498.00,0.0169
1495.00,0.0193
1492.00,0.0179
1489.00,0.0150
1486.00,0.0126
1483.00,0.0114
1480.00,0.0106
1477.00,0.0105
1474.00,0.0114
1471.00,0.0141
1468.00,0.0190
1465.00,0.0234
1462.00,0.0254
1459.00,0.0261
1456.00,0.0231
1453.00,0.0213
1450.00,0.0210
1447.00,0.0222
1444.00,0.0251
1441.00,0.0286
1438.00,0.0314
1435.00,0.0330
1432.00,0.0350
1429.00,0.0362
1426.00,0.0378
1423.00,0.0388
1420.00,0.0380
1417.00,0.0333
1414.00,0.0291
1411.00,0.0259
1408.00,0.0249
1405.00,0.0260
1402.00,0.0275
1399.00,0.0272
1396.00,0.0245
1393.00,0.0209
1390.00,0.0194
1387.00,0.0204
1384.00,0.0205
1381.00,0.0207
1378.00,0.0213
1375.00,0.0205
1372.00,0.0190
1369.00,0.0194
1366.00,0.0214
1363.00,0.0223
1360.00,0.0232
1357.00,0.0212
1354.00,0.0187
1351.00,0.0177
1348.00,0.0176
1345.00,0.0172
1342.00,0.0162
1339.00,0.0150
1336.00,0.0144
1333.00,0.0150
1330.00,0.0158
1327.00,0.0164
1324.00,0.0170
1321.00,0.0179
1318.00,0.0185
1315.00,0.0182
1312.00,0.0176
1309.00,0.0175
1306.00,0.0188
1303.00,0.0217
1300.00,0.0247
1297.00,0.0268
1294.00,0.0307
1291.00,0.0349
1288.00,0.0384
1285.00,0.0407
1282.00,0.0402
1279.00,0.0373
1276.00,0.0354
1273.00,0.0350
1270.00,0.0344
1267.00,0.0326
1264.00,0.0300
1261.00,0.0269
1258.00,0.0240
1255.00,0.0220
1252.00,0.0208
1249.00,0.0208
1246.00,0.0220
1243.00,0.0234
1240.00,0.0244
1237.00,0.0262
1234.00,0.0282
1231.00,0.0281
1228.00,0.0264
1225.00,0.0249
1222.00,0.0240
1219.00,0.0240
1216.00,0.0248
1213.00,0.0246
1210.00,0.0227
1207.00,0.0207
1204.00,0.0202
1201.00,0.0215
1198.00,0.0240
1195.00,0.0264
1192.00,0.0256
1189.00,0.0227
1186.00,0.0197
1183.00,0.0177
1180.00,0.0168
1177.00,0.0165
1174.00,0.0166
1171.00,0.0168
1168.00,0.0171
1165.00,0.0173
1162.00,0.0182
1159.00,0.0209
1156.00,0.0256
1153.00,0.0258
1150.00,0.0202
1147.00,0.0163
1144.00,0.0149
1141.00,0.0145
1138.00,0.0148
1135.00,0.0167
1132.00,0.0217
1129.00,0.0269
1126.00,0.0263
1123.00,0.0222
1120.00,0.0184
1117.00,0.0167
1114.00,0.0163
1111.00,0.0157
1108.00,0.0152
1105.00,0.0158
1102.00,0.0186
1099.00,0.0207
1096.00,0.0185
1093.00,0.0154
1090.00,0.0139
1087.00,0.0132
1084.00,0.0130
1081.00,0.0130
1078.00,0.0133
1075.00,0.0135
1072.00,0.0139
1069.00,0.0145
1066.00,0.0153
1063.00,0.0171
1060.00,0.0211
1057.00,0.0277
1054.00,0.0330
1051.00,0.0340
1048.00,0.0326
1045.00,0.0281
1042.00,0.0229
1039.00,0.0198
1036.00,0.0193
1033.00,0.0204
1030.00,0.0245
1027.00,0.0296
1024.00,0.0277
1021.00,0.0224
1018.00,0.0190
1015.00,0.0168
1012.00,0.0155
1009.00,0.0157
1006.00,0.0175
1003.00,0.0191
1000.00,0.0185
997.00,0.0172
994.00,0.0163
991.00,0.0151
988.00,0.0137
985.00,0.0128
982.00,0.0123
979.00,0.0121
976.00,0.0121
973.00,0.0120
970.00,0.0118
967.00,0.0117
964.00,0.0119
961.00,0.0120
958.00,0.0113
955.00,0.0106
952.00,0.0103
949.00,0.0105
946.00,0.0107
943.00,0.0109
940.00,0.0117
937.00,0.0127
934.00,0.0134
931.00,0.0135
928.00,0.0129
925.00,0.0130
922.00,0.0135
919.00,0.0128
916.00,0.0115
913.00,0.0108
910.00,0.0105
907.00,0.0106
904.00,0.0115
901.00,0.0132
898.00,0.0140
895.00,0.0130
892.00,0.0132
889.00,0.0136
886.00,0.0117
883.00,0.0110
880.00,0.0115
877.00,0.0132
874.00,0.0168
871.00,0.0209
868.00,0.0212
865.00,0.0185
862.00,0.0162
859.00,0.0149
856.00,0.0161
853.00,0.0186
850.00,0.0210
847.00,0.0211
844.00,0.0193
841.00,0.0183
838.00,0.0189
835.00,0.0208
832.00,0.0210
829.00,0.0185
826.00,0.0156
823.00,0.0168
820.00,0.0221
817.00,0.0239
814.00,0.0226
811.00,0.0160
808.00,0.0130
805.00,0.0117
802.00,0.0111
799.00,0.0108
796.00,0.0107
793.00,0.0106
790.00,0.0107
787.00,0.0107
784.00,0.0107
781.00,0.0109
778.00,0.0114
775.00,0.0127
772.00,0.0126
769.00,0.0120
766.00,0.0120
763.00,0.0125
760.00,0.0132
757.00,0.0136
754.00,0.0138
751.00,0.0141
748.00,0.0146
745.00,0.0153
742.00,0.0161
739.00,0.0178
736.00,0.0210
733.00,0.0218
730.00,0.0208
727.00,0.0201
724.00,0.0176
721.00,0.0161
718.00,0.0163
715.00,0.0171
712.00,0.0170
709.00,0.0164
706.00,0.0161
703.00,0.0166
700.00,0.0172
697.00,0.0178
694.00,0.0177
691.00,0.0181
688.00,0.0194
685.00,0.0192
682.00,0.0191
679.00,0.0196
676.00,0.0206
673.00,0.0221
670.00,0.0232
667.00,0.0234
664.00,0.0237
661.00,0.0250
658.00,0.0251
655.00,0.0250
652.00,0.0255
649.00,0.0259
646.00,0.0258
643.00,0.0252
640.00,0.0248
637.00,0.0243
634.00,0.0237
631.00,0.0234
628.00,0.0233
625.00,0.0235
622.00,0.0241
619.00,0.0244
616.00,0.0238
613.00,0.0230
610.00,0.0230
607.00,0.0244
604.00,0.0267
601.00,0.0274
598.00,0.0273
595.00,0.0272
592.00,0.0274
589.00,0.0274
586.00,0.0278
583.00,0.0287
580.00,0.0300
577.00,0.0318
574.00,0.0319
571.00,0.0306
568.00,0.0298
565.00,0.0298
562.00,0.0305
559.00,0.0311
556.00,0.0303
553.00,0.0292
550.00,0.0293
547.00,0.0303
544.00,0.0304
541.00,0.0294
538.00,0.0284
535.00,0.0285
532.00,0.0297
529.00,0.0299
526.00,0.0283
523.00,0.0275
520.00,0.0272
517.00,0.0268
514.00,0.0267
511.00,0.0264
508.00,0.0269
505.00,0.0277
502.00,0.0269
499.00,0.0267
496.00,0.0270
493.00,0.0273
490.00,0.0274
487.00,0.0270
484.00,0.0267
481.00,0.0268
478.00,0.0269
475.00,0.0263
472.00,0.0266
469.00,0.0270
466.00,0.0267
463.00,0.0269
460.00,0.0262
457.00,0.0262
454.00,0.0261
451.00,0.0261
448.00,0.0258
445.00,0.0259
442.00,0.0249
439.00,0.0247
436.00,0.0240
433.00,0.0240
430.00,0.0232
427.00,0.0231
424.00,0.0225
421.00,0.0229
418.00,0.0223
415.00,0.0215
412.00,0.0234
409.00,0.0224
406.00,0.0217
403.00,0.0223
400.00,0.0195