File: FTIR/Olivia/2025_08_12_Polystyrene_film_scan1.csv
Created as New Dataset,Sample 038 By YargerLab Date Tuesday, August 12 2025
cm-1,A
4000.00,0.0003
3997.00,0.0003
3994.00,0.0002
3991.00,0.0002
3988.00,0.0003
3985.00,0.0003
3982.00,0.0002
3979.00,0.0003
3976.00,0.0003
3973.00,0.0002
3970.00,0.0002
3967.00,0.0002
3964.00,0.0002
3961.00,0.0002
3958.00,0.0002
3955.00,0.0002
3952.00,0.0002
3949.00,0.0002
3946.00,0.0003
3943.00,0.0003
3940.00,0.0002
3937.00,0.0002
3934.00,0.0002
3931.00,0.0002
3928.00,0.0002
3925.00,0.0003
3922.00,0.0003
3919.00,0.0002
3916.00,0.0002
3913.00,0.0002
3910.00,0.0003
3907.00,0.0002
3904.00,0.0002
3901.00,0.0001
3898.00,0.0002
3895.00,0.0002
3892.00,0.0002
3889.00,0.0002
3886.00,0.0002
3883.00,0.0002
3880.00,0.0002
3877.00,0.0002
3874.00,0.0002
3871.00,0.0001
3868.00,0.0002
3865.00,0.0002
3862.00,0.0002
3859.00,0.0002
3856.00,0.0001
3853.00,0.0001
3850.00,0.0001
3847.00,0.0002
3844.00,0.0002
3841.00,0.0002
3838.00,0.0002
3835.00,0.0002
3832.00,0.0002
3829.00,0.0002
3826.00,0.0002
3823.00,0.0002
3820.00,0.0002
3817.00,0.0001
3814.00,0.0002
3811.00,0.0002
3808.00,0.0002
3805.00,0.0003
3802.00,0.0002
3799.00,0.0002
3796.00,0.0002
3793.00,0.0002
3790.00,0.0002
3787.00,0.0003
3784.00,0.0003
3781.00,0.0002
3778.00,0.0002
3775.00,0.0002
3772.00,0.0002
3769.00,0.0002
3766.00,0.0002
3763.00,0.0003
3760.00,0.0002
3757.00,0.0002
3754.00,0.0003
3751.00,0.0002
3748.00,0.0000
3745.00,-0.0000
3742.00,0.0001
3739.00,0.0001
3736.00,0.0001
3733.00,0.0000
3730.00,-0.0000
3727.00,0.0001
3724.00,0.0002
3721.00,0.0002
3718.00,0.0002
3715.00,0.0002
3712.00,0.0001
3709.00,0.0000
3706.00,0.0001
3703.00,0.0002
3700.00,0.0001
3697.00,0.0001
3694.00,0.0001
3691.00,0.0001
3688.00,0.0001
3685.00,0.0001
3682.00,0.0001
3679.00,0.0001
3676.00,0.0000
3673.00,-0.0000
3670.00,-0.0000
3667.00,0.0001
3664.00,0.0001
3661.00,0.0002
3658.00,0.0001
3655.00,0.0001
3652.00,0.0000
3649.00,0.0001
3646.00,0.0000
3643.00,0.0001
3640.00,0.0001
3637.00,0.0002
3634.00,0.0001
3631.00,0.0001
3628.00,0.0000
3625.00,0.0000
3622.00,0.0001
3619.00,0.0000
3616.00,0.0000
3613.00,-0.0000
3610.00,0.0000
3607.00,0.0001
3604.00,0.0001
3601.00,0.0001
3598.00,0.0001
3595.00,0.0001
3592.00,0.0001
3589.00,0.0001
3586.00,0.0000
3583.00,0.0001
3580.00,0.0002
3577.00,0.0001
3574.00,0.0002
3571.00,0.0002
3568.00,0.0001
3565.00,0.0001
3562.00,0.0002
3559.00,0.0002
3556.00,0.0002
3553.00,0.0002
3550.00,0.0002
3547.00,0.0002
3544.00,0.0002
3541.00,0.0002
3538.00,0.0002
3535.00,0.0003
3532.00,0.0003
3529.00,0.0003
3526.00,0.0003
3523.00,0.0002
3520.00,0.0003
3517.00,0.0003
3514.00,0.0003
3511.00,0.0002
3508.00,0.0002
3505.00,0.0002
3502.00,0.0002
3499.00,0.0002
3496.00,0.0003
3493.00,0.0003
3490.00,0.0003
3487.00,0.0003
3484.00,0.0003
3481.00,0.0003
3478.00,0.0003
3475.00,0.0003
3472.00,0.0003
3469.00,0.0003
3466.00,0.0003
3463.00,0.0003
3460.00,0.0003
3457.00,0.0003
3454.00,0.0003
3451.00,0.0003
3448.00,0.0003
3445.00,0.0003
3442.00,0.0003
3439.00,0.0004
3436.00,0.0004
3433.00,0.0004
3430.00,0.0004
3427.00,0.0003
3424.00,0.0003
3421.00,0.0003
3418.00,0.0003
3415.00,0.0003
3412.00,0.0003
3409.00,0.0004
3406.00,0.0003
3403.00,0.0004
3400.00,0.0004
3397.00,0.0003
3394.00,0.0003
3391.00,0.0004
3388.00,0.0004
3385.00,0.0004
3382.00,0.0004
3379.00,0.0004
3376.00,0.0003
3373.00,0.0003
3370.00,0.0003
3367.00,0.0004
3364.00,0.0003
3361.00,0.0003
3358.00,0.0003
3355.00,0.0004
3352.00,0.0004
3349.00,0.0004
3346.00,0.0004
3343.00,0.0004
3340.00,0.0004
3337.00,0.0004
3334.00,0.0004
3331.00,0.0004
3328.00,0.0004
3325.00,0.0004
3322.00,0.0004
3319.00,0.0004
3316.00,0.0004
3313.00,0.0004
3310.00,0.0004
3307.00,0.0005
3304.00,0.0004
3301.00,0.0004
3298.00,0.0005
3295.00,0.0005
3292.00,0.0004
3289.00,0.0004
3286.00,0.0004
3283.00,0.0004
3280.00,0.0004
3277.00,0.0004
3274.00,0.0004
3271.00,0.0004
3268.00,0.0004
3265.00,0.0004
3262.00,0.0004
3259.00,0.0004
3256.00,0.0004
3253.00,0.0004
3250.00,0.0004
3247.00,0.0004
3244.00,0.0004
3241.00,0.0003
3238.00,0.0004
3235.00,0.0004
3232.00,0.0004
3229.00,0.0003
3226.00,0.0002
3223.00,0.0003
3220.00,0.0003
3217.00,0.0003
3214.00,0.0004
3211.00,0.0004
3208.00,0.0004
3205.00,0.0003
3202.00,0.0003
3199.00,0.0003
3196.00,0.0003
3193.00,0.0003
3190.00,0.0003
3187.00,0.0003
3184.00,0.0003
3181.00,0.0003
3178.00,0.0003
3175.00,0.0003
3172.00,0.0003
3169.00,0.0003
3166.00,0.0003
3163.00,0.0004
3160.00,0.0003
3157.00,0.0003
3154.00,0.0003
3151.00,0.0003
3148.00,0.0003
3145.00,0.0003
3142.00,0.0003
3139.00,0.0003
3136.00,0.0003
3133.00,0.0003
3130.00,0.0003
3127.00,0.0003
3124.00,0.0003
3121.00,0.0003
3118.00,0.0004
3115.00,0.0004
3112.00,0.0006
3109.00,0.0007
3106.00,0.0009
3103.00,0.0010
3100.00,0.0010
3097.00,0.0010
3094.00,0.0010
3091.00,0.0012
3088.00,0.0017
3085.00,0.0023
3082.00,0.0027
3079.00,0.0025
3076.00,0.0021
3073.00,0.0019
3070.00,0.0020
3067.00,0.0024
3064.00,0.0031
3061.00,0.0036
3058.00,0.0036
3055.00,0.0032
3052.00,0.0026
3049.00,0.0021
3046.00,0.0019
3043.00,0.0019
3040.00,0.0021
3037.00,0.0026
3034.00,0.0035
3031.00,0.0049
3028.00,0.0065
3025.00,0.0074
3022.00,0.0066
3019.00,0.0047
3016.00,0.0031
3013.00,0.0022
3010.00,0.0017
3007.00,0.0017
3004.00,0.0019
3001.00,0.0019
2998.00,0.0017
2995.00,0.0013
2992.00,0.0010
2989.00,0.0009
2986.00,0.0009
2983.00,0.0009
2980.00,0.0009
2977.00,0.0010
2974.00,0.0010
2971.00,0.0011
2968.00,0.0011
2965.00,0.0012
2962.00,0.0014
2959.00,0.0016
2956.00,0.0019
2953.00,0.0021
2950.00,0.0025
2947.00,0.0030
2944.00,0.0035
2941.00,0.0041
2938.00,0.0049
2935.00,0.0059
2932.00,0.0068
2929.00,0.0078
2926.00,0.0085
2923.00,0.0089
2920.00,0.0089
2917.00,0.0086
2914.00,0.0081
2911.00,0.0075
2908.00,0.0068
2905.00,0.0061
2902.00,0.0054
2899.00,0.0046
2896.00,0.0040
2893.00,0.0036
2890.00,0.0033
2887.00,0.0030
2884.00,0.0028
2881.00,0.0026
2878.00,0.0024
2875.00,0.0022
2872.00,0.0021
2869.00,0.0020
2866.00,0.0021
2863.00,0.0023
2860.00,0.0026
2857.00,0.0030
2854.00,0.0035
2851.00,0.0038
2848.00,0.0038
2845.00,0.0035
2842.00,0.0029
2839.00,0.0022
2836.00,0.0016
2833.00,0.0012
2830.00,0.0010
2827.00,0.0008
2824.00,0.0007
2821.00,0.0007
2818.00,0.0007
2815.00,0.0007
2812.00,0.0006
2809.00,0.0006
2806.00,0.0006
2803.00,0.0006
2800.00,0.0006
2797.00,0.0006
2794.00,0.0005
2791.00,0.0005
2788.00,0.0005
2785.00,0.0005
2782.00,0.0005
2779.00,0.0005
2776.00,0.0005
2773.00,0.0004
2770.00,0.0004
2767.00,0.0004
2764.00,0.0004
2761.00,0.0004
2758.00,0.0004
2755.00,0.0005
2752.00,0.0004
2749.00,0.0004
2746.00,0.0004
2743.00,0.0004
2740.00,0.0004
2737.00,0.0004
2734.00,0.0004
2731.00,0.0004
2728.00,0.0004
2725.00,0.0004
2722.00,0.0004
2719.00,0.0004
2716.00,0.0004
2713.00,0.0004
2710.00,0.0004
2707.00,0.0004
2704.00,0.0004
2701.00,0.0004
2698.00,0.0004
2695.00,0.0004
2692.00,0.0004
2689.00,0.0004
2686.00,0.0004
2683.00,0.0004
2680.00,0.0004
2677.00,0.0004
2674.00,0.0004
2671.00,0.0004
2668.00,0.0004
2665.00,0.0005
2662.00,0.0006
2659.00,0.0007
2656.00,0.0008
2653.00,0.0008
2650.00,0.0008
2647.00,0.0008
2644.00,0.0008
2641.00,0.0009
2638.00,0.0008
2635.00,0.0008
2632.00,0.0008
2629.00,0.0008
2626.00,0.0008
2623.00,0.0007
2620.00,0.0006
2617.00,0.0007
2614.00,0.0007
2611.00,0.0006
2608.00,0.0006
2605.00,0.0007
2602.00,0.0006
2599.00,0.0006
2596.00,0.0005
2593.00,0.0005
2590.00,0.0005
2587.00,0.0005
2584.00,0.0005
2581.00,0.0005
2578.00,0.0005
2575.00,0.0004
2572.00,0.0004
2569.00,0.0004
2566.00,0.0003
2563.00,0.0004
2560.00,0.0004
2557.00,0.0004
2554.00,0.0004
2551.00,0.0003
2548.00,0.0002
2545.00,0.0002
2542.00,0.0003
2539.00,0.0003
2536.00,0.0003
2533.00,0.0003
2530.00,0.0002
2527.00,0.0002
2524.00,0.0002
2521.00,0.0003
2518.00,0.0003
2515.00,0.0003
2512.00,0.0003
2509.00,0.0002
2506.00,0.0002
2503.00,0.0002
2500.00,0.0002
2497.00,0.0002
2494.00,0.0002
2491.00,0.0002
2488.00,0.0002
2485.00,0.0002
2482.00,0.0002
2479.00,0.0002
2476.00,0.0001
2473.00,0.0001
2470.00,0.0002
2467.00,0.0002
2464.00,0.0002
2461.00,0.0002
2458.00,0.0003
2455.00,0.0004
2452.00,0.0003
2449.00,0.0002
2446.00,0.0002
2443.00,0.0002
2440.00,0.0001
2437.00,0.0001
2434.00,0.0001
2431.00,0.0001
2428.00,0.0001
2425.00,-0.0000
2422.00,-0.0000
2419.00,-0.0000
2416.00,0.0000
2413.00,0.0000
2410.00,-0.0000
2407.00,-0.0001
2404.00,-0.0002
2401.00,-0.0001
2398.00,-0.0001
2395.00,-0.0001
2392.00,-0.0001
2389.00,-0.0002
2386.00,-0.0002
2383.00,-0.0004
2380.00,-0.0005
2377.00,-0.0005
2374.00,-0.0006
2371.00,-0.0007
2368.00,-0.0007
2365.00,-0.0006
2362.00,-0.0006
2359.00,-0.0006
2356.00,-0.0005
2353.00,-0.0005
2350.00,-0.0005
2347.00,-0.0003
2344.00,-0.0003
2341.00,-0.0002
2338.00,-0.0001
2335.00,-0.0001
2332.00,-0.0001
2329.00,0.0000
2326.00,0.0008
2323.00,0.0008
2320.00,0.0005
2317.00,0.0004
2314.00,0.0003
2311.00,0.0002
2308.00,0.0002
2305.00,0.0004
2302.00,0.0004
2299.00,0.0004
2296.00,0.0005
2293.00,0.0008
2290.00,0.0010
2287.00,0.0010
2284.00,0.0011
2281.00,0.0008
2278.00,0.0006
2275.00,0.0006
2272.00,0.0006
2269.00,0.0005
2266.00,0.0003
2263.00,0.0004
2260.00,0.0005
2257.00,0.0003
2254.00,0.0003
2251.00,0.0003
2248.00,0.0003
2245.00,0.0003
2242.00,0.0002
2239.00,0.0004
2236.00,0.0004
2233.00,0.0004
2230.00,0.0003
2227.00,0.0002
2224.00,0.0002
2221.00,0.0004
2218.00,0.0002
2215.00,0.0001
2212.00,0.0003
2209.00,0.0001
2206.00,0.0002
2203.00,0.0003
2200.00,0.0004
2197.00,0.0003
2194.00,0.0002
2191.00,0.0003
2188.00,0.0004
2185.00,0.0001
2182.00,-0.0004
2179.00,-0.0003
2176.00,-0.0005
2173.00,-0.0001
2170.00,0.0005
2167.00,0.0009
2164.00,0.0010
2161.00,-0.0001
2158.00,-0.0022
2155.00,-0.0019
2152.00,-0.0015
2149.00,-0.0015
2146.00,-0.0012
2143.00,-0.0012
2140.00,-0.0013
2137.00,-0.0014
2134.00,-0.0017
2131.00,-0.0014
2128.00,-0.0010
2125.00,-0.0008
2122.00,-0.0005
2119.00,-0.0003
2116.00,-0.0001
2113.00,-0.0001
2110.00,0.0000
2107.00,-0.0001
2104.00,-0.0001
2101.00,-0.0001
2098.00,-0.0002
2095.00,-0.0005
2092.00,-0.0002
2089.00,-0.0000
2086.00,0.0001
2083.00,0.0001
2080.00,0.0002
2077.00,0.0002
2074.00,0.0002
2071.00,-0.0001
2068.00,-0.0003
2065.00,-0.0002
2062.00,-0.0002
2059.00,-0.0001
2056.00,0.0001
2053.00,0.0006
2050.00,0.0009
2047.00,0.0003
2044.00,0.0003
2041.00,0.0001
2038.00,0.0001
2035.00,0.0001
2032.00,-0.0001
2029.00,-0.0004
2026.00,-0.0005
2023.00,-0.0005
2020.00,-0.0005
2017.00,-0.0007
2014.00,-0.0006
2011.00,-0.0005
2008.00,-0.0008
2005.00,-0.0011
2002.00,-0.0007
1999.00,-0.0005
1996.00,-0.0003
1993.00,-0.0002
1990.00,0.0000
1987.00,0.0003
1984.00,0.0004
1981.00,0.0008
1978.00,-0.0003
1975.00,-0.0006
1972.00,-0.0004
1969.00,-0.0004
1966.00,-0.0005
1963.00,-0.0002
1960.00,-0.0004
1957.00,-0.0005
1954.00,-0.0001
1951.00,0.0003
1948.00,0.0003
1945.00,0.0005
1942.00,0.0005
1939.00,0.0003
1936.00,0.0001
1933.00,-0.0001
1930.00,-0.0002
1927.00,-0.0002
1924.00,-0.0003
1921.00,-0.0002
1918.00,-0.0002
1915.00,-0.0003
1912.00,-0.0003
1909.00,-0.0003
1906.00,-0.0003
1903.00,-0.0001
1900.00,-0.0001
1897.00,-0.0001
1894.00,0.0001
1891.00,0.0002
1888.00,0.0003
1885.00,0.0004
1882.00,0.0005
1879.00,0.0005
1876.00,0.0006
1873.00,0.0006
1870.00,0.0006
1867.00,0.0006
1864.00,0.0006
1861.00,0.0004
1858.00,0.0002
1855.00,0.0001
1852.00,-0.0001
1849.00,-0.0002
1846.00,-0.0002
1843.00,-0.0001
1840.00,-0.0001
1837.00,-0.0001
1834.00,-0.0001
1831.00,-0.0000
1828.00,0.0001
1825.00,0.0002
1822.00,0.0003
1819.00,0.0002
1816.00,0.0003
1813.00,0.0005
1810.00,0.0007
1807.00,0.0009
1804.00,0.0010
1801.00,0.0011
1798.00,0.0010
1795.00,0.0008
1792.00,0.0006
1789.00,0.0004
1786.00,0.0004
1783.00,0.0004
1780.00,0.0003
1777.00,0.0003
1774.00,0.0003
1771.00,0.0003
1768.00,0.0004
1765.00,0.0005
1762.00,0.0006
1759.00,0.0007
1756.00,0.0008
1753.00,0.0009
1750.00,0.0011
1747.00,0.0012
1744.00,0.0013
1741.00,0.0013
1738.00,0.0013
1735.00,0.0012
1732.00,0.0010
1729.00,0.0009
1726.00,0.0009
1723.00,0.0009
1720.00,0.0008
1717.00,0.0008
1714.00,0.0008
1711.00,0.0007
1708.00,0.0007
1705.00,0.0007
1702.00,0.0007
1699.00,0.0007
1696.00,0.0007
1693.00,0.0008
1690.00,0.0008
1687.00,0.0009
1684.00,0.0010
1681.00,0.0010
1678.00,0.0010
1675.00,0.0011
1672.00,0.0012
1669.00,0.0012
1666.00,0.0012
1663.00,0.0012
1660.00,0.0012
1657.00,0.0011
1654.00,0.0010
1651.00,0.0009
1648.00,0.0009
1645.00,0.0008
1642.00,0.0007
1639.00,0.0007
1636.00,0.0007
1633.00,0.0007
1630.00,0.0008
1627.00,0.0009
1624.00,0.0010
1621.00,0.0011
1618.00,0.0011
1615.00,0.0013
1612.00,0.0017
1609.00,0.0027
1606.00,0.0048
1603.00,0.0077
1600.00,0.0086
1597.00,0.0062
1594.00,0.0039
1591.00,0.0028
1588.00,0.0026
1585.00,0.0033
1582.00,0.0036
1579.00,0.0025
1576.00,0.0015
1573.00,0.0011
1570.00,0.0010
1567.00,0.0008
1564.00,0.0008
1561.00,0.0008
1558.00,0.0008
1555.00,0.0008
1552.00,0.0010
1549.00,0.0011
1546.00,0.0013
1543.00,0.0014
1540.00,0.0013
1537.00,0.0012
1534.00,0.0011
1531.00,0.0010
1528.00,0.0009
1525.00,0.0009
1522.00,0.0008
1519.00,0.0008
1516.00,0.0009
1513.00,0.0011
1510.00,0.0013
1507.00,0.0014
1504.00,0.0018
1501.00,0.0030
1498.00,0.0065
1495.00,0.0168
1492.00,0.0233
1489.00,0.0143
1486.00,0.0071
1483.00,0.0043
1480.00,0.0030
1477.00,0.0025
1474.00,0.0023
1471.00,0.0022
1468.00,0.0024
1465.00,0.0027
1462.00,0.0032
1459.00,0.0049
1456.00,0.0124
1453.00,0.0217
1450.00,0.0223
1447.00,0.0167
1444.00,0.0130
1441.00,0.0100
1438.00,0.0081
1435.00,0.0055
1432.00,0.0042
1429.00,0.0032
1426.00,0.0026
1423.00,0.0023
1420.00,0.0021
1417.00,0.0019
1414.00,0.0018
1411.00,0.0018
1408.00,0.0018
1405.00,0.0019
1402.00,0.0019
1399.00,0.0019
1396.00,0.0020
1393.00,0.0022
1390.00,0.0026
1387.00,0.0031
1384.00,0.0036
1381.00,0.0041
1378.00,0.0045
1375.00,0.0049
1372.00,0.0050
1369.00,0.0050
1366.00,0.0049
1363.00,0.0049
1360.00,0.0046
1357.00,0.0044
1354.00,0.0043
1351.00,0.0042
1348.00,0.0041
1345.00,0.0040
1342.00,0.0038
1339.00,0.0036
1336.00,0.0037
1333.00,0.0040
1330.00,0.0043
1327.00,0.0043
1324.00,0.0041
1321.00,0.0040
1318.00,0.0040
1315.00,0.0042
1312.00,0.0042
1309.00,0.0042
1306.00,0.0040
1303.00,0.0038
1300.00,0.0035
1297.00,0.0035
1294.00,0.0035
1291.00,0.0034
1288.00,0.0033
1285.00,0.0032
1282.00,0.0032
1279.00,0.0031
1276.00,0.0028
1273.00,0.0026
1270.00,0.0024
1267.00,0.0022
1264.00,0.0022
1261.00,0.0021
1258.00,0.0021
1255.00,0.0021
1252.00,0.0022
1249.00,0.0022
1246.00,0.0023
1243.00,0.0023
1240.00,0.0023
1237.00,0.0023
1234.00,0.0023
1231.00,0.0023
1228.00,0.0023
1225.00,0.0023
1222.00,0.0024
1219.00,0.0024
1216.00,0.0023
1213.00,0.0025
1210.00,0.0026
1207.00,0.0028
1204.00,0.0031
1201.00,0.0035
1198.00,0.0038
1195.00,0.0039
1192.00,0.0040
1189.00,0.0041
1186.00,0.0044
1183.00,0.0052
1180.00,0.0052
1177.00,0.0043
1174.00,0.0034
1171.00,0.0031
1168.00,0.0030
1165.00,0.0030
1162.00,0.0034
1159.00,0.0042
1156.00,0.0054
1153.00,0.0054
1150.00,0.0041
1147.00,0.0030
1144.00,0.0025
1141.00,0.0022
1138.00,0.0021
1135.00,0.0021
1132.00,0.0021
1129.00,0.0021
1126.00,0.0021
1123.00,0.0021
1120.00,0.0023
1117.00,0.0026
1114.00,0.0029
1111.00,0.0029
1108.00,0.0029
1105.00,0.0029
1102.00,0.0030
1099.00,0.0030
1096.00,0.0032
1093.00,0.0035
1090.00,0.0036
1087.00,0.0038
1084.00,0.0043
1081.00,0.0049
1078.00,0.0055
1075.00,0.0063
1072.00,0.0073
1069.00,0.0079
1066.00,0.0075
1063.00,0.0067
1060.00,0.0059
1057.00,0.0054
1054.00,0.0049
1051.00,0.0046
1048.00,0.0043
1045.00,0.0040
1042.00,0.0039
1039.00,0.0042
1036.00,0.0057
1033.00,0.0092
1030.00,0.0128
1027.00,0.0135
1024.00,0.0110
1021.00,0.0086
1018.00,0.0072
1015.00,0.0062
1012.00,0.0055
1009.00,0.0053
1006.00,0.0055
1003.00,0.0059
1000.00,0.0051
997.00,0.0043
994.00,0.0041
991.00,0.0042
988.00,0.0044
985.00,0.0048
982.00,0.0053
979.00,0.0053
976.00,0.0051
973.00,0.0049
970.00,0.0051
967.00,0.0057
964.00,0.0059
961.00,0.0055
958.00,0.0047
955.00,0.0043
952.00,0.0042
949.00,0.0044
946.00,0.0046
943.00,0.0047
940.00,0.0046
937.00,0.0041
934.00,0.0036
931.00,0.0032
928.00,0.0031
925.00,0.0033
922.00,0.0036
919.00,0.0040
916.00,0.0050
913.00,0.0066
910.00,0.0086
907.00,0.0100
904.00,0.0095
901.00,0.0074
898.00,0.0053
895.00,0.0040
892.00,0.0034
889.00,0.0030
886.00,0.0027
883.00,0.0026
880.00,0.0025
877.00,0.0025
874.00,0.0024
871.00,0.0022
868.00,0.0022
865.00,0.0022
862.00,0.0022
859.00,0.0022
856.00,0.0023
853.00,0.0026
850.00,0.0031
847.00,0.0040
844.00,0.0048
841.00,0.0050
838.00,0.0045
835.00,0.0036
832.00,0.0027
829.00,0.0022
826.00,0.0021
823.00,0.0021
820.00,0.0022
817.00,0.0022
814.00,0.0022
811.00,0.0024
808.00,0.0023
805.00,0.0024
802.00,0.0025
799.00,0.0028
796.00,0.0033
793.00,0.0039
790.00,0.0047
787.00,0.0056
784.00,0.0069
781.00,0.0084
778.00,0.0106
775.00,0.0138
772.00,0.0179
769.00,0.0232
766.00,0.0284
763.00,0.0336
760.00,0.0391
757.00,0.0435
754.00,0.0449
751.00,0.0445
748.00,0.0441
745.00,0.0406
742.00,0.0322
739.00,0.0237
736.00,0.0170
733.00,0.0112
730.00,0.0075
727.00,0.0056
724.00,0.0051
721.00,0.0050
718.00,0.0051
715.00,0.0063
712.00,0.0093
709.00,0.0176
706.00,0.0344
703.00,0.0609
700.00,0.0938
697.00,0.1255
694.00,0.1378
691.00,0.1079
688.00,0.0706
685.00,0.0489
682.00,0.0369
679.00,0.0294
676.00,0.0249
673.00,0.0218
670.00,0.0198
667.00,0.0175
664.00,0.0154
661.00,0.0134
658.00,0.0115
655.00,0.0099
652.00,0.0086
649.00,0.0079
646.00,0.0073
643.00,0.0070
640.00,0.0068
637.00,0.0072
634.00,0.0079
631.00,0.0085
628.00,0.0091
625.00,0.0093
622.00,0.0098
619.00,0.0097
616.00,0.0089
613.00,0.0084
610.00,0.0076
607.00,0.0075
604.00,0.0078
601.00,0.0077
598.00,0.0077
595.00,0.0082
592.00,0.0089
589.00,0.0092
586.00,0.0096
583.00,0.0104
580.00,0.0116
577.00,0.0130
574.00,0.0149
571.00,0.0170
568.00,0.0191
565.00,0.0208
562.00,0.0226
559.00,0.0248
556.00,0.0266
553.00,0.0290
550.00,0.0319
547.00,0.0355
544.00,0.0406
541.00,0.0460
538.00,0.0487
535.00,0.0465
532.00,0.0403
529.00,0.0332
526.00,0.0267
523.00,0.0214
520.00,0.0186
517.00,0.0168
514.00,0.0152
511.00,0.0135
508.00,0.0125
505.00,0.0116
502.00,0.0107
499.00,0.0098
496.00,0.0094
493.00,0.0092
490.00,0.0089
487.00,0.0084
484.00,0.0080
481.00,0.0076
478.00,0.0072
475.00,0.0067
472.00,0.0074
469.00,0.0071
466.00,0.0069
463.00,0.0066
460.00,0.0065
457.00,0.0072
454.00,0.0066
451.00,0.0058
448.00,0.0058
445.00,0.0068
442.00,0.0062
439.00,0.0057
436.00,0.0056
433.00,0.0053
430.00,0.0045
427.00,0.0044
424.00,0.0047
421.00,0.0054
418.00,0.0048
415.00,0.0033
412.00,0.0034
409.00,0.0056
406.00,0.0066
403.00,0.0068
400.00,0.0073