File: FTIR/Olivia/2025_06_06_Crystalline_Nifedipine_05_25_DSC_Scan2.csv
Created as New Dataset,Sample 627 By YargerLab Date Friday, June 06 2025
cm-1,A
4000.00,0.0070
3997.00,0.0069
3994.00,0.0069
3991.00,0.0069
3988.00,0.0069
3985.00,0.0069
3982.00,0.0069
3979.00,0.0069
3976.00,0.0070
3973.00,0.0069
3970.00,0.0069
3967.00,0.0069
3964.00,0.0070
3961.00,0.0069
3958.00,0.0070
3955.00,0.0070
3952.00,0.0069
3949.00,0.0069
3946.00,0.0069
3943.00,0.0069
3940.00,0.0070
3937.00,0.0069
3934.00,0.0069
3931.00,0.0069
3928.00,0.0069
3925.00,0.0069
3922.00,0.0069
3919.00,0.0068
3916.00,0.0069
3913.00,0.0069
3910.00,0.0068
3907.00,0.0068
3904.00,0.0068
3901.00,0.0069
3898.00,0.0068
3895.00,0.0068
3892.00,0.0067
3889.00,0.0067
3886.00,0.0067
3883.00,0.0067
3880.00,0.0068
3877.00,0.0067
3874.00,0.0067
3871.00,0.0067
3868.00,0.0066
3865.00,0.0067
3862.00,0.0067
3859.00,0.0066
3856.00,0.0065
3853.00,0.0067
3850.00,0.0067
3847.00,0.0066
3844.00,0.0066
3841.00,0.0066
3838.00,0.0066
3835.00,0.0067
3832.00,0.0066
3829.00,0.0067
3826.00,0.0066
3823.00,0.0066
3820.00,0.0065
3817.00,0.0065
3814.00,0.0066
3811.00,0.0066
3808.00,0.0066
3805.00,0.0066
3802.00,0.0066
3799.00,0.0065
3796.00,0.0065
3793.00,0.0066
3790.00,0.0066
3787.00,0.0066
3784.00,0.0066
3781.00,0.0066
3778.00,0.0066
3775.00,0.0067
3772.00,0.0066
3769.00,0.0066
3766.00,0.0066
3763.00,0.0066
3760.00,0.0066
3757.00,0.0066
3754.00,0.0066
3751.00,0.0065
3748.00,0.0064
3745.00,0.0066
3742.00,0.0065
3739.00,0.0064
3736.00,0.0065
3733.00,0.0064
3730.00,0.0065
3727.00,0.0065
3724.00,0.0065
3721.00,0.0064
3718.00,0.0063
3715.00,0.0064
3712.00,0.0064
3709.00,0.0064
3706.00,0.0064
3703.00,0.0064
3700.00,0.0064
3697.00,0.0063
3694.00,0.0061
3691.00,0.0060
3688.00,0.0059
3685.00,0.0060
3682.00,0.0059
3679.00,0.0056
3676.00,0.0053
3673.00,0.0052
3670.00,0.0052
3667.00,0.0051
3664.00,0.0051
3661.00,0.0050
3658.00,0.0050
3655.00,0.0051
3652.00,0.0051
3649.00,0.0051
3646.00,0.0052
3643.00,0.0053
3640.00,0.0053
3637.00,0.0054
3634.00,0.0056
3631.00,0.0058
3628.00,0.0060
3625.00,0.0060
3622.00,0.0060
3619.00,0.0059
3616.00,0.0060
3613.00,0.0060
3610.00,0.0061
3607.00,0.0062
3604.00,0.0061
3601.00,0.0061
3598.00,0.0060
3595.00,0.0061
3592.00,0.0061
3589.00,0.0060
3586.00,0.0060
3583.00,0.0061
3580.00,0.0061
3577.00,0.0060
3574.00,0.0060
3571.00,0.0060
3568.00,0.0060
3565.00,0.0060
3562.00,0.0060
3559.00,0.0060
3556.00,0.0060
3553.00,0.0061
3550.00,0.0060
3547.00,0.0060
3544.00,0.0061
3541.00,0.0061
3538.00,0.0061
3535.00,0.0061
3532.00,0.0061
3529.00,0.0060
3526.00,0.0060
3523.00,0.0061
3520.00,0.0061
3517.00,0.0061
3514.00,0.0061
3511.00,0.0060
3508.00,0.0060
3505.00,0.0060
3502.00,0.0060
3499.00,0.0060
3496.00,0.0060
3493.00,0.0060
3490.00,0.0060
3487.00,0.0060
3484.00,0.0060
3481.00,0.0060
3478.00,0.0059
3475.00,0.0059
3472.00,0.0059
3469.00,0.0060
3466.00,0.0060
3463.00,0.0059
3460.00,0.0059
3457.00,0.0059
3454.00,0.0059
3451.00,0.0060
3448.00,0.0060
3445.00,0.0060
3442.00,0.0060
3439.00,0.0060
3436.00,0.0060
3433.00,0.0061
3430.00,0.0061
3427.00,0.0061
3424.00,0.0062
3421.00,0.0063
3418.00,0.0064
3415.00,0.0064
3412.00,0.0064
3409.00,0.0066
3406.00,0.0067
3403.00,0.0068
3400.00,0.0069
3397.00,0.0072
3394.00,0.0074
3391.00,0.0078
3388.00,0.0083
3385.00,0.0088
3382.00,0.0093
3379.00,0.0098
3376.00,0.0104
3373.00,0.0108
3370.00,0.0111
3367.00,0.0120
3364.00,0.0133
3361.00,0.0146
3358.00,0.0163
3355.00,0.0182
3352.00,0.0202
3349.00,0.0231
3346.00,0.0269
3343.00,0.0314
3340.00,0.0370
3337.00,0.0432
3334.00,0.0486
3331.00,0.0514
3328.00,0.0521
3325.00,0.0517
3322.00,0.0507
3319.00,0.0484
3316.00,0.0450
3313.00,0.0410
3310.00,0.0370
3307.00,0.0337
3304.00,0.0313
3301.00,0.0294
3298.00,0.0278
3295.00,0.0265
3292.00,0.0255
3289.00,0.0245
3286.00,0.0232
3283.00,0.0220
3280.00,0.0210
3277.00,0.0203
3274.00,0.0199
3271.00,0.0197
3268.00,0.0199
3265.00,0.0199
3262.00,0.0197
3259.00,0.0194
3256.00,0.0191
3253.00,0.0189
3250.00,0.0187
3247.00,0.0185
3244.00,0.0187
3241.00,0.0186
3238.00,0.0184
3235.00,0.0177
3232.00,0.0171
3229.00,0.0164
3226.00,0.0156
3223.00,0.0147
3220.00,0.0141
3217.00,0.0135
3214.00,0.0130
3211.00,0.0126
3208.00,0.0122
3205.00,0.0119
3202.00,0.0116
3199.00,0.0113
3196.00,0.0110
3193.00,0.0107
3190.00,0.0105
3187.00,0.0105
3184.00,0.0104
3181.00,0.0104
3178.00,0.0104
3175.00,0.0103
3172.00,0.0101
3169.00,0.0101
3166.00,0.0100
3163.00,0.0100
3160.00,0.0099
3157.00,0.0099
3154.00,0.0099
3151.00,0.0101
3148.00,0.0102
3145.00,0.0103
3142.00,0.0103
3139.00,0.0103
3136.00,0.0105
3133.00,0.0106
3130.00,0.0108
3127.00,0.0111
3124.00,0.0113
3121.00,0.0116
3118.00,0.0121
3115.00,0.0127
3112.00,0.0134
3109.00,0.0141
3106.00,0.0148
3103.00,0.0151
3100.00,0.0150
3097.00,0.0144
3094.00,0.0138
3091.00,0.0134
3088.00,0.0132
3085.00,0.0134
3082.00,0.0134
3079.00,0.0133
3076.00,0.0129
3073.00,0.0120
3070.00,0.0113
3067.00,0.0113
3064.00,0.0117
3061.00,0.0117
3058.00,0.0112
3055.00,0.0109
3052.00,0.0107
3049.00,0.0107
3046.00,0.0106
3043.00,0.0106
3040.00,0.0111
3037.00,0.0115
3034.00,0.0116
3031.00,0.0120
3028.00,0.0123
3025.00,0.0121
3022.00,0.0117
3019.00,0.0112
3016.00,0.0109
3013.00,0.0108
3010.00,0.0111
3007.00,0.0116
3004.00,0.0121
3001.00,0.0123
2998.00,0.0121
2995.00,0.0110
2992.00,0.0088
2989.00,0.0072
2986.00,0.0055
2983.00,0.0022
2980.00,0.0011
2977.00,0.0028
2974.00,0.0035
2971.00,0.0038
2968.00,0.0059
2965.00,0.0085
2962.00,0.0121
2959.00,0.0164
2956.00,0.0198
2953.00,0.0205
2950.00,0.0185
2947.00,0.0157
2944.00,0.0139
2941.00,0.0130
2938.00,0.0125
2935.00,0.0124
2932.00,0.0121
2929.00,0.0119
2926.00,0.0116
2923.00,0.0112
2920.00,0.0106
2917.00,0.0101
2914.00,0.0097
2911.00,0.0095
2908.00,0.0092
2905.00,0.0088
2902.00,0.0086
2899.00,0.0083
2896.00,0.0078
2893.00,0.0075
2890.00,0.0073
2887.00,0.0075
2884.00,0.0077
2881.00,0.0082
2878.00,0.0088
2875.00,0.0093
2872.00,0.0099
2869.00,0.0102
2866.00,0.0101
2863.00,0.0100
2860.00,0.0097
2857.00,0.0098
2854.00,0.0099
2851.00,0.0102
2848.00,0.0109
2845.00,0.0119
2842.00,0.0120
2839.00,0.0112
2836.00,0.0104
2833.00,0.0099
2830.00,0.0097
2827.00,0.0096
2824.00,0.0095
2821.00,0.0095
2818.00,0.0095
2815.00,0.0096
2812.00,0.0097
2809.00,0.0097
2806.00,0.0096
2803.00,0.0095
2800.00,0.0093
2797.00,0.0091
2794.00,0.0089
2791.00,0.0086
2788.00,0.0084
2785.00,0.0082
2782.00,0.0081
2779.00,0.0080
2776.00,0.0080
2773.00,0.0080
2770.00,0.0080
2767.00,0.0080
2764.00,0.0080
2761.00,0.0079
2758.00,0.0079
2755.00,0.0079
2752.00,0.0079
2749.00,0.0078
2746.00,0.0078
2743.00,0.0078
2740.00,0.0078
2737.00,0.0077
2734.00,0.0076
2731.00,0.0076
2728.00,0.0077
2725.00,0.0077
2722.00,0.0078
2719.00,0.0078
2716.00,0.0078
2713.00,0.0078
2710.00,0.0078
2707.00,0.0077
2704.00,0.0077
2701.00,0.0078
2698.00,0.0078
2695.00,0.0078
2692.00,0.0077
2689.00,0.0077
2686.00,0.0077
2683.00,0.0076
2680.00,0.0076
2677.00,0.0076
2674.00,0.0076
2671.00,0.0076
2668.00,0.0075
2665.00,0.0076
2662.00,0.0077
2659.00,0.0077
2656.00,0.0078
2653.00,0.0078
2650.00,0.0079
2647.00,0.0079
2644.00,0.0079
2641.00,0.0078
2638.00,0.0078
2635.00,0.0078
2632.00,0.0077
2629.00,0.0078
2626.00,0.0079
2623.00,0.0080
2620.00,0.0081
2617.00,0.0080
2614.00,0.0080
2611.00,0.0079
2608.00,0.0078
2605.00,0.0077
2602.00,0.0076
2599.00,0.0075
2596.00,0.0075
2593.00,0.0074
2590.00,0.0073
2587.00,0.0074
2584.00,0.0073
2581.00,0.0073
2578.00,0.0072
2575.00,0.0071
2572.00,0.0071
2569.00,0.0070
2566.00,0.0070
2563.00,0.0069
2560.00,0.0070
2557.00,0.0070
2554.00,0.0069
2551.00,0.0069
2548.00,0.0070
2545.00,0.0070
2542.00,0.0071
2539.00,0.0071
2536.00,0.0070
2533.00,0.0071
2530.00,0.0070
2527.00,0.0069
2524.00,0.0068
2521.00,0.0068
2518.00,0.0067
2515.00,0.0067
2512.00,0.0067
2509.00,0.0067
2506.00,0.0066
2503.00,0.0065
2500.00,0.0065
2497.00,0.0066
2494.00,0.0067
2491.00,0.0067
2488.00,0.0068
2485.00,0.0068
2482.00,0.0066
2479.00,0.0065
2476.00,0.0065
2473.00,0.0065
2470.00,0.0065
2467.00,0.0066
2464.00,0.0066
2461.00,0.0067
2458.00,0.0069
2455.00,0.0070
2452.00,0.0069
2449.00,0.0069
2446.00,0.0069
2443.00,0.0066
2440.00,0.0066
2437.00,0.0066
2434.00,0.0065
2431.00,0.0064
2428.00,0.0064
2425.00,0.0064
2422.00,0.0064
2419.00,0.0064
2416.00,0.0063
2413.00,0.0063
2410.00,0.0062
2407.00,0.0061
2404.00,0.0061
2401.00,0.0061
2398.00,0.0061
2395.00,0.0061
2392.00,0.0060
2389.00,0.0060
2386.00,0.0060
2383.00,0.0059
2380.00,0.0058
2377.00,0.0058
2374.00,0.0059
2371.00,0.0056
2368.00,0.0056
2365.00,0.0057
2362.00,0.0059
2359.00,0.0059
2356.00,0.0058
2353.00,0.0059
2350.00,0.0057
2347.00,0.0061
2344.00,0.0060
2341.00,0.0061
2338.00,0.0062
2335.00,0.0061
2332.00,0.0060
2329.00,0.0060
2326.00,0.0069
2323.00,0.0068
2320.00,0.0063
2317.00,0.0061
2314.00,0.0060
2311.00,0.0058
2308.00,0.0057
2305.00,0.0057
2302.00,0.0057
2299.00,0.0058
2296.00,0.0061
2293.00,0.0064
2290.00,0.0066
2287.00,0.0069
2284.00,0.0067
2281.00,0.0065
2278.00,0.0063
2275.00,0.0062
2272.00,0.0062
2269.00,0.0060
2266.00,0.0058
2263.00,0.0057
2260.00,0.0058
2257.00,0.0055
2254.00,0.0051
2251.00,0.0052
2248.00,0.0052
2245.00,0.0051
2242.00,0.0050
2239.00,0.0049
2236.00,0.0048
2233.00,0.0047
2230.00,0.0046
2227.00,0.0045
2224.00,0.0047
2221.00,0.0046
2218.00,0.0047
2215.00,0.0048
2212.00,0.0047
2209.00,0.0044
2206.00,0.0043
2203.00,0.0042
2200.00,0.0045
2197.00,0.0047
2194.00,0.0046
2191.00,0.0046
2188.00,0.0047
2185.00,0.0044
2182.00,0.0039
2179.00,0.0044
2176.00,0.0041
2173.00,0.0048
2170.00,0.0054
2167.00,0.0058
2164.00,0.0060
2161.00,0.0042
2158.00,0.0018
2155.00,0.0025
2152.00,0.0031
2149.00,0.0032
2146.00,0.0032
2143.00,0.0032
2140.00,0.0032
2137.00,0.0029
2134.00,0.0024
2131.00,0.0032
2128.00,0.0035
2125.00,0.0039
2122.00,0.0040
2119.00,0.0041
2116.00,0.0044
2113.00,0.0045
2110.00,0.0044
2107.00,0.0043
2104.00,0.0045
2101.00,0.0046
2098.00,0.0044
2095.00,0.0041
2092.00,0.0044
2089.00,0.0046
2086.00,0.0048
2083.00,0.0049
2080.00,0.0048
2077.00,0.0049
2074.00,0.0047
2071.00,0.0046
2068.00,0.0046
2065.00,0.0044
2062.00,0.0042
2059.00,0.0043
2056.00,0.0039
2053.00,0.0044
2050.00,0.0042
2047.00,0.0029
2044.00,0.0027
2041.00,0.0025
2038.00,0.0024
2035.00,0.0020
2032.00,0.0019
2029.00,0.0021
2026.00,0.0020
2023.00,0.0025
2020.00,0.0026
2017.00,0.0025
2014.00,0.0027
2011.00,0.0030
2008.00,0.0032
2005.00,0.0035
2002.00,0.0040
1999.00,0.0038
1996.00,0.0041
1993.00,0.0040
1990.00,0.0039
1987.00,0.0040
1984.00,0.0045
1981.00,0.0049
1978.00,0.0035
1975.00,0.0029
1972.00,0.0031
1969.00,0.0031
1966.00,0.0033
1963.00,0.0035
1960.00,0.0032
1957.00,0.0031
1954.00,0.0032
1951.00,0.0036
1948.00,0.0036
1945.00,0.0036
1942.00,0.0039
1939.00,0.0037
1936.00,0.0039
1933.00,0.0041
1930.00,0.0043
1927.00,0.0042
1924.00,0.0044
1921.00,0.0045
1918.00,0.0047
1915.00,0.0043
1912.00,0.0041
1909.00,0.0040
1906.00,0.0039
1903.00,0.0037
1900.00,0.0037
1897.00,0.0038
1894.00,0.0039
1891.00,0.0041
1888.00,0.0042
1885.00,0.0039
1882.00,0.0038
1879.00,0.0037
1876.00,0.0036
1873.00,0.0036
1870.00,0.0042
1867.00,0.0040
1864.00,0.0038
1861.00,0.0038
1858.00,0.0038
1855.00,0.0041
1852.00,0.0044
1849.00,0.0046
1846.00,0.0047
1843.00,0.0043
1840.00,0.0038
1837.00,0.0037
1834.00,0.0038
1831.00,0.0042
1828.00,0.0042
1825.00,0.0043
1822.00,0.0038
1819.00,0.0036
1816.00,0.0036
1813.00,0.0037
1810.00,0.0039
1807.00,0.0040
1804.00,0.0042
1801.00,0.0048
1798.00,0.0044
1795.00,0.0046
1792.00,0.0049
1789.00,0.0045
1786.00,0.0046
1783.00,0.0047
1780.00,0.0047
1777.00,0.0046
1774.00,0.0046
1771.00,0.0046
1768.00,0.0054
1765.00,0.0051
1762.00,0.0056
1759.00,0.0058
1756.00,0.0061
1753.00,0.0060
1750.00,0.0065
1747.00,0.0066
1744.00,0.0068
1741.00,0.0071
1738.00,0.0074
1735.00,0.0078
1732.00,0.0080
1729.00,0.0090
1726.00,0.0092
1723.00,0.0097
1720.00,0.0109
1717.00,0.0121
1714.00,0.0161
1711.00,0.0199
1708.00,0.0243
1705.00,0.0294
1702.00,0.0333
1699.00,0.0403
1696.00,0.0524
1693.00,0.0813
1690.00,0.1157
1687.00,0.1300
1684.00,0.1324
1681.00,0.1494
1678.00,0.1644
1675.00,0.1527
1672.00,0.1228
1669.00,0.0927
1666.00,0.0739
1663.00,0.0623
1660.00,0.0548
1657.00,0.0513
1654.00,0.0536
1651.00,0.0689
1648.00,0.0786
1645.00,0.0768
1642.00,0.0644
1639.00,0.0533
1636.00,0.0485
1633.00,0.0524
1630.00,0.0590
1627.00,0.0645
1624.00,0.0655
1621.00,0.0657
1618.00,0.0628
1615.00,0.0578
1612.00,0.0520
1609.00,0.0472
1606.00,0.0497
1603.00,0.0507
1600.00,0.0406
1597.00,0.0316
1594.00,0.0265
1591.00,0.0231
1588.00,0.0204
1585.00,0.0186
1582.00,0.0179
1579.00,0.0190
1576.00,0.0220
1573.00,0.0235
1570.00,0.0198
1567.00,0.0170
1564.00,0.0159
1561.00,0.0153
1558.00,0.0151
1555.00,0.0154
1552.00,0.0160
1549.00,0.0174
1546.00,0.0191
1543.00,0.0217
1540.00,0.0267
1537.00,0.0403
1534.00,0.0669
1531.00,0.1069
1528.00,0.1328
1525.00,0.1328
1522.00,0.1109
1519.00,0.0878
1516.00,0.0721
1513.00,0.0613
1510.00,0.0564
1507.00,0.0609
1504.00,0.0768
1501.00,0.0951
1498.00,0.1156
1495.00,0.1273
1492.00,0.1262
1489.00,0.1189
1486.00,0.1064
1483.00,0.0938
1480.00,0.0837
1477.00,0.0764
1474.00,0.0685
1471.00,0.0625
1468.00,0.0596
1465.00,0.0581
1462.00,0.0551
1459.00,0.0531
1456.00,0.0522
1453.00,0.0507
1450.00,0.0517
1447.00,0.0582
1444.00,0.0661
1441.00,0.0706
1438.00,0.0820
1435.00,0.1094
1432.00,0.1253
1429.00,0.1146
1426.00,0.0908
1423.00,0.0725
1420.00,0.0607
1417.00,0.0507
1414.00,0.0428
1411.00,0.0370
1408.00,0.0325
1405.00,0.0294
1402.00,0.0265
1399.00,0.0252
1396.00,0.0245
1393.00,0.0257
1390.00,0.0290
1387.00,0.0338
1384.00,0.0370
1381.00,0.0425
1378.00,0.0436
1375.00,0.0362
1372.00,0.0292
1369.00,0.0266
1366.00,0.0275
1363.00,0.0328
1360.00,0.0405
1357.00,0.0515
1354.00,0.0736
1351.00,0.1094
1348.00,0.1265
1345.00,0.1132
1342.00,0.1063
1339.00,0.1011
1336.00,0.0854
1333.00,0.0680
1330.00,0.0571
1327.00,0.0549
1324.00,0.0629
1321.00,0.0799
1318.00,0.0925
1315.00,0.1027
1312.00,0.1138
1309.00,0.1176
1306.00,0.1081
1303.00,0.0929
1300.00,0.0802
1297.00,0.0718
1294.00,0.0694
1291.00,0.0707
1288.00,0.0676
1285.00,0.0618
1282.00,0.0578
1279.00,0.0558
1276.00,0.0556
1273.00,0.0570
1270.00,0.0579
1267.00,0.0524
1264.00,0.0433
1261.00,0.0367
1258.00,0.0332
1255.00,0.0321
1252.00,0.0325
1249.00,0.0342
1246.00,0.0374
1243.00,0.0439
1240.00,0.0578
1237.00,0.0753
1234.00,0.0994
1231.00,0.1391
1228.00,0.1831
1225.00,0.2108
1222.00,0.2071
1219.00,0.1867
1216.00,0.1650
1213.00,0.1444
1210.00,0.1246
1207.00,0.1067
1204.00,0.0919
1201.00,0.0813
1198.00,0.0790
1195.00,0.0934
1192.00,0.1232
1189.00,0.1378
1186.00,0.1216
1183.00,0.0991
1180.00,0.0808
1177.00,0.0668
1174.00,0.0586
1171.00,0.0561
1168.00,0.0628
1165.00,0.0752
1162.00,0.0704
1159.00,0.0557
1156.00,0.0571
1153.00,0.0770
1150.00,0.0762
1147.00,0.0589
1144.00,0.0479
1141.00,0.0429
1138.00,0.0435
1135.00,0.0457
1132.00,0.0493
1129.00,0.0622
1126.00,0.0945
1123.00,0.1417
1120.00,0.1689
1117.00,0.1595
1114.00,0.1352
1111.00,0.1147
1108.00,0.1089
1105.00,0.1223
1102.00,0.1402
1099.00,0.1363
1096.00,0.1163
1093.00,0.0964
1090.00,0.0801
1087.00,0.0677
1084.00,0.0591
1081.00,0.0532
1078.00,0.0492
1075.00,0.0474
1072.00,0.0482
1069.00,0.0471
1066.00,0.0437
1063.00,0.0451
1060.00,0.0558
1057.00,0.0745
1054.00,0.0834
1051.00,0.0779
1048.00,0.0702
1045.00,0.0621
1042.00,0.0580
1039.00,0.0581
1036.00,0.0601
1033.00,0.0635
1030.00,0.0714
1027.00,0.0885
1024.00,0.1108
1021.00,0.1215
1018.00,0.1124
1015.00,0.0947
1012.00,0.0784
1009.00,0.0663
1006.00,0.0581
1003.00,0.0537
1000.00,0.0497
997.00,0.0449
994.00,0.0415
991.00,0.0389
988.00,0.0369
985.00,0.0354
982.00,0.0340
979.00,0.0327
976.00,0.0313
973.00,0.0305
970.00,0.0314
967.00,0.0309
964.00,0.0331
961.00,0.0344
958.00,0.0332
955.00,0.0373
952.00,0.0354
949.00,0.0306
946.00,0.0275
943.00,0.0256
940.00,0.0244
937.00,0.0237
934.00,0.0234
931.00,0.0232
928.00,0.0231
925.00,0.0229
922.00,0.0227
919.00,0.0224
916.00,0.0221
913.00,0.0217
910.00,0.0213
907.00,0.0210
904.00,0.0206
901.00,0.0203
898.00,0.0199
895.00,0.0196
892.00,0.0194
889.00,0.0194
886.00,0.0203
883.00,0.0214
880.00,0.0195
877.00,0.0182
874.00,0.0178
871.00,0.0175
868.00,0.0176
865.00,0.0191
862.00,0.0307
859.00,0.0620
856.00,0.0463
853.00,0.0273
850.00,0.0225
847.00,0.0207
844.00,0.0202
841.00,0.0223
838.00,0.0352
835.00,0.0616
832.00,0.0847
829.00,0.1004
826.00,0.0839
823.00,0.0602
820.00,0.0442
817.00,0.0334
814.00,0.0274
811.00,0.0269
808.00,0.0309
805.00,0.0304
802.00,0.0262
799.00,0.0344
796.00,0.0813
793.00,0.1150
790.00,0.0841
787.00,0.0592
784.00,0.0444
781.00,0.0379
778.00,0.0344
775.00,0.0369
772.00,0.0422
769.00,0.0388
766.00,0.0577
763.00,0.0907
760.00,0.0772
757.00,0.0557
754.00,0.0470
751.00,0.0498
748.00,0.0768
745.00,0.1106
742.00,0.0939
739.00,0.0647
736.00,0.0463
733.00,0.0367
730.00,0.0317
727.00,0.0291
724.00,0.0285
721.00,0.0307
718.00,0.0429
715.00,0.0855
712.00,0.1225
709.00,0.0923
706.00,0.0618
703.00,0.0491
700.00,0.0448
697.00,0.0459
694.00,0.0533
691.00,0.0693
688.00,0.0876
685.00,0.0860
682.00,0.0682
679.00,0.0607
676.00,0.0677
673.00,0.0719
670.00,0.0631
667.00,0.0590
664.00,0.0603
661.00,0.0593
658.00,0.0537
655.00,0.0473
652.00,0.0417
649.00,0.0371
646.00,0.0336
643.00,0.0308
640.00,0.0285
637.00,0.0272
634.00,0.0273
631.00,0.0310
628.00,0.0444
625.00,0.0674
622.00,0.0735
619.00,0.0606
616.00,0.0491
613.00,0.0454
610.00,0.0493
607.00,0.0499
604.00,0.0423
601.00,0.0362
598.00,0.0338
595.00,0.0356
592.00,0.0445
589.00,0.0472
586.00,0.0480
583.00,0.0485
580.00,0.0391
577.00,0.0339
574.00,0.0317
571.00,0.0330
568.00,0.0369
565.00,0.0405
562.00,0.0393
559.00,0.0334
556.00,0.0295
553.00,0.0274
550.00,0.0261
547.00,0.0251
544.00,0.0243
541.00,0.0236
538.00,0.0235
535.00,0.0228
532.00,0.0219
529.00,0.0218
526.00,0.0217
523.00,0.0210
520.00,0.0210
517.00,0.0213
514.00,0.0234
511.00,0.0244
508.00,0.0219
505.00,0.0207
502.00,0.0205
499.00,0.0192
496.00,0.0188
493.00,0.0190
490.00,0.0189
487.00,0.0196
484.00,0.0200
481.00,0.0212
478.00,0.0237
475.00,0.0282
472.00,0.0375
469.00,0.0457
466.00,0.0467
463.00,0.0407
460.00,0.0344
457.00,0.0297
454.00,0.0262
451.00,0.0253
448.00,0.0237
445.00,0.0227
442.00,0.0224
439.00,0.0219
436.00,0.0222
433.00,0.0216
430.00,0.0220
427.00,0.0222
424.00,0.0238
421.00,0.0282
418.00,0.0352
415.00,0.0421
412.00,0.0475
409.00,0.0471
406.00,0.0428
403.00,0.0340
400.00,0.0319