File: FTIR/Olivia/2025_07_10_Polystyrene_Std_OAG_scan3.csv
Created as New Dataset,Sample 809 By YargerLab Date Thursday, July 10 2025
cm-1,A
4000.00,0.0035
3997.00,0.0036
3994.00,0.0035
3991.00,0.0035
3988.00,0.0036
3985.00,0.0035
3982.00,0.0035
3979.00,0.0035
3976.00,0.0035
3973.00,0.0035
3970.00,0.0035
3967.00,0.0035
3964.00,0.0035
3961.00,0.0035
3958.00,0.0035
3955.00,0.0035
3952.00,0.0035
3949.00,0.0035
3946.00,0.0035
3943.00,0.0035
3940.00,0.0035
3937.00,0.0035
3934.00,0.0035
3931.00,0.0035
3928.00,0.0035
3925.00,0.0035
3922.00,0.0035
3919.00,0.0035
3916.00,0.0035
3913.00,0.0035
3910.00,0.0034
3907.00,0.0035
3904.00,0.0036
3901.00,0.0035
3898.00,0.0035
3895.00,0.0035
3892.00,0.0035
3889.00,0.0036
3886.00,0.0035
3883.00,0.0035
3880.00,0.0035
3877.00,0.0036
3874.00,0.0035
3871.00,0.0035
3868.00,0.0036
3865.00,0.0034
3862.00,0.0035
3859.00,0.0035
3856.00,0.0035
3853.00,0.0034
3850.00,0.0034
3847.00,0.0035
3844.00,0.0036
3841.00,0.0036
3838.00,0.0035
3835.00,0.0034
3832.00,0.0034
3829.00,0.0035
3826.00,0.0035
3823.00,0.0036
3820.00,0.0035
3817.00,0.0035
3814.00,0.0035
3811.00,0.0035
3808.00,0.0035
3805.00,0.0036
3802.00,0.0035
3799.00,0.0035
3796.00,0.0034
3793.00,0.0035
3790.00,0.0035
3787.00,0.0035
3784.00,0.0035
3781.00,0.0035
3778.00,0.0035
3775.00,0.0035
3772.00,0.0035
3769.00,0.0035
3766.00,0.0036
3763.00,0.0035
3760.00,0.0035
3757.00,0.0035
3754.00,0.0036
3751.00,0.0035
3748.00,0.0036
3745.00,0.0035
3742.00,0.0036
3739.00,0.0036
3736.00,0.0037
3733.00,0.0035
3730.00,0.0035
3727.00,0.0035
3724.00,0.0035
3721.00,0.0034
3718.00,0.0035
3715.00,0.0035
3712.00,0.0035
3709.00,0.0035
3706.00,0.0035
3703.00,0.0036
3700.00,0.0036
3697.00,0.0036
3694.00,0.0036
3691.00,0.0035
3688.00,0.0033
3685.00,0.0033
3682.00,0.0034
3679.00,0.0036
3676.00,0.0035
3673.00,0.0035
3670.00,0.0034
3667.00,0.0035
3664.00,0.0035
3661.00,0.0035
3658.00,0.0035
3655.00,0.0036
3652.00,0.0038
3649.00,0.0038
3646.00,0.0037
3643.00,0.0036
3640.00,0.0036
3637.00,0.0036
3634.00,0.0037
3631.00,0.0038
3628.00,0.0037
3625.00,0.0036
3622.00,0.0036
3619.00,0.0038
3616.00,0.0038
3613.00,0.0037
3610.00,0.0037
3607.00,0.0038
3604.00,0.0038
3601.00,0.0038
3598.00,0.0037
3595.00,0.0037
3592.00,0.0039
3589.00,0.0039
3586.00,0.0039
3583.00,0.0039
3580.00,0.0038
3577.00,0.0039
3574.00,0.0039
3571.00,0.0040
3568.00,0.0040
3565.00,0.0040
3562.00,0.0040
3559.00,0.0041
3556.00,0.0041
3553.00,0.0041
3550.00,0.0042
3547.00,0.0043
3544.00,0.0042
3541.00,0.0042
3538.00,0.0042
3535.00,0.0042
3532.00,0.0043
3529.00,0.0043
3526.00,0.0043
3523.00,0.0042
3520.00,0.0043
3517.00,0.0043
3514.00,0.0043
3511.00,0.0043
3508.00,0.0043
3505.00,0.0043
3502.00,0.0043
3499.00,0.0043
3496.00,0.0042
3493.00,0.0042
3490.00,0.0043
3487.00,0.0042
3484.00,0.0043
3481.00,0.0043
3478.00,0.0044
3475.00,0.0044
3472.00,0.0044
3469.00,0.0044
3466.00,0.0044
3463.00,0.0044
3460.00,0.0044
3457.00,0.0044
3454.00,0.0044
3451.00,0.0044
3448.00,0.0044
3445.00,0.0044
3442.00,0.0044
3439.00,0.0045
3436.00,0.0045
3433.00,0.0045
3430.00,0.0045
3427.00,0.0044
3424.00,0.0045
3421.00,0.0045
3418.00,0.0045
3415.00,0.0045
3412.00,0.0045
3409.00,0.0045
3406.00,0.0045
3403.00,0.0045
3400.00,0.0045
3397.00,0.0045
3394.00,0.0044
3391.00,0.0044
3388.00,0.0045
3385.00,0.0044
3382.00,0.0044
3379.00,0.0044
3376.00,0.0044
3373.00,0.0044
3370.00,0.0044
3367.00,0.0043
3364.00,0.0043
3361.00,0.0043
3358.00,0.0043
3355.00,0.0043
3352.00,0.0043
3349.00,0.0042
3346.00,0.0042
3343.00,0.0043
3340.00,0.0042
3337.00,0.0042
3334.00,0.0042
3331.00,0.0042
3328.00,0.0043
3325.00,0.0042
3322.00,0.0042
3319.00,0.0042
3316.00,0.0042
3313.00,0.0042
3310.00,0.0041
3307.00,0.0042
3304.00,0.0042
3301.00,0.0041
3298.00,0.0041
3295.00,0.0041
3292.00,0.0041
3289.00,0.0041
3286.00,0.0041
3283.00,0.0041
3280.00,0.0041
3277.00,0.0041
3274.00,0.0041
3271.00,0.0041
3268.00,0.0040
3265.00,0.0040
3262.00,0.0040
3259.00,0.0040
3256.00,0.0040
3253.00,0.0040
3250.00,0.0040
3247.00,0.0040
3244.00,0.0040
3241.00,0.0040
3238.00,0.0039
3235.00,0.0039
3232.00,0.0039
3229.00,0.0038
3226.00,0.0038
3223.00,0.0038
3220.00,0.0038
3217.00,0.0039
3214.00,0.0039
3211.00,0.0039
3208.00,0.0039
3205.00,0.0039
3202.00,0.0039
3199.00,0.0039
3196.00,0.0038
3193.00,0.0038
3190.00,0.0038
3187.00,0.0037
3184.00,0.0037
3181.00,0.0037
3178.00,0.0037
3175.00,0.0037
3172.00,0.0037
3169.00,0.0037
3166.00,0.0038
3163.00,0.0038
3160.00,0.0037
3157.00,0.0037
3154.00,0.0037
3151.00,0.0036
3148.00,0.0036
3145.00,0.0036
3142.00,0.0036
3139.00,0.0035
3136.00,0.0036
3133.00,0.0036
3130.00,0.0036
3127.00,0.0036
3124.00,0.0036
3121.00,0.0037
3118.00,0.0038
3115.00,0.0040
3112.00,0.0043
3109.00,0.0047
3106.00,0.0052
3103.00,0.0055
3100.00,0.0054
3097.00,0.0053
3094.00,0.0055
3091.00,0.0062
3088.00,0.0076
3085.00,0.0093
3082.00,0.0100
3079.00,0.0093
3076.00,0.0083
3073.00,0.0079
3070.00,0.0084
3067.00,0.0096
3064.00,0.0113
3061.00,0.0127
3058.00,0.0127
3055.00,0.0112
3052.00,0.0095
3049.00,0.0084
3046.00,0.0078
3043.00,0.0079
3040.00,0.0087
3037.00,0.0103
3034.00,0.0130
3031.00,0.0170
3028.00,0.0212
3025.00,0.0232
3022.00,0.0206
3019.00,0.0157
3016.00,0.0120
3013.00,0.0092
3010.00,0.0079
3007.00,0.0078
3004.00,0.0083
3001.00,0.0085
2998.00,0.0079
2995.00,0.0067
2992.00,0.0059
2989.00,0.0055
2986.00,0.0053
2983.00,0.0052
2980.00,0.0053
2977.00,0.0061
2974.00,0.0063
2971.00,0.0057
2968.00,0.0058
2965.00,0.0061
2962.00,0.0066
2959.00,0.0071
2956.00,0.0078
2953.00,0.0085
2950.00,0.0094
2947.00,0.0106
2944.00,0.0120
2941.00,0.0137
2938.00,0.0158
2935.00,0.0182
2932.00,0.0208
2929.00,0.0232
2926.00,0.0252
2923.00,0.0264
2920.00,0.0267
2917.00,0.0262
2914.00,0.0250
2911.00,0.0234
2908.00,0.0216
2905.00,0.0197
2902.00,0.0178
2899.00,0.0159
2896.00,0.0142
2893.00,0.0130
2890.00,0.0121
2887.00,0.0113
2884.00,0.0107
2881.00,0.0101
2878.00,0.0095
2875.00,0.0091
2872.00,0.0087
2869.00,0.0086
2866.00,0.0087
2863.00,0.0091
2860.00,0.0100
2857.00,0.0110
2854.00,0.0122
2851.00,0.0131
2848.00,0.0133
2845.00,0.0126
2842.00,0.0110
2839.00,0.0091
2836.00,0.0074
2833.00,0.0062
2830.00,0.0056
2827.00,0.0052
2824.00,0.0050
2821.00,0.0049
2818.00,0.0048
2815.00,0.0046
2812.00,0.0046
2809.00,0.0046
2806.00,0.0046
2803.00,0.0044
2800.00,0.0043
2797.00,0.0043
2794.00,0.0043
2791.00,0.0042
2788.00,0.0042
2785.00,0.0041
2782.00,0.0041
2779.00,0.0041
2776.00,0.0040
2773.00,0.0040
2770.00,0.0039
2767.00,0.0039
2764.00,0.0039
2761.00,0.0039
2758.00,0.0038
2755.00,0.0038
2752.00,0.0038
2749.00,0.0038
2746.00,0.0038
2743.00,0.0038
2740.00,0.0038
2737.00,0.0038
2734.00,0.0038
2731.00,0.0038
2728.00,0.0038
2725.00,0.0038
2722.00,0.0038
2719.00,0.0038
2716.00,0.0038
2713.00,0.0038
2710.00,0.0038
2707.00,0.0038
2704.00,0.0038
2701.00,0.0038
2698.00,0.0037
2695.00,0.0037
2692.00,0.0038
2689.00,0.0038
2686.00,0.0038
2683.00,0.0038
2680.00,0.0038
2677.00,0.0038
2674.00,0.0038
2671.00,0.0038
2668.00,0.0038
2665.00,0.0039
2662.00,0.0040
2659.00,0.0041
2656.00,0.0042
2653.00,0.0042
2650.00,0.0042
2647.00,0.0042
2644.00,0.0042
2641.00,0.0041
2638.00,0.0042
2635.00,0.0042
2632.00,0.0042
2629.00,0.0042
2626.00,0.0041
2623.00,0.0040
2620.00,0.0040
2617.00,0.0039
2614.00,0.0039
2611.00,0.0040
2608.00,0.0039
2605.00,0.0040
2602.00,0.0039
2599.00,0.0038
2596.00,0.0038
2593.00,0.0038
2590.00,0.0037
2587.00,0.0036
2584.00,0.0037
2581.00,0.0037
2578.00,0.0036
2575.00,0.0035
2572.00,0.0035
2569.00,0.0034
2566.00,0.0035
2563.00,0.0035
2560.00,0.0034
2557.00,0.0034
2554.00,0.0034
2551.00,0.0034
2548.00,0.0034
2545.00,0.0034
2542.00,0.0034
2539.00,0.0034
2536.00,0.0033
2533.00,0.0034
2530.00,0.0034
2527.00,0.0033
2524.00,0.0033
2521.00,0.0032
2518.00,0.0033
2515.00,0.0033
2512.00,0.0033
2509.00,0.0033
2506.00,0.0032
2503.00,0.0033
2500.00,0.0032
2497.00,0.0033
2494.00,0.0033
2491.00,0.0032
2488.00,0.0032
2485.00,0.0032
2482.00,0.0031
2479.00,0.0031
2476.00,0.0030
2473.00,0.0030
2470.00,0.0030
2467.00,0.0031
2464.00,0.0031
2461.00,0.0032
2458.00,0.0032
2455.00,0.0033
2452.00,0.0032
2449.00,0.0032
2446.00,0.0031
2443.00,0.0031
2440.00,0.0031
2437.00,0.0031
2434.00,0.0030
2431.00,0.0030
2428.00,0.0030
2425.00,0.0029
2422.00,0.0028
2419.00,0.0028
2416.00,0.0028
2413.00,0.0028
2410.00,0.0028
2407.00,0.0027
2404.00,0.0027
2401.00,0.0027
2398.00,0.0028
2395.00,0.0027
2392.00,0.0026
2389.00,0.0026
2386.00,0.0026
2383.00,0.0026
2380.00,0.0026
2377.00,0.0027
2374.00,0.0026
2371.00,0.0025
2368.00,0.0024
2365.00,0.0026
2362.00,0.0028
2359.00,0.0028
2356.00,0.0028
2353.00,0.0028
2350.00,0.0028
2347.00,0.0032
2344.00,0.0034
2341.00,0.0033
2338.00,0.0033
2335.00,0.0034
2332.00,0.0032
2329.00,0.0033
2326.00,0.0043
2323.00,0.0042
2320.00,0.0038
2317.00,0.0036
2314.00,0.0037
2311.00,0.0036
2308.00,0.0035
2305.00,0.0035
2302.00,0.0035
2299.00,0.0036
2296.00,0.0037
2293.00,0.0039
2290.00,0.0040
2287.00,0.0041
2284.00,0.0039
2281.00,0.0038
2278.00,0.0038
2275.00,0.0036
2272.00,0.0036
2269.00,0.0034
2266.00,0.0033
2263.00,0.0033
2260.00,0.0035
2257.00,0.0033
2254.00,0.0032
2251.00,0.0032
2248.00,0.0031
2245.00,0.0031
2242.00,0.0031
2239.00,0.0032
2236.00,0.0031
2233.00,0.0031
2230.00,0.0030
2227.00,0.0029
2224.00,0.0030
2221.00,0.0028
2218.00,0.0029
2215.00,0.0027
2212.00,0.0026
2209.00,0.0028
2206.00,0.0028
2203.00,0.0028
2200.00,0.0031
2197.00,0.0032
2194.00,0.0033
2191.00,0.0033
2188.00,0.0033
2185.00,0.0032
2182.00,0.0024
2179.00,0.0024
2176.00,0.0020
2173.00,0.0024
2170.00,0.0036
2167.00,0.0040
2164.00,0.0040
2161.00,0.0026
2158.00,-0.0002
2155.00,-0.0001
2152.00,0.0007
2149.00,0.0009
2146.00,0.0007
2143.00,0.0009
2140.00,0.0010
2137.00,0.0008
2134.00,0.0003
2131.00,0.0007
2128.00,0.0012
2125.00,0.0015
2122.00,0.0018
2119.00,0.0021
2116.00,0.0025
2113.00,0.0026
2110.00,0.0025
2107.00,0.0025
2104.00,0.0025
2101.00,0.0025
2098.00,0.0023
2095.00,0.0021
2092.00,0.0023
2089.00,0.0023
2086.00,0.0024
2083.00,0.0027
2080.00,0.0026
2077.00,0.0026
2074.00,0.0025
2071.00,0.0024
2068.00,0.0024
2065.00,0.0023
2062.00,0.0023
2059.00,0.0023
2056.00,0.0025
2053.00,0.0032
2050.00,0.0034
2047.00,0.0025
2044.00,0.0024
2041.00,0.0026
2038.00,0.0029
2035.00,0.0027
2032.00,0.0019
2029.00,0.0016
2026.00,0.0015
2023.00,0.0016
2020.00,0.0016
2017.00,0.0017
2014.00,0.0022
2011.00,0.0017
2008.00,0.0010
2005.00,0.0012
2002.00,0.0017
1999.00,0.0020
1996.00,0.0022
1993.00,0.0024
1990.00,0.0026
1987.00,0.0028
1984.00,0.0034
1981.00,0.0040
1978.00,0.0028
1975.00,0.0018
1972.00,0.0018
1969.00,0.0020
1966.00,0.0024
1963.00,0.0027
1960.00,0.0026
1957.00,0.0029
1954.00,0.0034
1951.00,0.0035
1948.00,0.0039
1945.00,0.0043
1942.00,0.0044
1939.00,0.0040
1936.00,0.0035
1933.00,0.0030
1930.00,0.0028
1927.00,0.0025
1924.00,0.0024
1921.00,0.0024
1918.00,0.0024
1915.00,0.0023
1912.00,0.0022
1909.00,0.0021
1906.00,0.0023
1903.00,0.0024
1900.00,0.0024
1897.00,0.0027
1894.00,0.0029
1891.00,0.0032
1888.00,0.0035
1885.00,0.0037
1882.00,0.0038
1879.00,0.0040
1876.00,0.0043
1873.00,0.0043
1870.00,0.0044
1867.00,0.0043
1864.00,0.0041
1861.00,0.0037
1858.00,0.0033
1855.00,0.0030
1852.00,0.0027
1849.00,0.0025
1846.00,0.0024
1843.00,0.0025
1840.00,0.0024
1837.00,0.0025
1834.00,0.0025
1831.00,0.0027
1828.00,0.0029
1825.00,0.0031
1822.00,0.0034
1819.00,0.0033
1816.00,0.0035
1813.00,0.0039
1810.00,0.0043
1807.00,0.0047
1804.00,0.0049
1801.00,0.0048
1798.00,0.0047
1795.00,0.0044
1792.00,0.0039
1789.00,0.0036
1786.00,0.0033
1783.00,0.0033
1780.00,0.0033
1777.00,0.0033
1774.00,0.0032
1771.00,0.0033
1768.00,0.0033
1765.00,0.0034
1762.00,0.0036
1759.00,0.0038
1756.00,0.0041
1753.00,0.0044
1750.00,0.0047
1747.00,0.0051
1744.00,0.0052
1741.00,0.0053
1738.00,0.0053
1735.00,0.0052
1732.00,0.0049
1729.00,0.0047
1726.00,0.0045
1723.00,0.0044
1720.00,0.0043
1717.00,0.0041
1714.00,0.0040
1711.00,0.0039
1708.00,0.0040
1705.00,0.0040
1702.00,0.0040
1699.00,0.0040
1696.00,0.0039
1693.00,0.0040
1690.00,0.0041
1687.00,0.0042
1684.00,0.0044
1681.00,0.0046
1678.00,0.0047
1675.00,0.0048
1672.00,0.0049
1669.00,0.0049
1666.00,0.0050
1663.00,0.0049
1660.00,0.0048
1657.00,0.0048
1654.00,0.0047
1651.00,0.0046
1648.00,0.0045
1645.00,0.0045
1642.00,0.0044
1639.00,0.0044
1636.00,0.0044
1633.00,0.0045
1630.00,0.0045
1627.00,0.0046
1624.00,0.0047
1621.00,0.0049
1618.00,0.0051
1615.00,0.0054
1612.00,0.0063
1609.00,0.0088
1606.00,0.0142
1603.00,0.0211
1600.00,0.0224
1597.00,0.0167
1594.00,0.0116
1591.00,0.0091
1588.00,0.0085
1585.00,0.0103
1582.00,0.0108
1579.00,0.0082
1576.00,0.0061
1573.00,0.0054
1570.00,0.0049
1567.00,0.0046
1564.00,0.0044
1561.00,0.0044
1558.00,0.0045
1555.00,0.0046
1552.00,0.0049
1549.00,0.0052
1546.00,0.0054
1543.00,0.0056
1540.00,0.0055
1537.00,0.0054
1534.00,0.0051
1531.00,0.0047
1528.00,0.0045
1525.00,0.0044
1522.00,0.0043
1519.00,0.0045
1516.00,0.0046
1513.00,0.0048
1510.00,0.0050
1507.00,0.0055
1504.00,0.0068
1501.00,0.0093
1498.00,0.0180
1495.00,0.0426
1492.00,0.0552
1489.00,0.0342
1486.00,0.0189
1483.00,0.0126
1480.00,0.0096
1477.00,0.0084
1474.00,0.0078
1471.00,0.0077
1468.00,0.0080
1465.00,0.0086
1462.00,0.0100
1459.00,0.0138
1456.00,0.0326
1453.00,0.0530
1450.00,0.0534
1447.00,0.0412
1444.00,0.0329
1441.00,0.0261
1438.00,0.0213
1435.00,0.0160
1432.00,0.0131
1429.00,0.0109
1426.00,0.0097
1423.00,0.0090
1420.00,0.0086
1417.00,0.0081
1414.00,0.0084
1411.00,0.0081
1408.00,0.0077
1405.00,0.0077
1402.00,0.0077
1399.00,0.0076
1396.00,0.0077
1393.00,0.0081
1390.00,0.0086
1387.00,0.0096
1384.00,0.0107
1381.00,0.0117
1378.00,0.0127
1375.00,0.0136
1372.00,0.0141
1369.00,0.0140
1366.00,0.0137
1363.00,0.0133
1360.00,0.0128
1357.00,0.0123
1354.00,0.0119
1351.00,0.0118
1348.00,0.0117
1345.00,0.0113
1342.00,0.0108
1339.00,0.0103
1336.00,0.0104
1333.00,0.0110
1330.00,0.0116
1327.00,0.0117
1324.00,0.0112
1321.00,0.0109
1318.00,0.0108
1315.00,0.0111
1312.00,0.0112
1309.00,0.0110
1306.00,0.0105
1303.00,0.0100
1300.00,0.0095
1297.00,0.0091
1294.00,0.0090
1291.00,0.0088
1288.00,0.0086
1285.00,0.0085
1282.00,0.0085
1279.00,0.0083
1276.00,0.0079
1273.00,0.0075
1270.00,0.0071
1267.00,0.0069
1264.00,0.0068
1261.00,0.0067
1258.00,0.0066
1255.00,0.0067
1252.00,0.0068
1249.00,0.0069
1246.00,0.0069
1243.00,0.0069
1240.00,0.0069
1237.00,0.0068
1234.00,0.0068
1231.00,0.0068
1228.00,0.0068
1225.00,0.0069
1222.00,0.0069
1219.00,0.0070
1216.00,0.0071
1213.00,0.0073
1210.00,0.0077
1207.00,0.0081
1204.00,0.0087
1201.00,0.0094
1198.00,0.0100
1195.00,0.0102
1192.00,0.0105
1189.00,0.0109
1186.00,0.0120
1183.00,0.0138
1180.00,0.0141
1177.00,0.0122
1174.00,0.0106
1171.00,0.0102
1168.00,0.0100
1165.00,0.0104
1162.00,0.0110
1159.00,0.0129
1156.00,0.0155
1153.00,0.0158
1150.00,0.0138
1147.00,0.0135
1144.00,0.0151
1141.00,0.0173
1138.00,0.0174
1135.00,0.0160
1132.00,0.0146
1129.00,0.0135
1126.00,0.0123
1123.00,0.0113
1120.00,0.0107
1117.00,0.0108
1114.00,0.0109
1111.00,0.0109
1108.00,0.0106
1105.00,0.0104
1102.00,0.0106
1099.00,0.0107
1096.00,0.0110
1093.00,0.0113
1090.00,0.0117
1087.00,0.0123
1084.00,0.0131
1081.00,0.0143
1078.00,0.0153
1075.00,0.0170
1072.00,0.0190
1069.00,0.0201
1066.00,0.0193
1063.00,0.0174
1060.00,0.0156
1057.00,0.0144
1054.00,0.0136
1051.00,0.0130
1048.00,0.0125
1045.00,0.0122
1042.00,0.0122
1039.00,0.0131
1036.00,0.0162
1033.00,0.0234
1030.00,0.0307
1027.00,0.0322
1024.00,0.0270
1021.00,0.0219
1018.00,0.0188
1015.00,0.0167
1012.00,0.0153
1009.00,0.0147
1006.00,0.0151
1003.00,0.0155
1000.00,0.0138
997.00,0.0119
994.00,0.0113
991.00,0.0114
988.00,0.0117
985.00,0.0125
982.00,0.0133
979.00,0.0134
976.00,0.0128
973.00,0.0123
970.00,0.0128
967.00,0.0141
964.00,0.0147
961.00,0.0140
958.00,0.0125
955.00,0.0115
952.00,0.0113
949.00,0.0114
946.00,0.0119
943.00,0.0122
940.00,0.0118
937.00,0.0109
934.00,0.0099
931.00,0.0093
928.00,0.0089
925.00,0.0090
922.00,0.0094
919.00,0.0101
916.00,0.0118
913.00,0.0148
910.00,0.0187
907.00,0.0213
904.00,0.0203
901.00,0.0161
898.00,0.0121
895.00,0.0096
892.00,0.0084
889.00,0.0078
886.00,0.0073
883.00,0.0070
880.00,0.0069
877.00,0.0069
874.00,0.0067
871.00,0.0065
868.00,0.0064
865.00,0.0062
862.00,0.0060
859.00,0.0061
856.00,0.0062
853.00,0.0067
850.00,0.0078
847.00,0.0095
844.00,0.0111
841.00,0.0114
838.00,0.0105
835.00,0.0085
832.00,0.0069
829.00,0.0062
826.00,0.0060
823.00,0.0057
820.00,0.0057
817.00,0.0057
814.00,0.0059
811.00,0.0061
808.00,0.0063
805.00,0.0065
802.00,0.0068
799.00,0.0073
796.00,0.0081
793.00,0.0093
790.00,0.0108
787.00,0.0127
784.00,0.0149
781.00,0.0179
778.00,0.0223
775.00,0.0287
772.00,0.0369
769.00,0.0469
766.00,0.0572
763.00,0.0676
760.00,0.0786
757.00,0.0874
754.00,0.0900
751.00,0.0890
748.00,0.0876
745.00,0.0800
742.00,0.0638
739.00,0.0477
736.00,0.0347
733.00,0.0237
730.00,0.0163
727.00,0.0131
724.00,0.0116
721.00,0.0114
718.00,0.0120
715.00,0.0142
712.00,0.0203
709.00,0.0364
706.00,0.0691
703.00,0.1214
700.00,0.1892
697.00,0.2585
694.00,0.2775
691.00,0.2027
688.00,0.1280
685.00,0.0890
682.00,0.0680
679.00,0.0551
676.00,0.0472
673.00,0.0420
670.00,0.0382
667.00,0.0335
664.00,0.0305
661.00,0.0271
658.00,0.0239
655.00,0.0212
652.00,0.0191
649.00,0.0176
646.00,0.0164
643.00,0.0157
640.00,0.0156
637.00,0.0165
634.00,0.0175
631.00,0.0185
628.00,0.0194
625.00,0.0198
622.00,0.0209
619.00,0.0208
616.00,0.0191
613.00,0.0182
610.00,0.0171
607.00,0.0168
604.00,0.0168
601.00,0.0170
598.00,0.0174
595.00,0.0178
592.00,0.0184
589.00,0.0193
586.00,0.0203
583.00,0.0216
580.00,0.0234
577.00,0.0264
574.00,0.0298
571.00,0.0337
568.00,0.0370
565.00,0.0404
562.00,0.0441
559.00,0.0475
556.00,0.0513
553.00,0.0559
550.00,0.0613
547.00,0.0685
544.00,0.0776
541.00,0.0867
538.00,0.0916
535.00,0.0870
532.00,0.0750
529.00,0.0620
526.00,0.0503
523.00,0.0423
520.00,0.0370
517.00,0.0331
514.00,0.0304
511.00,0.0278
508.00,0.0256
505.00,0.0230
502.00,0.0210
499.00,0.0197
496.00,0.0195
493.00,0.0187
490.00,0.0177
487.00,0.0172
484.00,0.0169
481.00,0.0165
478.00,0.0158
475.00,0.0160
472.00,0.0155
469.00,0.0151
466.00,0.0151
463.00,0.0152
460.00,0.0146
457.00,0.0154
454.00,0.0147
451.00,0.0135
448.00,0.0132
445.00,0.0130
442.00,0.0126
439.00,0.0129
436.00,0.0125
433.00,0.0129
430.00,0.0125
427.00,0.0115
424.00,0.0100
421.00,0.0106
418.00,0.0100
415.00,0.0104
412.00,0.0097
409.00,0.0128
406.00,0.0130
403.00,0.0125
400.00,0.0137