File: FTIR/Olivia/2025_06_06_Crystalline_Nifedipine_05_25_DSC_Scan3.csv
Created as New Dataset,Sample 628 By YargerLab Date Friday, June 06 2025
cm-1,A
4000.00,0.0073
3997.00,0.0073
3994.00,0.0073
3991.00,0.0073
3988.00,0.0073
3985.00,0.0073
3982.00,0.0073
3979.00,0.0073
3976.00,0.0074
3973.00,0.0073
3970.00,0.0073
3967.00,0.0073
3964.00,0.0074
3961.00,0.0073
3958.00,0.0073
3955.00,0.0073
3952.00,0.0073
3949.00,0.0073
3946.00,0.0073
3943.00,0.0073
3940.00,0.0073
3937.00,0.0073
3934.00,0.0073
3931.00,0.0073
3928.00,0.0073
3925.00,0.0073
3922.00,0.0072
3919.00,0.0073
3916.00,0.0073
3913.00,0.0072
3910.00,0.0072
3907.00,0.0072
3904.00,0.0072
3901.00,0.0072
3898.00,0.0072
3895.00,0.0072
3892.00,0.0071
3889.00,0.0070
3886.00,0.0071
3883.00,0.0071
3880.00,0.0071
3877.00,0.0071
3874.00,0.0071
3871.00,0.0071
3868.00,0.0070
3865.00,0.0071
3862.00,0.0071
3859.00,0.0070
3856.00,0.0070
3853.00,0.0071
3850.00,0.0071
3847.00,0.0070
3844.00,0.0070
3841.00,0.0070
3838.00,0.0070
3835.00,0.0070
3832.00,0.0070
3829.00,0.0070
3826.00,0.0070
3823.00,0.0070
3820.00,0.0070
3817.00,0.0070
3814.00,0.0070
3811.00,0.0069
3808.00,0.0070
3805.00,0.0069
3802.00,0.0070
3799.00,0.0069
3796.00,0.0069
3793.00,0.0070
3790.00,0.0069
3787.00,0.0070
3784.00,0.0070
3781.00,0.0070
3778.00,0.0070
3775.00,0.0070
3772.00,0.0070
3769.00,0.0070
3766.00,0.0070
3763.00,0.0069
3760.00,0.0070
3757.00,0.0070
3754.00,0.0070
3751.00,0.0069
3748.00,0.0069
3745.00,0.0069
3742.00,0.0069
3739.00,0.0068
3736.00,0.0068
3733.00,0.0068
3730.00,0.0068
3727.00,0.0069
3724.00,0.0068
3721.00,0.0067
3718.00,0.0067
3715.00,0.0067
3712.00,0.0068
3709.00,0.0068
3706.00,0.0068
3703.00,0.0067
3700.00,0.0067
3697.00,0.0066
3694.00,0.0065
3691.00,0.0064
3688.00,0.0063
3685.00,0.0063
3682.00,0.0061
3679.00,0.0058
3676.00,0.0057
3673.00,0.0056
3670.00,0.0055
3667.00,0.0055
3664.00,0.0054
3661.00,0.0053
3658.00,0.0053
3655.00,0.0053
3652.00,0.0054
3649.00,0.0053
3646.00,0.0054
3643.00,0.0055
3640.00,0.0056
3637.00,0.0056
3634.00,0.0059
3631.00,0.0061
3628.00,0.0063
3625.00,0.0063
3622.00,0.0062
3619.00,0.0062
3616.00,0.0064
3613.00,0.0064
3610.00,0.0064
3607.00,0.0064
3604.00,0.0064
3601.00,0.0064
3598.00,0.0064
3595.00,0.0064
3592.00,0.0064
3589.00,0.0063
3586.00,0.0063
3583.00,0.0064
3580.00,0.0064
3577.00,0.0064
3574.00,0.0063
3571.00,0.0063
3568.00,0.0063
3565.00,0.0063
3562.00,0.0063
3559.00,0.0063
3556.00,0.0064
3553.00,0.0063
3550.00,0.0063
3547.00,0.0064
3544.00,0.0064
3541.00,0.0064
3538.00,0.0064
3535.00,0.0064
3532.00,0.0063
3529.00,0.0063
3526.00,0.0063
3523.00,0.0063
3520.00,0.0064
3517.00,0.0064
3514.00,0.0063
3511.00,0.0063
3508.00,0.0063
3505.00,0.0063
3502.00,0.0063
3499.00,0.0062
3496.00,0.0063
3493.00,0.0063
3490.00,0.0062
3487.00,0.0063
3484.00,0.0063
3481.00,0.0063
3478.00,0.0062
3475.00,0.0063
3472.00,0.0062
3469.00,0.0063
3466.00,0.0063
3463.00,0.0062
3460.00,0.0062
3457.00,0.0062
3454.00,0.0063
3451.00,0.0063
3448.00,0.0063
3445.00,0.0063
3442.00,0.0063
3439.00,0.0063
3436.00,0.0063
3433.00,0.0064
3430.00,0.0065
3427.00,0.0065
3424.00,0.0066
3421.00,0.0067
3418.00,0.0068
3415.00,0.0068
3412.00,0.0069
3409.00,0.0071
3406.00,0.0073
3403.00,0.0074
3400.00,0.0076
3397.00,0.0079
3394.00,0.0082
3391.00,0.0086
3388.00,0.0092
3385.00,0.0098
3382.00,0.0104
3379.00,0.0109
3376.00,0.0117
3373.00,0.0123
3370.00,0.0127
3367.00,0.0138
3364.00,0.0154
3361.00,0.0170
3358.00,0.0191
3355.00,0.0214
3352.00,0.0238
3349.00,0.0273
3346.00,0.0318
3343.00,0.0373
3340.00,0.0441
3337.00,0.0516
3334.00,0.0579
3331.00,0.0612
3328.00,0.0620
3325.00,0.0615
3322.00,0.0602
3319.00,0.0574
3316.00,0.0532
3313.00,0.0484
3310.00,0.0436
3307.00,0.0395
3304.00,0.0365
3301.00,0.0342
3298.00,0.0322
3295.00,0.0306
3292.00,0.0294
3289.00,0.0282
3286.00,0.0267
3283.00,0.0252
3280.00,0.0240
3277.00,0.0232
3274.00,0.0227
3271.00,0.0225
3268.00,0.0226
3265.00,0.0225
3262.00,0.0224
3259.00,0.0220
3256.00,0.0216
3253.00,0.0214
3250.00,0.0212
3247.00,0.0211
3244.00,0.0212
3241.00,0.0212
3238.00,0.0208
3235.00,0.0201
3232.00,0.0193
3229.00,0.0185
3226.00,0.0175
3223.00,0.0165
3220.00,0.0157
3217.00,0.0150
3214.00,0.0144
3211.00,0.0139
3208.00,0.0135
3205.00,0.0131
3202.00,0.0127
3199.00,0.0123
3196.00,0.0120
3193.00,0.0118
3190.00,0.0116
3187.00,0.0115
3184.00,0.0114
3181.00,0.0114
3178.00,0.0113
3175.00,0.0112
3172.00,0.0111
3169.00,0.0110
3166.00,0.0110
3163.00,0.0109
3160.00,0.0109
3157.00,0.0108
3154.00,0.0108
3151.00,0.0110
3148.00,0.0112
3145.00,0.0112
3142.00,0.0113
3139.00,0.0114
3136.00,0.0115
3133.00,0.0117
3130.00,0.0120
3127.00,0.0122
3124.00,0.0125
3121.00,0.0129
3118.00,0.0135
3115.00,0.0142
3112.00,0.0150
3109.00,0.0159
3106.00,0.0167
3103.00,0.0170
3100.00,0.0169
3097.00,0.0163
3094.00,0.0156
3091.00,0.0150
3088.00,0.0148
3085.00,0.0150
3082.00,0.0151
3079.00,0.0149
3076.00,0.0144
3073.00,0.0134
3070.00,0.0126
3067.00,0.0125
3064.00,0.0130
3061.00,0.0129
3058.00,0.0124
3055.00,0.0119
3052.00,0.0117
3049.00,0.0117
3046.00,0.0116
3043.00,0.0117
3040.00,0.0122
3037.00,0.0127
3034.00,0.0129
3031.00,0.0134
3028.00,0.0137
3025.00,0.0135
3022.00,0.0130
3019.00,0.0126
3016.00,0.0122
3013.00,0.0121
3010.00,0.0125
3007.00,0.0132
3004.00,0.0140
3001.00,0.0146
2998.00,0.0145
2995.00,0.0132
2992.00,0.0107
2989.00,0.0088
2986.00,0.0069
2983.00,0.0033
2980.00,0.0021
2977.00,0.0038
2974.00,0.0046
2971.00,0.0050
2968.00,0.0073
2965.00,0.0101
2962.00,0.0142
2959.00,0.0193
2956.00,0.0234
2953.00,0.0244
2950.00,0.0221
2947.00,0.0186
2944.00,0.0163
2941.00,0.0150
2938.00,0.0144
2935.00,0.0142
2932.00,0.0140
2929.00,0.0137
2926.00,0.0133
2923.00,0.0127
2920.00,0.0121
2917.00,0.0114
2914.00,0.0111
2911.00,0.0109
2908.00,0.0105
2905.00,0.0100
2902.00,0.0097
2899.00,0.0094
2896.00,0.0088
2893.00,0.0085
2890.00,0.0083
2887.00,0.0085
2884.00,0.0087
2881.00,0.0092
2878.00,0.0099
2875.00,0.0104
2872.00,0.0110
2869.00,0.0114
2866.00,0.0113
2863.00,0.0110
2860.00,0.0108
2857.00,0.0108
2854.00,0.0109
2851.00,0.0113
2848.00,0.0121
2845.00,0.0133
2842.00,0.0135
2839.00,0.0125
2836.00,0.0115
2833.00,0.0109
2830.00,0.0106
2827.00,0.0104
2824.00,0.0104
2821.00,0.0104
2818.00,0.0104
2815.00,0.0105
2812.00,0.0106
2809.00,0.0106
2806.00,0.0106
2803.00,0.0104
2800.00,0.0102
2797.00,0.0099
2794.00,0.0096
2791.00,0.0093
2788.00,0.0091
2785.00,0.0088
2782.00,0.0087
2779.00,0.0086
2776.00,0.0086
2773.00,0.0086
2770.00,0.0085
2767.00,0.0086
2764.00,0.0086
2761.00,0.0085
2758.00,0.0085
2755.00,0.0084
2752.00,0.0084
2749.00,0.0083
2746.00,0.0083
2743.00,0.0083
2740.00,0.0083
2737.00,0.0083
2734.00,0.0082
2731.00,0.0082
2728.00,0.0082
2725.00,0.0083
2722.00,0.0084
2719.00,0.0084
2716.00,0.0084
2713.00,0.0083
2710.00,0.0083
2707.00,0.0083
2704.00,0.0082
2701.00,0.0083
2698.00,0.0082
2695.00,0.0083
2692.00,0.0082
2689.00,0.0082
2686.00,0.0081
2683.00,0.0081
2680.00,0.0081
2677.00,0.0081
2674.00,0.0081
2671.00,0.0081
2668.00,0.0080
2665.00,0.0081
2662.00,0.0082
2659.00,0.0082
2656.00,0.0083
2653.00,0.0083
2650.00,0.0083
2647.00,0.0084
2644.00,0.0084
2641.00,0.0083
2638.00,0.0083
2635.00,0.0083
2632.00,0.0083
2629.00,0.0083
2626.00,0.0084
2623.00,0.0085
2620.00,0.0085
2617.00,0.0086
2614.00,0.0085
2611.00,0.0083
2608.00,0.0083
2605.00,0.0082
2602.00,0.0081
2599.00,0.0080
2596.00,0.0080
2593.00,0.0079
2590.00,0.0078
2587.00,0.0078
2584.00,0.0078
2581.00,0.0078
2578.00,0.0077
2575.00,0.0076
2572.00,0.0075
2569.00,0.0074
2566.00,0.0073
2563.00,0.0073
2560.00,0.0074
2557.00,0.0074
2554.00,0.0074
2551.00,0.0074
2548.00,0.0074
2545.00,0.0075
2542.00,0.0075
2539.00,0.0075
2536.00,0.0076
2533.00,0.0075
2530.00,0.0075
2527.00,0.0074
2524.00,0.0072
2521.00,0.0072
2518.00,0.0072
2515.00,0.0072
2512.00,0.0071
2509.00,0.0071
2506.00,0.0070
2503.00,0.0070
2500.00,0.0070
2497.00,0.0070
2494.00,0.0071
2491.00,0.0072
2488.00,0.0073
2485.00,0.0073
2482.00,0.0071
2479.00,0.0070
2476.00,0.0070
2473.00,0.0070
2470.00,0.0070
2467.00,0.0070
2464.00,0.0071
2461.00,0.0072
2458.00,0.0073
2455.00,0.0075
2452.00,0.0074
2449.00,0.0074
2446.00,0.0073
2443.00,0.0071
2440.00,0.0070
2437.00,0.0069
2434.00,0.0068
2431.00,0.0068
2428.00,0.0068
2425.00,0.0069
2422.00,0.0069
2419.00,0.0068
2416.00,0.0067
2413.00,0.0067
2410.00,0.0066
2407.00,0.0065
2404.00,0.0065
2401.00,0.0065
2398.00,0.0065
2395.00,0.0064
2392.00,0.0063
2389.00,0.0064
2386.00,0.0064
2383.00,0.0063
2380.00,0.0062
2377.00,0.0063
2374.00,0.0062
2371.00,0.0061
2368.00,0.0060
2365.00,0.0061
2362.00,0.0063
2359.00,0.0063
2356.00,0.0062
2353.00,0.0062
2350.00,0.0062
2347.00,0.0066
2344.00,0.0065
2341.00,0.0064
2338.00,0.0065
2335.00,0.0065
2332.00,0.0064
2329.00,0.0065
2326.00,0.0074
2323.00,0.0072
2320.00,0.0067
2317.00,0.0064
2314.00,0.0063
2311.00,0.0061
2308.00,0.0059
2305.00,0.0059
2302.00,0.0060
2299.00,0.0061
2296.00,0.0064
2293.00,0.0067
2290.00,0.0071
2287.00,0.0073
2284.00,0.0071
2281.00,0.0069
2278.00,0.0067
2275.00,0.0066
2272.00,0.0066
2269.00,0.0064
2266.00,0.0062
2263.00,0.0061
2260.00,0.0061
2257.00,0.0059
2254.00,0.0055
2251.00,0.0056
2248.00,0.0056
2245.00,0.0056
2242.00,0.0054
2239.00,0.0052
2236.00,0.0050
2233.00,0.0049
2230.00,0.0050
2227.00,0.0049
2224.00,0.0049
2221.00,0.0050
2218.00,0.0051
2215.00,0.0050
2212.00,0.0050
2209.00,0.0049
2206.00,0.0046
2203.00,0.0046
2200.00,0.0046
2197.00,0.0048
2194.00,0.0048
2191.00,0.0047
2188.00,0.0050
2185.00,0.0047
2182.00,0.0041
2179.00,0.0045
2176.00,0.0043
2173.00,0.0047
2170.00,0.0057
2167.00,0.0061
2164.00,0.0063
2161.00,0.0046
2158.00,0.0019
2155.00,0.0028
2152.00,0.0032
2149.00,0.0035
2146.00,0.0036
2143.00,0.0034
2140.00,0.0035
2137.00,0.0032
2134.00,0.0027
2131.00,0.0033
2128.00,0.0038
2125.00,0.0042
2122.00,0.0043
2119.00,0.0044
2116.00,0.0047
2113.00,0.0047
2110.00,0.0046
2107.00,0.0047
2104.00,0.0048
2101.00,0.0049
2098.00,0.0046
2095.00,0.0043
2092.00,0.0047
2089.00,0.0049
2086.00,0.0051
2083.00,0.0051
2080.00,0.0053
2077.00,0.0052
2074.00,0.0049
2071.00,0.0049
2068.00,0.0048
2065.00,0.0046
2062.00,0.0045
2059.00,0.0045
2056.00,0.0042
2053.00,0.0047
2050.00,0.0046
2047.00,0.0034
2044.00,0.0031
2041.00,0.0029
2038.00,0.0028
2035.00,0.0024
2032.00,0.0022
2029.00,0.0024
2026.00,0.0027
2023.00,0.0029
2020.00,0.0031
2017.00,0.0031
2014.00,0.0033
2011.00,0.0035
2008.00,0.0035
2005.00,0.0040
2002.00,0.0047
1999.00,0.0046
1996.00,0.0046
1993.00,0.0046
1990.00,0.0044
1987.00,0.0044
1984.00,0.0049
1981.00,0.0054
1978.00,0.0041
1975.00,0.0035
1972.00,0.0034
1969.00,0.0034
1966.00,0.0037
1963.00,0.0040
1960.00,0.0035
1957.00,0.0036
1954.00,0.0037
1951.00,0.0036
1948.00,0.0037
1945.00,0.0040
1942.00,0.0042
1939.00,0.0041
1936.00,0.0044
1933.00,0.0046
1930.00,0.0050
1927.00,0.0049
1924.00,0.0050
1921.00,0.0051
1918.00,0.0050
1915.00,0.0047
1912.00,0.0045
1909.00,0.0045
1906.00,0.0043
1903.00,0.0041
1900.00,0.0040
1897.00,0.0043
1894.00,0.0043
1891.00,0.0045
1888.00,0.0045
1885.00,0.0043
1882.00,0.0041
1879.00,0.0039
1876.00,0.0039
1873.00,0.0040
1870.00,0.0046
1867.00,0.0044
1864.00,0.0041
1861.00,0.0041
1858.00,0.0042
1855.00,0.0046
1852.00,0.0049
1849.00,0.0051
1846.00,0.0051
1843.00,0.0045
1840.00,0.0041
1837.00,0.0042
1834.00,0.0042
1831.00,0.0046
1828.00,0.0046
1825.00,0.0045
1822.00,0.0041
1819.00,0.0039
1816.00,0.0039
1813.00,0.0042
1810.00,0.0045
1807.00,0.0045
1804.00,0.0048
1801.00,0.0052
1798.00,0.0051
1795.00,0.0054
1792.00,0.0054
1789.00,0.0050
1786.00,0.0051
1783.00,0.0053
1780.00,0.0053
1777.00,0.0054
1774.00,0.0055
1771.00,0.0056
1768.00,0.0060
1765.00,0.0059
1762.00,0.0063
1759.00,0.0067
1756.00,0.0069
1753.00,0.0070
1750.00,0.0076
1747.00,0.0078
1744.00,0.0081
1741.00,0.0083
1738.00,0.0088
1735.00,0.0093
1732.00,0.0097
1729.00,0.0105
1726.00,0.0108
1723.00,0.0115
1720.00,0.0130
1717.00,0.0149
1714.00,0.0193
1711.00,0.0239
1708.00,0.0295
1705.00,0.0356
1702.00,0.0406
1699.00,0.0483
1696.00,0.0628
1693.00,0.0960
1690.00,0.1373
1687.00,0.1570
1684.00,0.1595
1681.00,0.1789
1678.00,0.1991
1675.00,0.1854
1672.00,0.1497
1669.00,0.1116
1666.00,0.0883
1663.00,0.0742
1660.00,0.0648
1657.00,0.0612
1654.00,0.0644
1651.00,0.0824
1648.00,0.0948
1645.00,0.0920
1642.00,0.0776
1639.00,0.0643
1636.00,0.0583
1633.00,0.0620
1630.00,0.0705
1627.00,0.0772
1624.00,0.0786
1621.00,0.0786
1618.00,0.0761
1615.00,0.0696
1612.00,0.0622
1609.00,0.0563
1606.00,0.0590
1603.00,0.0607
1600.00,0.0486
1597.00,0.0375
1594.00,0.0314
1591.00,0.0272
1588.00,0.0239
1585.00,0.0217
1582.00,0.0209
1579.00,0.0225
1576.00,0.0266
1573.00,0.0280
1570.00,0.0235
1567.00,0.0200
1564.00,0.0188
1561.00,0.0186
1558.00,0.0180
1555.00,0.0182
1552.00,0.0188
1549.00,0.0203
1546.00,0.0226
1543.00,0.0262
1540.00,0.0327
1537.00,0.0484
1534.00,0.0790
1531.00,0.1264
1528.00,0.1596
1525.00,0.1619
1522.00,0.1364
1519.00,0.1066
1516.00,0.0866
1513.00,0.0735
1510.00,0.0679
1507.00,0.0733
1504.00,0.0917
1501.00,0.1146
1498.00,0.1397
1495.00,0.1537
1492.00,0.1535
1489.00,0.1440
1486.00,0.1286
1483.00,0.1138
1480.00,0.1012
1477.00,0.0922
1474.00,0.0826
1471.00,0.0744
1468.00,0.0714
1465.00,0.0694
1462.00,0.0660
1459.00,0.0640
1456.00,0.0616
1453.00,0.0603
1450.00,0.0616
1447.00,0.0690
1444.00,0.0788
1441.00,0.0845
1438.00,0.0981
1435.00,0.1301
1432.00,0.1515
1429.00,0.1392
1426.00,0.1104
1423.00,0.0876
1420.00,0.0728
1417.00,0.0599
1414.00,0.0506
1411.00,0.0436
1408.00,0.0384
1405.00,0.0346
1402.00,0.0314
1399.00,0.0297
1396.00,0.0290
1393.00,0.0304
1390.00,0.0349
1387.00,0.0405
1384.00,0.0446
1381.00,0.0513
1378.00,0.0526
1375.00,0.0437
1372.00,0.0349
1369.00,0.0317
1366.00,0.0328
1363.00,0.0389
1360.00,0.0482
1357.00,0.0616
1354.00,0.0877
1351.00,0.1307
1348.00,0.1527
1345.00,0.1369
1342.00,0.1282
1339.00,0.1217
1336.00,0.1027
1333.00,0.0817
1330.00,0.0684
1327.00,0.0655
1324.00,0.0748
1321.00,0.0954
1318.00,0.1109
1315.00,0.1235
1312.00,0.1372
1309.00,0.1422
1306.00,0.1309
1303.00,0.1122
1300.00,0.0963
1297.00,0.0859
1294.00,0.0828
1291.00,0.0846
1288.00,0.0811
1285.00,0.0743
1282.00,0.0695
1279.00,0.0668
1276.00,0.0663
1273.00,0.0678
1270.00,0.0689
1267.00,0.0624
1264.00,0.0513
1261.00,0.0433
1258.00,0.0392
1255.00,0.0378
1252.00,0.0385
1249.00,0.0406
1246.00,0.0443
1243.00,0.0519
1240.00,0.0681
1237.00,0.0889
1234.00,0.1170
1231.00,0.1637
1228.00,0.2173
1225.00,0.2539
1222.00,0.2529
1219.00,0.2297
1216.00,0.2037
1213.00,0.1788
1210.00,0.1544
1207.00,0.1321
1204.00,0.1134
1201.00,0.0996
1198.00,0.0961
1195.00,0.1131
1192.00,0.1497
1189.00,0.1689
1186.00,0.1500
1183.00,0.1223
1180.00,0.0994
1177.00,0.0817
1174.00,0.0712
1171.00,0.0679
1168.00,0.0760
1165.00,0.0915
1162.00,0.0862
1159.00,0.0681
1156.00,0.0692
1153.00,0.0935
1150.00,0.0932
1147.00,0.0722
1144.00,0.0585
1141.00,0.0520
1138.00,0.0527
1135.00,0.0556
1132.00,0.0598
1129.00,0.0749
1126.00,0.1134
1123.00,0.1711
1120.00,0.2072
1117.00,0.1984
1114.00,0.1691
1111.00,0.1433
1108.00,0.1350
1105.00,0.1510
1102.00,0.1735
1099.00,0.1696
1096.00,0.1454
1093.00,0.1204
1090.00,0.0995
1087.00,0.0836
1084.00,0.0725
1081.00,0.0649
1078.00,0.0598
1075.00,0.0574
1072.00,0.0584
1069.00,0.0570
1066.00,0.0527
1063.00,0.0542
1060.00,0.0673
1057.00,0.0905
1054.00,0.1021
1051.00,0.0953
1048.00,0.0856
1045.00,0.0753
1042.00,0.0702
1039.00,0.0702
1036.00,0.0726
1033.00,0.0767
1030.00,0.0864
1027.00,0.1074
1024.00,0.1353
1021.00,0.1495
1018.00,0.1387
1015.00,0.1165
1012.00,0.0959
1009.00,0.0805
1006.00,0.0701
1003.00,0.0646
1000.00,0.0596
997.00,0.0536
994.00,0.0494
991.00,0.0463
988.00,0.0438
985.00,0.0418
982.00,0.0401
979.00,0.0385
976.00,0.0369
973.00,0.0361
970.00,0.0374
967.00,0.0367
964.00,0.0394
961.00,0.0411
958.00,0.0396
955.00,0.0447
952.00,0.0425
949.00,0.0366
946.00,0.0327
943.00,0.0301
940.00,0.0286
937.00,0.0278
934.00,0.0272
931.00,0.0268
928.00,0.0266
925.00,0.0264
922.00,0.0261
919.00,0.0256
916.00,0.0253
913.00,0.0248
910.00,0.0242
907.00,0.0238
904.00,0.0235
901.00,0.0230
898.00,0.0225
895.00,0.0221
892.00,0.0219
889.00,0.0218
886.00,0.0229
883.00,0.0243
880.00,0.0220
877.00,0.0205
874.00,0.0199
871.00,0.0196
868.00,0.0198
865.00,0.0215
862.00,0.0356
859.00,0.0734
856.00,0.0547
853.00,0.0312
850.00,0.0254
847.00,0.0234
844.00,0.0230
841.00,0.0257
838.00,0.0407
835.00,0.0721
832.00,0.1002
829.00,0.1205
826.00,0.1012
823.00,0.0718
820.00,0.0521
817.00,0.0389
814.00,0.0316
811.00,0.0308
808.00,0.0357
805.00,0.0354
802.00,0.0303
799.00,0.0400
796.00,0.0959
793.00,0.1378
790.00,0.1008
787.00,0.0703
784.00,0.0521
781.00,0.0442
778.00,0.0400
775.00,0.0429
772.00,0.0492
769.00,0.0450
766.00,0.0672
763.00,0.1075
760.00,0.0922
757.00,0.0664
754.00,0.0555
751.00,0.0586
748.00,0.0907
745.00,0.1316
742.00,0.1123
739.00,0.0766
736.00,0.0541
733.00,0.0422
730.00,0.0361
727.00,0.0331
724.00,0.0324
721.00,0.0352
718.00,0.0498
715.00,0.1006
712.00,0.1467
709.00,0.1112
706.00,0.0735
703.00,0.0575
700.00,0.0521
697.00,0.0534
694.00,0.0621
691.00,0.0813
688.00,0.1033
685.00,0.1015
682.00,0.0801
679.00,0.0708
676.00,0.0792
673.00,0.0849
670.00,0.0746
667.00,0.0689
664.00,0.0704
661.00,0.0691
658.00,0.0625
655.00,0.0549
652.00,0.0483
649.00,0.0427
646.00,0.0384
643.00,0.0350
640.00,0.0322
637.00,0.0306
634.00,0.0307
631.00,0.0350
628.00,0.0510
625.00,0.0784
622.00,0.0860
619.00,0.0708
616.00,0.0570
613.00,0.0525
610.00,0.0564
607.00,0.0576
604.00,0.0485
601.00,0.0413
598.00,0.0385
595.00,0.0406
592.00,0.0513
589.00,0.0545
586.00,0.0553
583.00,0.0561
580.00,0.0449
577.00,0.0388
574.00,0.0365
571.00,0.0379
568.00,0.0425
565.00,0.0467
562.00,0.0452
559.00,0.0379
556.00,0.0334
553.00,0.0308
550.00,0.0292
547.00,0.0283
544.00,0.0273
541.00,0.0265
538.00,0.0258
535.00,0.0250
532.00,0.0245
529.00,0.0243
526.00,0.0241
523.00,0.0230
520.00,0.0230
517.00,0.0242
514.00,0.0269
511.00,0.0277
508.00,0.0247
505.00,0.0237
502.00,0.0231
499.00,0.0216
496.00,0.0211
493.00,0.0214
490.00,0.0214
487.00,0.0220
484.00,0.0227
481.00,0.0239
478.00,0.0271
475.00,0.0323
472.00,0.0433
469.00,0.0534
466.00,0.0541
463.00,0.0471
460.00,0.0402
457.00,0.0350
454.00,0.0310
451.00,0.0288
448.00,0.0267
445.00,0.0262
442.00,0.0245
439.00,0.0236
436.00,0.0241
433.00,0.0238
430.00,0.0233
427.00,0.0235
424.00,0.0262
421.00,0.0314
418.00,0.0386
415.00,0.0466
412.00,0.0531
409.00,0.0544
406.00,0.0504
403.00,0.0390
400.00,0.0368