File: FTIR/Olivia/2025_07_23_Polystyrene_Std_scan2.csv
Created as New Dataset,Sample 879 By YargerLab Date Wednesday, July 23 2025
cm-1,A
4000.00,0.0010
3997.00,0.0010
3994.00,0.0009
3991.00,0.0009
3988.00,0.0010
3985.00,0.0009
3982.00,0.0009
3979.00,0.0008
3976.00,0.0008
3973.00,0.0009
3970.00,0.0009
3967.00,0.0009
3964.00,0.0009
3961.00,0.0008
3958.00,0.0008
3955.00,0.0009
3952.00,0.0009
3949.00,0.0009
3946.00,0.0009
3943.00,0.0008
3940.00,0.0009
3937.00,0.0009
3934.00,0.0009
3931.00,0.0008
3928.00,0.0008
3925.00,0.0009
3922.00,0.0009
3919.00,0.0009
3916.00,0.0009
3913.00,0.0009
3910.00,0.0009
3907.00,0.0009
3904.00,0.0010
3901.00,0.0010
3898.00,0.0009
3895.00,0.0009
3892.00,0.0009
3889.00,0.0010
3886.00,0.0009
3883.00,0.0009
3880.00,0.0008
3877.00,0.0009
3874.00,0.0010
3871.00,0.0010
3868.00,0.0010
3865.00,0.0010
3862.00,0.0009
3859.00,0.0009
3856.00,0.0011
3853.00,0.0011
3850.00,0.0010
3847.00,0.0009
3844.00,0.0009
3841.00,0.0010
3838.00,0.0010
3835.00,0.0010
3832.00,0.0009
3829.00,0.0009
3826.00,0.0009
3823.00,0.0010
3820.00,0.0009
3817.00,0.0010
3814.00,0.0011
3811.00,0.0011
3808.00,0.0010
3805.00,0.0011
3802.00,0.0010
3799.00,0.0010
3796.00,0.0009
3793.00,0.0009
3790.00,0.0010
3787.00,0.0010
3784.00,0.0010
3781.00,0.0009
3778.00,0.0009
3775.00,0.0009
3772.00,0.0010
3769.00,0.0010
3766.00,0.0010
3763.00,0.0010
3760.00,0.0009
3757.00,0.0009
3754.00,0.0010
3751.00,0.0010
3748.00,0.0011
3745.00,0.0011
3742.00,0.0011
3739.00,0.0009
3736.00,0.0009
3733.00,0.0010
3730.00,0.0010
3727.00,0.0009
3724.00,0.0009
3721.00,0.0009
3718.00,0.0009
3715.00,0.0010
3712.00,0.0010
3709.00,0.0010
3706.00,0.0009
3703.00,0.0009
3700.00,0.0009
3697.00,0.0008
3694.00,0.0009
3691.00,0.0009
3688.00,0.0010
3685.00,0.0010
3682.00,0.0009
3679.00,0.0009
3676.00,0.0010
3673.00,0.0011
3670.00,0.0010
3667.00,0.0010
3664.00,0.0010
3661.00,0.0010
3658.00,0.0011
3655.00,0.0011
3652.00,0.0012
3649.00,0.0012
3646.00,0.0012
3643.00,0.0010
3640.00,0.0010
3637.00,0.0010
3634.00,0.0010
3631.00,0.0011
3628.00,0.0010
3625.00,0.0011
3622.00,0.0011
3619.00,0.0010
3616.00,0.0010
3613.00,0.0010
3610.00,0.0011
3607.00,0.0011
3604.00,0.0011
3601.00,0.0011
3598.00,0.0011
3595.00,0.0011
3592.00,0.0012
3589.00,0.0012
3586.00,0.0012
3583.00,0.0012
3580.00,0.0012
3577.00,0.0012
3574.00,0.0012
3571.00,0.0012
3568.00,0.0012
3565.00,0.0012
3562.00,0.0012
3559.00,0.0013
3556.00,0.0014
3553.00,0.0014
3550.00,0.0014
3547.00,0.0014
3544.00,0.0014
3541.00,0.0015
3538.00,0.0015
3535.00,0.0015
3532.00,0.0015
3529.00,0.0015
3526.00,0.0015
3523.00,0.0016
3520.00,0.0015
3517.00,0.0015
3514.00,0.0016
3511.00,0.0016
3508.00,0.0015
3505.00,0.0016
3502.00,0.0017
3499.00,0.0018
3496.00,0.0017
3493.00,0.0017
3490.00,0.0018
3487.00,0.0017
3484.00,0.0017
3481.00,0.0017
3478.00,0.0017
3475.00,0.0018
3472.00,0.0018
3469.00,0.0018
3466.00,0.0018
3463.00,0.0018
3460.00,0.0018
3457.00,0.0018
3454.00,0.0019
3451.00,0.0019
3448.00,0.0020
3445.00,0.0020
3442.00,0.0020
3439.00,0.0019
3436.00,0.0019
3433.00,0.0019
3430.00,0.0019
3427.00,0.0018
3424.00,0.0019
3421.00,0.0019
3418.00,0.0018
3415.00,0.0019
3412.00,0.0019
3409.00,0.0019
3406.00,0.0019
3403.00,0.0019
3400.00,0.0019
3397.00,0.0019
3394.00,0.0019
3391.00,0.0019
3388.00,0.0019
3385.00,0.0019
3382.00,0.0018
3379.00,0.0018
3376.00,0.0019
3373.00,0.0018
3370.00,0.0018
3367.00,0.0018
3364.00,0.0018
3361.00,0.0018
3358.00,0.0019
3355.00,0.0018
3352.00,0.0018
3349.00,0.0018
3346.00,0.0018
3343.00,0.0018
3340.00,0.0018
3337.00,0.0017
3334.00,0.0017
3331.00,0.0017
3328.00,0.0018
3325.00,0.0017
3322.00,0.0018
3319.00,0.0018
3316.00,0.0017
3313.00,0.0017
3310.00,0.0018
3307.00,0.0017
3304.00,0.0017
3301.00,0.0017
3298.00,0.0017
3295.00,0.0017
3292.00,0.0017
3289.00,0.0016
3286.00,0.0017
3283.00,0.0017
3280.00,0.0017
3277.00,0.0017
3274.00,0.0017
3271.00,0.0016
3268.00,0.0016
3265.00,0.0016
3262.00,0.0016
3259.00,0.0016
3256.00,0.0016
3253.00,0.0016
3250.00,0.0016
3247.00,0.0016
3244.00,0.0016
3241.00,0.0016
3238.00,0.0016
3235.00,0.0016
3232.00,0.0015
3229.00,0.0015
3226.00,0.0015
3223.00,0.0016
3220.00,0.0016
3217.00,0.0015
3214.00,0.0016
3211.00,0.0016
3208.00,0.0016
3205.00,0.0017
3202.00,0.0017
3199.00,0.0017
3196.00,0.0016
3193.00,0.0016
3190.00,0.0015
3187.00,0.0015
3184.00,0.0015
3181.00,0.0015
3178.00,0.0015
3175.00,0.0015
3172.00,0.0015
3169.00,0.0016
3166.00,0.0016
3163.00,0.0016
3160.00,0.0016
3157.00,0.0015
3154.00,0.0015
3151.00,0.0015
3148.00,0.0014
3145.00,0.0014
3142.00,0.0013
3139.00,0.0014
3136.00,0.0014
3133.00,0.0014
3130.00,0.0013
3127.00,0.0014
3124.00,0.0015
3121.00,0.0015
3118.00,0.0017
3115.00,0.0019
3112.00,0.0023
3109.00,0.0028
3106.00,0.0034
3103.00,0.0035
3100.00,0.0033
3097.00,0.0033
3094.00,0.0037
3091.00,0.0047
3088.00,0.0064
3085.00,0.0080
3082.00,0.0085
3079.00,0.0075
3076.00,0.0066
3073.00,0.0064
3070.00,0.0071
3067.00,0.0085
3064.00,0.0104
3061.00,0.0116
3058.00,0.0112
3055.00,0.0094
3052.00,0.0077
3049.00,0.0066
3046.00,0.0061
3043.00,0.0064
3040.00,0.0074
3037.00,0.0093
3034.00,0.0125
3031.00,0.0170
3028.00,0.0211
3025.00,0.0220
3022.00,0.0183
3019.00,0.0129
3016.00,0.0089
3013.00,0.0068
3010.00,0.0059
3007.00,0.0061
3004.00,0.0066
3001.00,0.0066
2998.00,0.0057
2995.00,0.0046
2992.00,0.0039
2989.00,0.0037
2986.00,0.0037
2983.00,0.0036
2980.00,0.0036
2977.00,0.0039
2974.00,0.0041
2971.00,0.0043
2968.00,0.0046
2965.00,0.0051
2962.00,0.0056
2959.00,0.0063
2956.00,0.0071
2953.00,0.0080
2950.00,0.0091
2947.00,0.0106
2944.00,0.0125
2941.00,0.0146
2938.00,0.0172
2935.00,0.0200
2932.00,0.0228
2929.00,0.0253
2926.00,0.0270
2923.00,0.0278
2920.00,0.0276
2917.00,0.0266
2914.00,0.0250
2911.00,0.0231
2908.00,0.0212
2905.00,0.0192
2902.00,0.0170
2899.00,0.0150
2896.00,0.0133
2893.00,0.0121
2890.00,0.0112
2887.00,0.0103
2884.00,0.0096
2881.00,0.0089
2878.00,0.0084
2875.00,0.0079
2872.00,0.0076
2869.00,0.0076
2866.00,0.0078
2863.00,0.0085
2860.00,0.0096
2857.00,0.0108
2854.00,0.0119
2851.00,0.0125
2848.00,0.0122
2845.00,0.0111
2842.00,0.0092
2839.00,0.0070
2836.00,0.0054
2833.00,0.0043
2830.00,0.0037
2827.00,0.0034
2824.00,0.0031
2821.00,0.0029
2818.00,0.0028
2815.00,0.0028
2812.00,0.0027
2809.00,0.0026
2806.00,0.0025
2803.00,0.0024
2800.00,0.0023
2797.00,0.0023
2794.00,0.0022
2791.00,0.0022
2788.00,0.0022
2785.00,0.0022
2782.00,0.0021
2779.00,0.0021
2776.00,0.0021
2773.00,0.0020
2770.00,0.0020
2767.00,0.0019
2764.00,0.0019
2761.00,0.0019
2758.00,0.0019
2755.00,0.0018
2752.00,0.0018
2749.00,0.0017
2746.00,0.0018
2743.00,0.0018
2740.00,0.0017
2737.00,0.0018
2734.00,0.0018
2731.00,0.0018
2728.00,0.0018
2725.00,0.0018
2722.00,0.0018
2719.00,0.0018
2716.00,0.0018
2713.00,0.0018
2710.00,0.0018
2707.00,0.0017
2704.00,0.0017
2701.00,0.0018
2698.00,0.0018
2695.00,0.0018
2692.00,0.0017
2689.00,0.0017
2686.00,0.0017
2683.00,0.0017
2680.00,0.0017
2677.00,0.0017
2674.00,0.0017
2671.00,0.0017
2668.00,0.0018
2665.00,0.0019
2662.00,0.0020
2659.00,0.0021
2656.00,0.0022
2653.00,0.0022
2650.00,0.0022
2647.00,0.0022
2644.00,0.0022
2641.00,0.0023
2638.00,0.0023
2635.00,0.0023
2632.00,0.0023
2629.00,0.0022
2626.00,0.0021
2623.00,0.0021
2620.00,0.0021
2617.00,0.0020
2614.00,0.0019
2611.00,0.0019
2608.00,0.0020
2605.00,0.0020
2602.00,0.0020
2599.00,0.0019
2596.00,0.0017
2593.00,0.0017
2590.00,0.0017
2587.00,0.0016
2584.00,0.0016
2581.00,0.0016
2578.00,0.0016
2575.00,0.0016
2572.00,0.0016
2569.00,0.0015
2566.00,0.0014
2563.00,0.0015
2560.00,0.0015
2557.00,0.0015
2554.00,0.0015
2551.00,0.0015
2548.00,0.0014
2545.00,0.0013
2542.00,0.0013
2539.00,0.0012
2536.00,0.0012
2533.00,0.0013
2530.00,0.0013
2527.00,0.0013
2524.00,0.0013
2521.00,0.0013
2518.00,0.0013
2515.00,0.0013
2512.00,0.0013
2509.00,0.0013
2506.00,0.0012
2503.00,0.0013
2500.00,0.0013
2497.00,0.0014
2494.00,0.0013
2491.00,0.0012
2488.00,0.0011
2485.00,0.0012
2482.00,0.0012
2479.00,0.0011
2476.00,0.0011
2473.00,0.0011
2470.00,0.0010
2467.00,0.0010
2464.00,0.0011
2461.00,0.0011
2458.00,0.0012
2455.00,0.0011
2452.00,0.0011
2449.00,0.0011
2446.00,0.0011
2443.00,0.0011
2440.00,0.0011
2437.00,0.0010
2434.00,0.0009
2431.00,0.0008
2428.00,0.0008
2425.00,0.0008
2422.00,0.0008
2419.00,0.0008
2416.00,0.0007
2413.00,0.0007
2410.00,0.0007
2407.00,0.0006
2404.00,0.0006
2401.00,0.0006
2398.00,0.0006
2395.00,0.0006
2392.00,0.0006
2389.00,0.0005
2386.00,0.0005
2383.00,0.0006
2380.00,0.0006
2377.00,0.0006
2374.00,0.0007
2371.00,0.0006
2368.00,0.0007
2365.00,0.0008
2362.00,0.0009
2359.00,0.0010
2356.00,0.0010
2353.00,0.0011
2350.00,0.0011
2347.00,0.0013
2344.00,0.0015
2341.00,0.0016
2338.00,0.0016
2335.00,0.0015
2332.00,0.0014
2329.00,0.0017
2326.00,0.0028
2323.00,0.0026
2320.00,0.0022
2317.00,0.0020
2314.00,0.0020
2311.00,0.0020
2308.00,0.0018
2305.00,0.0016
2302.00,0.0016
2299.00,0.0017
2296.00,0.0018
2293.00,0.0020
2290.00,0.0021
2287.00,0.0022
2284.00,0.0020
2281.00,0.0019
2278.00,0.0017
2275.00,0.0016
2272.00,0.0015
2269.00,0.0013
2266.00,0.0011
2263.00,0.0013
2260.00,0.0014
2257.00,0.0011
2254.00,0.0010
2251.00,0.0011
2248.00,0.0013
2245.00,0.0013
2242.00,0.0011
2239.00,0.0011
2236.00,0.0011
2233.00,0.0010
2230.00,0.0010
2227.00,0.0010
2224.00,0.0011
2221.00,0.0009
2218.00,0.0010
2215.00,0.0010
2212.00,0.0010
2209.00,0.0010
2206.00,0.0008
2203.00,0.0007
2200.00,0.0009
2197.00,0.0011
2194.00,0.0009
2191.00,0.0009
2188.00,0.0012
2185.00,0.0009
2182.00,0.0003
2179.00,0.0008
2176.00,0.0005
2173.00,0.0007
2170.00,0.0016
2167.00,0.0020
2164.00,0.0022
2161.00,0.0005
2158.00,-0.0029
2155.00,-0.0019
2152.00,-0.0015
2149.00,-0.0014
2146.00,-0.0013
2143.00,-0.0013
2140.00,-0.0013
2137.00,-0.0015
2134.00,-0.0019
2131.00,-0.0014
2128.00,-0.0007
2125.00,-0.0004
2122.00,-0.0002
2119.00,0.0001
2116.00,0.0005
2113.00,0.0006
2110.00,0.0005
2107.00,0.0005
2104.00,0.0005
2101.00,0.0004
2098.00,0.0003
2095.00,-0.0002
2092.00,0.0003
2089.00,0.0005
2086.00,0.0005
2083.00,0.0006
2080.00,0.0008
2077.00,0.0006
2074.00,0.0006
2071.00,0.0005
2068.00,0.0004
2065.00,0.0003
2062.00,0.0004
2059.00,0.0004
2056.00,0.0004
2053.00,0.0010
2050.00,0.0010
2047.00,0.0003
2044.00,0.0005
2041.00,0.0003
2038.00,0.0003
2035.00,0.0002
2032.00,-0.0003
2029.00,-0.0002
2026.00,-0.0002
2023.00,-0.0005
2020.00,-0.0003
2017.00,-0.0002
2014.00,-0.0002
2011.00,-0.0001
2008.00,-0.0007
2005.00,-0.0012
2002.00,-0.0004
1999.00,0.0001
1996.00,0.0004
1993.00,0.0004
1990.00,0.0005
1987.00,0.0010
1984.00,0.0015
1981.00,0.0020
1978.00,0.0008
1975.00,0.0003
1972.00,-0.0001
1969.00,0.0000
1966.00,0.0009
1963.00,0.0012
1960.00,0.0007
1957.00,0.0010
1954.00,0.0017
1951.00,0.0020
1948.00,0.0026
1945.00,0.0028
1942.00,0.0027
1939.00,0.0024
1936.00,0.0018
1933.00,0.0013
1930.00,0.0007
1927.00,0.0005
1924.00,0.0006
1921.00,0.0005
1918.00,0.0003
1915.00,0.0003
1912.00,0.0002
1909.00,0.0003
1906.00,0.0004
1903.00,0.0006
1900.00,0.0007
1897.00,0.0010
1894.00,0.0012
1891.00,0.0015
1888.00,0.0018
1885.00,0.0021
1882.00,0.0022
1879.00,0.0023
1876.00,0.0025
1873.00,0.0026
1870.00,0.0026
1867.00,0.0025
1864.00,0.0022
1861.00,0.0019
1858.00,0.0015
1855.00,0.0012
1852.00,0.0009
1849.00,0.0007
1846.00,0.0006
1843.00,0.0005
1840.00,0.0006
1837.00,0.0007
1834.00,0.0009
1831.00,0.0010
1828.00,0.0011
1825.00,0.0013
1822.00,0.0016
1819.00,0.0016
1816.00,0.0018
1813.00,0.0023
1810.00,0.0027
1807.00,0.0030
1804.00,0.0032
1801.00,0.0033
1798.00,0.0031
1795.00,0.0028
1792.00,0.0023
1789.00,0.0020
1786.00,0.0018
1783.00,0.0018
1780.00,0.0019
1777.00,0.0019
1774.00,0.0020
1771.00,0.0021
1768.00,0.0021
1765.00,0.0023
1762.00,0.0025
1759.00,0.0028
1756.00,0.0031
1753.00,0.0035
1750.00,0.0038
1747.00,0.0042
1744.00,0.0044
1741.00,0.0046
1738.00,0.0046
1735.00,0.0045
1732.00,0.0044
1729.00,0.0041
1726.00,0.0040
1723.00,0.0037
1720.00,0.0036
1717.00,0.0035
1714.00,0.0033
1711.00,0.0033
1708.00,0.0033
1705.00,0.0032
1702.00,0.0032
1699.00,0.0032
1696.00,0.0033
1693.00,0.0033
1690.00,0.0035
1687.00,0.0037
1684.00,0.0041
1681.00,0.0043
1678.00,0.0043
1675.00,0.0045
1672.00,0.0046
1669.00,0.0046
1666.00,0.0046
1663.00,0.0045
1660.00,0.0043
1657.00,0.0041
1654.00,0.0040
1651.00,0.0039
1648.00,0.0037
1645.00,0.0034
1642.00,0.0032
1639.00,0.0031
1636.00,0.0031
1633.00,0.0031
1630.00,0.0030
1627.00,0.0031
1624.00,0.0031
1621.00,0.0032
1618.00,0.0035
1615.00,0.0041
1612.00,0.0049
1609.00,0.0077
1606.00,0.0136
1603.00,0.0202
1600.00,0.0206
1597.00,0.0146
1594.00,0.0096
1591.00,0.0072
1588.00,0.0069
1585.00,0.0089
1582.00,0.0089
1579.00,0.0060
1576.00,0.0042
1573.00,0.0034
1570.00,0.0029
1567.00,0.0026
1564.00,0.0025
1561.00,0.0025
1558.00,0.0026
1555.00,0.0027
1552.00,0.0029
1549.00,0.0031
1546.00,0.0034
1543.00,0.0036
1540.00,0.0035
1537.00,0.0032
1534.00,0.0028
1531.00,0.0025
1528.00,0.0022
1525.00,0.0021
1522.00,0.0020
1519.00,0.0021
1516.00,0.0022
1513.00,0.0024
1510.00,0.0026
1507.00,0.0033
1504.00,0.0047
1501.00,0.0075
1498.00,0.0173
1495.00,0.0422
1492.00,0.0491
1489.00,0.0293
1486.00,0.0159
1483.00,0.0100
1480.00,0.0071
1477.00,0.0060
1474.00,0.0056
1471.00,0.0058
1468.00,0.0061
1465.00,0.0069
1462.00,0.0085
1459.00,0.0124
1456.00,0.0337
1453.00,0.0506
1450.00,0.0478
1447.00,0.0371
1444.00,0.0295
1441.00,0.0231
1438.00,0.0183
1435.00,0.0136
1432.00,0.0104
1429.00,0.0081
1426.00,0.0069
1423.00,0.0062
1420.00,0.0058
1417.00,0.0055
1414.00,0.0052
1411.00,0.0050
1408.00,0.0049
1405.00,0.0048
1402.00,0.0049
1399.00,0.0050
1396.00,0.0052
1393.00,0.0059
1390.00,0.0067
1387.00,0.0079
1384.00,0.0091
1381.00,0.0101
1378.00,0.0111
1375.00,0.0119
1372.00,0.0123
1369.00,0.0122
1366.00,0.0120
1363.00,0.0117
1360.00,0.0113
1357.00,0.0108
1354.00,0.0105
1351.00,0.0103
1348.00,0.0102
1345.00,0.0098
1342.00,0.0092
1339.00,0.0089
1336.00,0.0091
1333.00,0.0097
1330.00,0.0102
1327.00,0.0102
1324.00,0.0099
1321.00,0.0096
1318.00,0.0096
1315.00,0.0099
1312.00,0.0100
1309.00,0.0097
1306.00,0.0093
1303.00,0.0089
1300.00,0.0085
1297.00,0.0083
1294.00,0.0083
1291.00,0.0081
1288.00,0.0078
1285.00,0.0076
1282.00,0.0075
1279.00,0.0073
1276.00,0.0069
1273.00,0.0065
1270.00,0.0061
1267.00,0.0059
1264.00,0.0057
1261.00,0.0056
1258.00,0.0056
1255.00,0.0056
1252.00,0.0057
1249.00,0.0057
1246.00,0.0058
1243.00,0.0057
1240.00,0.0057
1237.00,0.0057
1234.00,0.0056
1231.00,0.0056
1228.00,0.0056
1225.00,0.0057
1222.00,0.0057
1219.00,0.0057
1216.00,0.0058
1213.00,0.0060
1210.00,0.0062
1207.00,0.0067
1204.00,0.0072
1201.00,0.0078
1198.00,0.0082
1195.00,0.0084
1192.00,0.0085
1189.00,0.0088
1186.00,0.0097
1183.00,0.0111
1180.00,0.0111
1177.00,0.0092
1174.00,0.0076
1171.00,0.0070
1168.00,0.0068
1165.00,0.0069
1162.00,0.0076
1159.00,0.0091
1156.00,0.0110
1153.00,0.0108
1150.00,0.0085
1147.00,0.0067
1144.00,0.0058
1141.00,0.0053
1138.00,0.0049
1135.00,0.0048
1132.00,0.0048
1129.00,0.0049
1126.00,0.0048
1123.00,0.0050
1120.00,0.0053
1117.00,0.0059
1114.00,0.0063
1111.00,0.0063
1108.00,0.0062
1105.00,0.0062
1102.00,0.0063
1099.00,0.0065
1096.00,0.0068
1093.00,0.0069
1090.00,0.0074
1087.00,0.0080
1084.00,0.0087
1081.00,0.0096
1078.00,0.0107
1075.00,0.0121
1072.00,0.0137
1069.00,0.0145
1066.00,0.0138
1063.00,0.0123
1060.00,0.0108
1057.00,0.0097
1054.00,0.0090
1051.00,0.0084
1048.00,0.0080
1045.00,0.0077
1042.00,0.0077
1039.00,0.0086
1036.00,0.0115
1033.00,0.0176
1030.00,0.0235
1027.00,0.0242
1024.00,0.0198
1021.00,0.0158
1018.00,0.0133
1015.00,0.0116
1012.00,0.0106
1009.00,0.0102
1006.00,0.0106
1003.00,0.0110
1000.00,0.0095
997.00,0.0081
994.00,0.0078
991.00,0.0078
988.00,0.0082
985.00,0.0090
982.00,0.0096
979.00,0.0097
976.00,0.0092
973.00,0.0089
970.00,0.0093
967.00,0.0102
964.00,0.0106
961.00,0.0099
958.00,0.0087
955.00,0.0079
952.00,0.0077
949.00,0.0080
946.00,0.0084
943.00,0.0086
940.00,0.0083
937.00,0.0075
934.00,0.0067
931.00,0.0062
928.00,0.0061
925.00,0.0062
922.00,0.0067
919.00,0.0074
916.00,0.0091
913.00,0.0118
910.00,0.0149
907.00,0.0169
904.00,0.0160
901.00,0.0127
898.00,0.0094
895.00,0.0074
892.00,0.0064
889.00,0.0058
886.00,0.0054
883.00,0.0051
880.00,0.0049
877.00,0.0047
874.00,0.0046
871.00,0.0045
868.00,0.0044
865.00,0.0044
862.00,0.0043
859.00,0.0043
856.00,0.0047
853.00,0.0051
850.00,0.0061
847.00,0.0076
844.00,0.0088
841.00,0.0091
838.00,0.0082
835.00,0.0066
832.00,0.0051
829.00,0.0044
826.00,0.0042
823.00,0.0040
820.00,0.0041
817.00,0.0042
814.00,0.0042
811.00,0.0043
808.00,0.0044
805.00,0.0045
802.00,0.0048
799.00,0.0053
796.00,0.0061
793.00,0.0070
790.00,0.0083
787.00,0.0100
784.00,0.0120
781.00,0.0146
778.00,0.0186
775.00,0.0241
772.00,0.0312
769.00,0.0395
766.00,0.0479
763.00,0.0559
760.00,0.0640
757.00,0.0700
754.00,0.0716
751.00,0.0710
748.00,0.0703
745.00,0.0645
742.00,0.0518
739.00,0.0389
736.00,0.0282
733.00,0.0189
730.00,0.0127
727.00,0.0100
724.00,0.0089
721.00,0.0087
718.00,0.0093
715.00,0.0113
712.00,0.0170
709.00,0.0308
706.00,0.0566
703.00,0.0933
700.00,0.1371
697.00,0.1787
694.00,0.1868
691.00,0.1393
688.00,0.0915
685.00,0.0652
682.00,0.0507
679.00,0.0419
676.00,0.0362
673.00,0.0325
670.00,0.0298
667.00,0.0268
664.00,0.0238
661.00,0.0214
658.00,0.0191
655.00,0.0173
652.00,0.0158
649.00,0.0145
646.00,0.0135
643.00,0.0131
640.00,0.0129
637.00,0.0134
634.00,0.0143
631.00,0.0152
628.00,0.0158
625.00,0.0162
622.00,0.0170
619.00,0.0167
616.00,0.0154
613.00,0.0143
610.00,0.0142
607.00,0.0137
604.00,0.0137
601.00,0.0139
598.00,0.0144
595.00,0.0148
592.00,0.0151
589.00,0.0160
586.00,0.0167
583.00,0.0176
580.00,0.0193
577.00,0.0215
574.00,0.0242
571.00,0.0271
568.00,0.0298
565.00,0.0326
562.00,0.0354
559.00,0.0380
556.00,0.0409
553.00,0.0442
550.00,0.0480
547.00,0.0532
544.00,0.0592
541.00,0.0651
538.00,0.0675
535.00,0.0639
532.00,0.0552
529.00,0.0453
526.00,0.0370
523.00,0.0312
520.00,0.0271
517.00,0.0246
514.00,0.0227
511.00,0.0206
508.00,0.0186
505.00,0.0175
502.00,0.0162
499.00,0.0146
496.00,0.0136
493.00,0.0132
490.00,0.0128
487.00,0.0121
484.00,0.0116
481.00,0.0116
478.00,0.0117
475.00,0.0111
472.00,0.0112
469.00,0.0114
466.00,0.0103
463.00,0.0103
460.00,0.0107
457.00,0.0101
454.00,0.0100
451.00,0.0100
448.00,0.0103
445.00,0.0095
442.00,0.0093
439.00,0.0095
436.00,0.0090
433.00,0.0089
430.00,0.0088
427.00,0.0092
424.00,0.0101
421.00,0.0114
418.00,0.0118
415.00,0.0101
412.00,0.0098
409.00,0.0104
406.00,0.0099
403.00,0.0108
400.00,0.0099