File: FTIR/Olivia/2025_07_23_Polystyrene_Std_scan1.csv
Created as New Dataset,Sample 878 By YargerLab Date Monday, July 21 2025
cm-1,A
4000.00,0.0010
3997.00,0.0009
3994.00,0.0008
3991.00,0.0008
3988.00,0.0009
3985.00,0.0009
3982.00,0.0009
3979.00,0.0008
3976.00,0.0008
3973.00,0.0008
3970.00,0.0008
3967.00,0.0008
3964.00,0.0008
3961.00,0.0008
3958.00,0.0008
3955.00,0.0008
3952.00,0.0008
3949.00,0.0008
3946.00,0.0008
3943.00,0.0008
3940.00,0.0008
3937.00,0.0008
3934.00,0.0008
3931.00,0.0008
3928.00,0.0008
3925.00,0.0009
3922.00,0.0009
3919.00,0.0008
3916.00,0.0008
3913.00,0.0008
3910.00,0.0008
3907.00,0.0009
3904.00,0.0009
3901.00,0.0009
3898.00,0.0008
3895.00,0.0008
3892.00,0.0008
3889.00,0.0009
3886.00,0.0007
3883.00,0.0008
3880.00,0.0007
3877.00,0.0008
3874.00,0.0009
3871.00,0.0009
3868.00,0.0009
3865.00,0.0009
3862.00,0.0009
3859.00,0.0009
3856.00,0.0009
3853.00,0.0008
3850.00,0.0008
3847.00,0.0008
3844.00,0.0009
3841.00,0.0009
3838.00,0.0009
3835.00,0.0009
3832.00,0.0008
3829.00,0.0009
3826.00,0.0009
3823.00,0.0009
3820.00,0.0009
3817.00,0.0008
3814.00,0.0009
3811.00,0.0010
3808.00,0.0010
3805.00,0.0010
3802.00,0.0009
3799.00,0.0009
3796.00,0.0008
3793.00,0.0008
3790.00,0.0009
3787.00,0.0009
3784.00,0.0009
3781.00,0.0009
3778.00,0.0009
3775.00,0.0009
3772.00,0.0009
3769.00,0.0009
3766.00,0.0009
3763.00,0.0009
3760.00,0.0009
3757.00,0.0009
3754.00,0.0010
3751.00,0.0009
3748.00,0.0009
3745.00,0.0008
3742.00,0.0009
3739.00,0.0008
3736.00,0.0009
3733.00,0.0009
3730.00,0.0008
3727.00,0.0008
3724.00,0.0008
3721.00,0.0008
3718.00,0.0008
3715.00,0.0009
3712.00,0.0009
3709.00,0.0009
3706.00,0.0009
3703.00,0.0008
3700.00,0.0008
3697.00,0.0007
3694.00,0.0007
3691.00,0.0008
3688.00,0.0008
3685.00,0.0008
3682.00,0.0008
3679.00,0.0009
3676.00,0.0009
3673.00,0.0010
3670.00,0.0009
3667.00,0.0009
3664.00,0.0009
3661.00,0.0010
3658.00,0.0010
3655.00,0.0010
3652.00,0.0011
3649.00,0.0011
3646.00,0.0010
3643.00,0.0009
3640.00,0.0009
3637.00,0.0009
3634.00,0.0009
3631.00,0.0009
3628.00,0.0008
3625.00,0.0009
3622.00,0.0009
3619.00,0.0009
3616.00,0.0009
3613.00,0.0009
3610.00,0.0009
3607.00,0.0008
3604.00,0.0009
3601.00,0.0009
3598.00,0.0010
3595.00,0.0011
3592.00,0.0010
3589.00,0.0010
3586.00,0.0010
3583.00,0.0010
3580.00,0.0011
3577.00,0.0010
3574.00,0.0010
3571.00,0.0011
3568.00,0.0011
3565.00,0.0011
3562.00,0.0011
3559.00,0.0012
3556.00,0.0013
3553.00,0.0013
3550.00,0.0013
3547.00,0.0013
3544.00,0.0013
3541.00,0.0013
3538.00,0.0014
3535.00,0.0014
3532.00,0.0014
3529.00,0.0014
3526.00,0.0015
3523.00,0.0015
3520.00,0.0015
3517.00,0.0014
3514.00,0.0015
3511.00,0.0015
3508.00,0.0015
3505.00,0.0015
3502.00,0.0016
3499.00,0.0016
3496.00,0.0016
3493.00,0.0016
3490.00,0.0017
3487.00,0.0017
3484.00,0.0016
3481.00,0.0016
3478.00,0.0016
3475.00,0.0017
3472.00,0.0017
3469.00,0.0017
3466.00,0.0018
3463.00,0.0017
3460.00,0.0018
3457.00,0.0017
3454.00,0.0018
3451.00,0.0018
3448.00,0.0018
3445.00,0.0018
3442.00,0.0018
3439.00,0.0018
3436.00,0.0018
3433.00,0.0018
3430.00,0.0018
3427.00,0.0018
3424.00,0.0018
3421.00,0.0018
3418.00,0.0018
3415.00,0.0018
3412.00,0.0018
3409.00,0.0018
3406.00,0.0018
3403.00,0.0018
3400.00,0.0018
3397.00,0.0018
3394.00,0.0018
3391.00,0.0018
3388.00,0.0018
3385.00,0.0018
3382.00,0.0018
3379.00,0.0018
3376.00,0.0018
3373.00,0.0018
3370.00,0.0017
3367.00,0.0018
3364.00,0.0018
3361.00,0.0018
3358.00,0.0018
3355.00,0.0018
3352.00,0.0017
3349.00,0.0017
3346.00,0.0017
3343.00,0.0017
3340.00,0.0017
3337.00,0.0017
3334.00,0.0017
3331.00,0.0017
3328.00,0.0018
3325.00,0.0017
3322.00,0.0017
3319.00,0.0017
3316.00,0.0017
3313.00,0.0017
3310.00,0.0017
3307.00,0.0017
3304.00,0.0016
3301.00,0.0017
3298.00,0.0017
3295.00,0.0017
3292.00,0.0017
3289.00,0.0016
3286.00,0.0016
3283.00,0.0017
3280.00,0.0017
3277.00,0.0017
3274.00,0.0016
3271.00,0.0015
3268.00,0.0015
3265.00,0.0016
3262.00,0.0016
3259.00,0.0016
3256.00,0.0016
3253.00,0.0016
3250.00,0.0016
3247.00,0.0016
3244.00,0.0015
3241.00,0.0015
3238.00,0.0015
3235.00,0.0015
3232.00,0.0015
3229.00,0.0015
3226.00,0.0015
3223.00,0.0015
3220.00,0.0015
3217.00,0.0015
3214.00,0.0015
3211.00,0.0015
3208.00,0.0016
3205.00,0.0016
3202.00,0.0016
3199.00,0.0016
3196.00,0.0015
3193.00,0.0015
3190.00,0.0014
3187.00,0.0014
3184.00,0.0014
3181.00,0.0014
3178.00,0.0014
3175.00,0.0014
3172.00,0.0014
3169.00,0.0015
3166.00,0.0015
3163.00,0.0015
3160.00,0.0014
3157.00,0.0014
3154.00,0.0014
3151.00,0.0014
3148.00,0.0012
3145.00,0.0013
3142.00,0.0012
3139.00,0.0012
3136.00,0.0013
3133.00,0.0013
3130.00,0.0012
3127.00,0.0013
3124.00,0.0013
3121.00,0.0014
3118.00,0.0016
3115.00,0.0018
3112.00,0.0022
3109.00,0.0027
3106.00,0.0033
3103.00,0.0034
3100.00,0.0032
3097.00,0.0032
3094.00,0.0036
3091.00,0.0046
3088.00,0.0063
3085.00,0.0079
3082.00,0.0083
3079.00,0.0073
3076.00,0.0064
3073.00,0.0062
3070.00,0.0069
3067.00,0.0084
3064.00,0.0102
3061.00,0.0113
3058.00,0.0108
3055.00,0.0091
3052.00,0.0075
3049.00,0.0064
3046.00,0.0060
3043.00,0.0064
3040.00,0.0074
3037.00,0.0093
3034.00,0.0124
3031.00,0.0167
3028.00,0.0206
3025.00,0.0214
3022.00,0.0178
3019.00,0.0125
3016.00,0.0086
3013.00,0.0066
3010.00,0.0058
3007.00,0.0060
3004.00,0.0065
3001.00,0.0065
2998.00,0.0055
2995.00,0.0044
2992.00,0.0038
2989.00,0.0036
2986.00,0.0036
2983.00,0.0035
2980.00,0.0036
2977.00,0.0038
2974.00,0.0040
2971.00,0.0043
2968.00,0.0046
2965.00,0.0050
2962.00,0.0055
2959.00,0.0062
2956.00,0.0069
2953.00,0.0079
2950.00,0.0090
2947.00,0.0105
2944.00,0.0123
2941.00,0.0144
2938.00,0.0168
2935.00,0.0195
2932.00,0.0222
2929.00,0.0246
2926.00,0.0263
2923.00,0.0272
2920.00,0.0270
2917.00,0.0260
2914.00,0.0245
2911.00,0.0227
2908.00,0.0208
2905.00,0.0189
2902.00,0.0169
2899.00,0.0149
2896.00,0.0133
2893.00,0.0121
2890.00,0.0111
2887.00,0.0103
2884.00,0.0096
2881.00,0.0090
2878.00,0.0084
2875.00,0.0079
2872.00,0.0077
2869.00,0.0076
2866.00,0.0078
2863.00,0.0085
2860.00,0.0095
2857.00,0.0107
2854.00,0.0118
2851.00,0.0124
2848.00,0.0122
2845.00,0.0110
2842.00,0.0091
2839.00,0.0070
2836.00,0.0054
2833.00,0.0044
2830.00,0.0037
2827.00,0.0033
2824.00,0.0031
2821.00,0.0029
2818.00,0.0028
2815.00,0.0027
2812.00,0.0027
2809.00,0.0025
2806.00,0.0025
2803.00,0.0024
2800.00,0.0023
2797.00,0.0022
2794.00,0.0021
2791.00,0.0021
2788.00,0.0021
2785.00,0.0020
2782.00,0.0020
2779.00,0.0020
2776.00,0.0019
2773.00,0.0019
2770.00,0.0018
2767.00,0.0018
2764.00,0.0018
2761.00,0.0017
2758.00,0.0017
2755.00,0.0017
2752.00,0.0017
2749.00,0.0016
2746.00,0.0016
2743.00,0.0017
2740.00,0.0017
2737.00,0.0017
2734.00,0.0018
2731.00,0.0017
2728.00,0.0017
2725.00,0.0017
2722.00,0.0017
2719.00,0.0017
2716.00,0.0017
2713.00,0.0017
2710.00,0.0017
2707.00,0.0016
2704.00,0.0016
2701.00,0.0016
2698.00,0.0016
2695.00,0.0017
2692.00,0.0016
2689.00,0.0016
2686.00,0.0016
2683.00,0.0016
2680.00,0.0016
2677.00,0.0016
2674.00,0.0017
2671.00,0.0017
2668.00,0.0017
2665.00,0.0018
2662.00,0.0020
2659.00,0.0020
2656.00,0.0021
2653.00,0.0021
2650.00,0.0021
2647.00,0.0022
2644.00,0.0021
2641.00,0.0022
2638.00,0.0022
2635.00,0.0022
2632.00,0.0022
2629.00,0.0021
2626.00,0.0020
2623.00,0.0020
2620.00,0.0020
2617.00,0.0019
2614.00,0.0019
2611.00,0.0018
2608.00,0.0019
2605.00,0.0019
2602.00,0.0019
2599.00,0.0018
2596.00,0.0017
2593.00,0.0016
2590.00,0.0016
2587.00,0.0016
2584.00,0.0016
2581.00,0.0015
2578.00,0.0016
2575.00,0.0015
2572.00,0.0014
2569.00,0.0015
2566.00,0.0014
2563.00,0.0013
2560.00,0.0014
2557.00,0.0014
2554.00,0.0014
2551.00,0.0014
2548.00,0.0013
2545.00,0.0013
2542.00,0.0012
2539.00,0.0012
2536.00,0.0011
2533.00,0.0012
2530.00,0.0012
2527.00,0.0012
2524.00,0.0012
2521.00,0.0012
2518.00,0.0011
2515.00,0.0011
2512.00,0.0012
2509.00,0.0012
2506.00,0.0011
2503.00,0.0012
2500.00,0.0012
2497.00,0.0012
2494.00,0.0012
2491.00,0.0011
2488.00,0.0010
2485.00,0.0011
2482.00,0.0011
2479.00,0.0010
2476.00,0.0010
2473.00,0.0009
2470.00,0.0009
2467.00,0.0009
2464.00,0.0010
2461.00,0.0010
2458.00,0.0011
2455.00,0.0010
2452.00,0.0010
2449.00,0.0010
2446.00,0.0010
2443.00,0.0010
2440.00,0.0010
2437.00,0.0009
2434.00,0.0008
2431.00,0.0008
2428.00,0.0007
2425.00,0.0007
2422.00,0.0007
2419.00,0.0007
2416.00,0.0006
2413.00,0.0006
2410.00,0.0005
2407.00,0.0005
2404.00,0.0005
2401.00,0.0005
2398.00,0.0005
2395.00,0.0006
2392.00,0.0006
2389.00,0.0005
2386.00,0.0005
2383.00,0.0005
2380.00,0.0004
2377.00,0.0005
2374.00,0.0006
2371.00,0.0005
2368.00,0.0005
2365.00,0.0006
2362.00,0.0007
2359.00,0.0009
2356.00,0.0009
2353.00,0.0010
2350.00,0.0010
2347.00,0.0012
2344.00,0.0013
2341.00,0.0014
2338.00,0.0015
2335.00,0.0015
2332.00,0.0014
2329.00,0.0016
2326.00,0.0026
2323.00,0.0024
2320.00,0.0020
2317.00,0.0018
2314.00,0.0018
2311.00,0.0017
2308.00,0.0015
2305.00,0.0014
2302.00,0.0014
2299.00,0.0014
2296.00,0.0016
2293.00,0.0018
2290.00,0.0021
2287.00,0.0022
2284.00,0.0019
2281.00,0.0017
2278.00,0.0015
2275.00,0.0014
2272.00,0.0014
2269.00,0.0012
2266.00,0.0011
2263.00,0.0012
2260.00,0.0015
2257.00,0.0011
2254.00,0.0010
2251.00,0.0011
2248.00,0.0011
2245.00,0.0011
2242.00,0.0010
2239.00,0.0010
2236.00,0.0010
2233.00,0.0012
2230.00,0.0010
2227.00,0.0010
2224.00,0.0010
2221.00,0.0009
2218.00,0.0008
2215.00,0.0010
2212.00,0.0009
2209.00,0.0009
2206.00,0.0008
2203.00,0.0008
2200.00,0.0007
2197.00,0.0008
2194.00,0.0009
2191.00,0.0012
2188.00,0.0012
2185.00,0.0009
2182.00,0.0006
2179.00,0.0010
2176.00,0.0004
2173.00,0.0004
2170.00,0.0013
2167.00,0.0018
2164.00,0.0024
2161.00,0.0006
2158.00,-0.0031
2155.00,-0.0022
2152.00,-0.0014
2149.00,-0.0013
2146.00,-0.0015
2143.00,-0.0013
2140.00,-0.0010
2137.00,-0.0015
2134.00,-0.0021
2131.00,-0.0015
2128.00,-0.0011
2125.00,-0.0006
2122.00,-0.0002
2119.00,0.0001
2116.00,0.0005
2113.00,0.0006
2110.00,0.0005
2107.00,0.0004
2104.00,0.0005
2101.00,0.0005
2098.00,0.0001
2095.00,-0.0003
2092.00,0.0001
2089.00,0.0004
2086.00,0.0005
2083.00,0.0005
2080.00,0.0007
2077.00,0.0006
2074.00,0.0005
2071.00,0.0005
2068.00,0.0003
2065.00,0.0001
2062.00,0.0001
2059.00,0.0001
2056.00,0.0001
2053.00,0.0009
2050.00,0.0011
2047.00,0.0004
2044.00,0.0005
2041.00,0.0003
2038.00,0.0003
2035.00,0.0000
2032.00,-0.0004
2029.00,-0.0001
2026.00,-0.0003
2023.00,-0.0005
2020.00,-0.0000
2017.00,-0.0000
2014.00,-0.0002
2011.00,0.0003
2008.00,-0.0004
2005.00,-0.0012
2002.00,-0.0005
1999.00,-0.0002
1996.00,0.0002
1993.00,0.0001
1990.00,0.0005
1987.00,0.0007
1984.00,0.0014
1981.00,0.0023
1978.00,0.0007
1975.00,-0.0002
1972.00,-0.0000
1969.00,0.0001
1966.00,0.0006
1963.00,0.0011
1960.00,0.0005
1957.00,0.0011
1954.00,0.0017
1951.00,0.0020
1948.00,0.0024
1945.00,0.0026
1942.00,0.0024
1939.00,0.0021
1936.00,0.0017
1933.00,0.0012
1930.00,0.0006
1927.00,0.0004
1924.00,0.0003
1921.00,0.0005
1918.00,0.0002
1915.00,0.0001
1912.00,0.0001
1909.00,0.0003
1906.00,0.0003
1903.00,0.0005
1900.00,0.0006
1897.00,0.0008
1894.00,0.0010
1891.00,0.0014
1888.00,0.0017
1885.00,0.0018
1882.00,0.0020
1879.00,0.0022
1876.00,0.0024
1873.00,0.0027
1870.00,0.0025
1867.00,0.0024
1864.00,0.0022
1861.00,0.0018
1858.00,0.0014
1855.00,0.0011
1852.00,0.0008
1849.00,0.0006
1846.00,0.0005
1843.00,0.0004
1840.00,0.0005
1837.00,0.0006
1834.00,0.0007
1831.00,0.0009
1828.00,0.0011
1825.00,0.0013
1822.00,0.0015
1819.00,0.0015
1816.00,0.0017
1813.00,0.0022
1810.00,0.0026
1807.00,0.0029
1804.00,0.0031
1801.00,0.0031
1798.00,0.0029
1795.00,0.0026
1792.00,0.0022
1789.00,0.0019
1786.00,0.0017
1783.00,0.0016
1780.00,0.0017
1777.00,0.0018
1774.00,0.0019
1771.00,0.0019
1768.00,0.0019
1765.00,0.0021
1762.00,0.0023
1759.00,0.0025
1756.00,0.0029
1753.00,0.0032
1750.00,0.0035
1747.00,0.0039
1744.00,0.0040
1741.00,0.0041
1738.00,0.0041
1735.00,0.0039
1732.00,0.0037
1729.00,0.0036
1726.00,0.0034
1723.00,0.0032
1720.00,0.0031
1717.00,0.0029
1714.00,0.0028
1711.00,0.0028
1708.00,0.0029
1705.00,0.0029
1702.00,0.0029
1699.00,0.0030
1696.00,0.0031
1693.00,0.0033
1690.00,0.0036
1687.00,0.0037
1684.00,0.0041
1681.00,0.0044
1678.00,0.0045
1675.00,0.0047
1672.00,0.0047
1669.00,0.0048
1666.00,0.0048
1663.00,0.0046
1660.00,0.0045
1657.00,0.0042
1654.00,0.0038
1651.00,0.0037
1648.00,0.0036
1645.00,0.0033
1642.00,0.0031
1639.00,0.0030
1636.00,0.0029
1633.00,0.0028
1630.00,0.0028
1627.00,0.0029
1624.00,0.0029
1621.00,0.0030
1618.00,0.0032
1615.00,0.0037
1612.00,0.0047
1609.00,0.0075
1606.00,0.0133
1603.00,0.0196
1600.00,0.0198
1597.00,0.0140
1594.00,0.0093
1591.00,0.0070
1588.00,0.0068
1585.00,0.0087
1582.00,0.0085
1579.00,0.0058
1576.00,0.0040
1573.00,0.0033
1570.00,0.0028
1567.00,0.0025
1564.00,0.0024
1561.00,0.0024
1558.00,0.0024
1555.00,0.0025
1552.00,0.0027
1549.00,0.0029
1546.00,0.0032
1543.00,0.0034
1540.00,0.0033
1537.00,0.0030
1534.00,0.0027
1531.00,0.0023
1528.00,0.0021
1525.00,0.0019
1522.00,0.0019
1519.00,0.0019
1516.00,0.0020
1513.00,0.0022
1510.00,0.0025
1507.00,0.0029
1504.00,0.0046
1501.00,0.0073
1498.00,0.0172
1495.00,0.0412
1492.00,0.0471
1489.00,0.0281
1486.00,0.0154
1483.00,0.0097
1480.00,0.0070
1477.00,0.0058
1474.00,0.0054
1471.00,0.0057
1468.00,0.0060
1465.00,0.0067
1462.00,0.0083
1459.00,0.0121
1456.00,0.0328
1453.00,0.0488
1450.00,0.0459
1447.00,0.0359
1444.00,0.0287
1441.00,0.0226
1438.00,0.0178
1435.00,0.0133
1432.00,0.0103
1429.00,0.0081
1426.00,0.0070
1423.00,0.0062
1420.00,0.0057
1417.00,0.0053
1414.00,0.0051
1411.00,0.0049
1408.00,0.0048
1405.00,0.0047
1402.00,0.0047
1399.00,0.0048
1396.00,0.0051
1393.00,0.0057
1390.00,0.0066
1387.00,0.0076
1384.00,0.0088
1381.00,0.0097
1378.00,0.0107
1375.00,0.0115
1372.00,0.0118
1369.00,0.0117
1366.00,0.0115
1363.00,0.0111
1360.00,0.0108
1357.00,0.0104
1354.00,0.0100
1351.00,0.0099
1348.00,0.0097
1345.00,0.0094
1342.00,0.0088
1339.00,0.0085
1336.00,0.0087
1333.00,0.0093
1330.00,0.0098
1327.00,0.0098
1324.00,0.0095
1321.00,0.0092
1318.00,0.0092
1315.00,0.0095
1312.00,0.0096
1309.00,0.0093
1306.00,0.0089
1303.00,0.0085
1300.00,0.0082
1297.00,0.0081
1294.00,0.0080
1291.00,0.0079
1288.00,0.0076
1285.00,0.0074
1282.00,0.0072
1279.00,0.0069
1276.00,0.0066
1273.00,0.0062
1270.00,0.0058
1267.00,0.0057
1264.00,0.0055
1261.00,0.0055
1258.00,0.0054
1255.00,0.0054
1252.00,0.0054
1249.00,0.0054
1246.00,0.0054
1243.00,0.0054
1240.00,0.0053
1237.00,0.0053
1234.00,0.0053
1231.00,0.0053
1228.00,0.0053
1225.00,0.0053
1222.00,0.0053
1219.00,0.0053
1216.00,0.0054
1213.00,0.0056
1210.00,0.0059
1207.00,0.0062
1204.00,0.0067
1201.00,0.0073
1198.00,0.0077
1195.00,0.0078
1192.00,0.0079
1189.00,0.0082
1186.00,0.0091
1183.00,0.0105
1180.00,0.0105
1177.00,0.0087
1174.00,0.0071
1171.00,0.0065
1168.00,0.0064
1165.00,0.0065
1162.00,0.0072
1159.00,0.0087
1156.00,0.0104
1153.00,0.0102
1150.00,0.0079
1147.00,0.0062
1144.00,0.0054
1141.00,0.0049
1138.00,0.0046
1135.00,0.0045
1132.00,0.0045
1129.00,0.0046
1126.00,0.0045
1123.00,0.0048
1120.00,0.0051
1117.00,0.0056
1114.00,0.0060
1111.00,0.0061
1108.00,0.0060
1105.00,0.0060
1102.00,0.0061
1099.00,0.0063
1096.00,0.0065
1093.00,0.0068
1090.00,0.0072
1087.00,0.0077
1084.00,0.0084
1081.00,0.0094
1078.00,0.0104
1075.00,0.0117
1072.00,0.0132
1069.00,0.0139
1066.00,0.0133
1063.00,0.0119
1060.00,0.0105
1057.00,0.0094
1054.00,0.0087
1051.00,0.0081
1048.00,0.0076
1045.00,0.0073
1042.00,0.0073
1039.00,0.0082
1036.00,0.0112
1033.00,0.0170
1030.00,0.0225
1027.00,0.0230
1024.00,0.0188
1021.00,0.0151
1018.00,0.0128
1015.00,0.0113
1012.00,0.0103
1009.00,0.0099
1006.00,0.0102
1003.00,0.0106
1000.00,0.0092
997.00,0.0078
994.00,0.0075
991.00,0.0075
988.00,0.0079
985.00,0.0086
982.00,0.0092
979.00,0.0093
976.00,0.0088
973.00,0.0085
970.00,0.0089
967.00,0.0098
964.00,0.0100
961.00,0.0094
958.00,0.0082
955.00,0.0076
952.00,0.0074
949.00,0.0076
946.00,0.0080
943.00,0.0080
940.00,0.0077
937.00,0.0070
934.00,0.0063
931.00,0.0058
928.00,0.0057
925.00,0.0059
922.00,0.0062
919.00,0.0070
916.00,0.0085
913.00,0.0111
910.00,0.0141
907.00,0.0160
904.00,0.0151
901.00,0.0121
898.00,0.0089
895.00,0.0071
892.00,0.0061
889.00,0.0056
886.00,0.0051
883.00,0.0048
880.00,0.0046
877.00,0.0045
874.00,0.0043
871.00,0.0042
868.00,0.0041
865.00,0.0041
862.00,0.0041
859.00,0.0041
856.00,0.0043
853.00,0.0047
850.00,0.0058
847.00,0.0073
844.00,0.0084
841.00,0.0087
838.00,0.0078
835.00,0.0061
832.00,0.0047
829.00,0.0042
826.00,0.0039
823.00,0.0038
820.00,0.0039
817.00,0.0040
814.00,0.0041
811.00,0.0042
808.00,0.0042
805.00,0.0043
802.00,0.0046
799.00,0.0051
796.00,0.0057
793.00,0.0066
790.00,0.0080
787.00,0.0094
784.00,0.0112
781.00,0.0137
778.00,0.0177
775.00,0.0230
772.00,0.0297
769.00,0.0376
766.00,0.0453
763.00,0.0531
760.00,0.0607
757.00,0.0665
754.00,0.0682
751.00,0.0676
748.00,0.0668
745.00,0.0614
742.00,0.0496
739.00,0.0374
736.00,0.0274
733.00,0.0185
730.00,0.0124
727.00,0.0096
724.00,0.0085
721.00,0.0082
718.00,0.0089
715.00,0.0108
712.00,0.0163
709.00,0.0299
706.00,0.0544
703.00,0.0884
700.00,0.1286
697.00,0.1663
694.00,0.1734
691.00,0.1304
688.00,0.0864
685.00,0.0619
682.00,0.0482
679.00,0.0400
676.00,0.0347
673.00,0.0311
670.00,0.0286
667.00,0.0261
664.00,0.0229
661.00,0.0206
658.00,0.0182
655.00,0.0166
652.00,0.0153
649.00,0.0141
646.00,0.0133
643.00,0.0125
640.00,0.0124
637.00,0.0131
634.00,0.0139
631.00,0.0147
628.00,0.0152
625.00,0.0154
622.00,0.0164
619.00,0.0162
616.00,0.0146
613.00,0.0138
610.00,0.0136
607.00,0.0133
604.00,0.0130
601.00,0.0133
598.00,0.0139
595.00,0.0144
592.00,0.0147
589.00,0.0155
586.00,0.0161
583.00,0.0169
580.00,0.0184
577.00,0.0206
574.00,0.0230
571.00,0.0257
568.00,0.0280
565.00,0.0308
562.00,0.0336
559.00,0.0359
556.00,0.0387
553.00,0.0416
550.00,0.0455
547.00,0.0504
544.00,0.0560
541.00,0.0615
538.00,0.0638
535.00,0.0599
532.00,0.0520
529.00,0.0433
526.00,0.0356
523.00,0.0300
520.00,0.0260
517.00,0.0235
514.00,0.0217
511.00,0.0203
508.00,0.0184
505.00,0.0167
502.00,0.0152
499.00,0.0142
496.00,0.0133
493.00,0.0131
490.00,0.0126
487.00,0.0122
484.00,0.0114
481.00,0.0116
478.00,0.0118
475.00,0.0116
472.00,0.0110
469.00,0.0104
466.00,0.0098
463.00,0.0096
460.00,0.0095
457.00,0.0096
454.00,0.0095
451.00,0.0095
448.00,0.0093
445.00,0.0083
442.00,0.0085
439.00,0.0087
436.00,0.0092
433.00,0.0093
430.00,0.0093
427.00,0.0088
424.00,0.0089
421.00,0.0094
418.00,0.0102
415.00,0.0097
412.00,0.0091
409.00,0.0091
406.00,0.0103
403.00,0.0117
400.00,0.0093