File: FTIR/Olivia/2025_06_05_Putative_Cocrystal_Sorbic_CBD_Scan2.csv
Created as New Dataset,Sample 589 By YargerLab Date Thursday, June 05 2025
cm-1,A
4000.00,0.0026
3997.00,0.0026
3994.00,0.0026
3991.00,0.0025
3988.00,0.0026
3985.00,0.0026
3982.00,0.0026
3979.00,0.0026
3976.00,0.0026
3973.00,0.0026
3970.00,0.0026
3967.00,0.0026
3964.00,0.0026
3961.00,0.0026
3958.00,0.0026
3955.00,0.0026
3952.00,0.0026
3949.00,0.0026
3946.00,0.0025
3943.00,0.0026
3940.00,0.0026
3937.00,0.0025
3934.00,0.0025
3931.00,0.0025
3928.00,0.0025
3925.00,0.0025
3922.00,0.0025
3919.00,0.0025
3916.00,0.0025
3913.00,0.0025
3910.00,0.0025
3907.00,0.0025
3904.00,0.0024
3901.00,0.0024
3898.00,0.0024
3895.00,0.0024
3892.00,0.0024
3889.00,0.0024
3886.00,0.0024
3883.00,0.0023
3880.00,0.0024
3877.00,0.0024
3874.00,0.0023
3871.00,0.0023
3868.00,0.0023
3865.00,0.0022
3862.00,0.0023
3859.00,0.0023
3856.00,0.0024
3853.00,0.0023
3850.00,0.0022
3847.00,0.0023
3844.00,0.0023
3841.00,0.0022
3838.00,0.0022
3835.00,0.0022
3832.00,0.0023
3829.00,0.0023
3826.00,0.0023
3823.00,0.0023
3820.00,0.0022
3817.00,0.0022
3814.00,0.0022
3811.00,0.0022
3808.00,0.0022
3805.00,0.0023
3802.00,0.0022
3799.00,0.0021
3796.00,0.0022
3793.00,0.0023
3790.00,0.0023
3787.00,0.0023
3784.00,0.0023
3781.00,0.0023
3778.00,0.0023
3775.00,0.0023
3772.00,0.0023
3769.00,0.0023
3766.00,0.0022
3763.00,0.0023
3760.00,0.0023
3757.00,0.0023
3754.00,0.0022
3751.00,0.0021
3748.00,0.0021
3745.00,0.0021
3742.00,0.0021
3739.00,0.0020
3736.00,0.0019
3733.00,0.0019
3730.00,0.0020
3727.00,0.0021
3724.00,0.0021
3721.00,0.0021
3718.00,0.0020
3715.00,0.0021
3712.00,0.0021
3709.00,0.0021
3706.00,0.0020
3703.00,0.0020
3700.00,0.0021
3697.00,0.0021
3694.00,0.0021
3691.00,0.0020
3688.00,0.0018
3685.00,0.0019
3682.00,0.0019
3679.00,0.0018
3676.00,0.0017
3673.00,0.0017
3670.00,0.0016
3667.00,0.0017
3664.00,0.0017
3661.00,0.0017
3658.00,0.0016
3655.00,0.0016
3652.00,0.0016
3649.00,0.0016
3646.00,0.0017
3643.00,0.0017
3640.00,0.0017
3637.00,0.0017
3634.00,0.0018
3631.00,0.0018
3628.00,0.0019
3625.00,0.0019
3622.00,0.0019
3619.00,0.0019
3616.00,0.0020
3613.00,0.0021
3610.00,0.0020
3607.00,0.0021
3604.00,0.0020
3601.00,0.0020
3598.00,0.0020
3595.00,0.0020
3592.00,0.0021
3589.00,0.0021
3586.00,0.0021
3583.00,0.0021
3580.00,0.0022
3577.00,0.0023
3574.00,0.0023
3571.00,0.0023
3568.00,0.0023
3565.00,0.0024
3562.00,0.0024
3559.00,0.0025
3556.00,0.0026
3553.00,0.0027
3550.00,0.0027
3547.00,0.0028
3544.00,0.0030
3541.00,0.0031
3538.00,0.0032
3535.00,0.0033
3532.00,0.0034
3529.00,0.0034
3526.00,0.0036
3523.00,0.0037
3520.00,0.0040
3517.00,0.0042
3514.00,0.0045
3511.00,0.0048
3508.00,0.0051
3505.00,0.0054
3502.00,0.0059
3499.00,0.0062
3496.00,0.0068
3493.00,0.0074
3490.00,0.0080
3487.00,0.0088
3484.00,0.0096
3481.00,0.0105
3478.00,0.0114
3475.00,0.0125
3472.00,0.0140
3469.00,0.0160
3466.00,0.0188
3463.00,0.0229
3460.00,0.0288
3457.00,0.0361
3454.00,0.0434
3451.00,0.0477
3448.00,0.0468
3445.00,0.0419
3442.00,0.0359
3439.00,0.0302
3436.00,0.0255
3433.00,0.0218
3430.00,0.0190
3427.00,0.0167
3424.00,0.0150
3421.00,0.0137
3418.00,0.0127
3415.00,0.0120
3412.00,0.0114
3409.00,0.0109
3406.00,0.0106
3403.00,0.0103
3400.00,0.0101
3397.00,0.0100
3394.00,0.0099
3391.00,0.0099
3388.00,0.0098
3385.00,0.0097
3382.00,0.0097
3379.00,0.0097
3376.00,0.0098
3373.00,0.0098
3370.00,0.0098
3367.00,0.0098
3364.00,0.0099
3361.00,0.0099
3358.00,0.0100
3355.00,0.0101
3352.00,0.0103
3349.00,0.0104
3346.00,0.0104
3343.00,0.0105
3340.00,0.0107
3337.00,0.0108
3334.00,0.0109
3331.00,0.0111
3328.00,0.0112
3325.00,0.0114
3322.00,0.0116
3319.00,0.0118
3316.00,0.0120
3313.00,0.0122
3310.00,0.0124
3307.00,0.0126
3304.00,0.0129
3301.00,0.0131
3298.00,0.0134
3295.00,0.0136
3292.00,0.0139
3289.00,0.0143
3286.00,0.0147
3283.00,0.0150
3280.00,0.0153
3277.00,0.0156
3274.00,0.0158
3271.00,0.0160
3268.00,0.0166
3265.00,0.0171
3262.00,0.0173
3259.00,0.0176
3256.00,0.0178
3253.00,0.0180
3250.00,0.0182
3247.00,0.0184
3244.00,0.0187
3241.00,0.0191
3238.00,0.0194
3235.00,0.0195
3232.00,0.0199
3229.00,0.0203
3226.00,0.0205
3223.00,0.0207
3220.00,0.0209
3217.00,0.0212
3214.00,0.0215
3211.00,0.0218
3208.00,0.0222
3205.00,0.0225
3202.00,0.0229
3199.00,0.0231
3196.00,0.0233
3193.00,0.0235
3190.00,0.0237
3187.00,0.0239
3184.00,0.0241
3181.00,0.0242
3178.00,0.0244
3175.00,0.0245
3172.00,0.0246
3169.00,0.0247
3166.00,0.0249
3163.00,0.0250
3160.00,0.0251
3157.00,0.0251
3154.00,0.0249
3151.00,0.0252
3148.00,0.0257
3145.00,0.0261
3142.00,0.0263
3139.00,0.0264
3136.00,0.0269
3133.00,0.0271
3130.00,0.0272
3127.00,0.0274
3124.00,0.0275
3121.00,0.0275
3118.00,0.0277
3115.00,0.0280
3112.00,0.0283
3109.00,0.0285
3106.00,0.0288
3103.00,0.0290
3100.00,0.0291
3097.00,0.0292
3094.00,0.0293
3091.00,0.0292
3088.00,0.0293
3085.00,0.0294
3082.00,0.0296
3079.00,0.0300
3076.00,0.0308
3073.00,0.0316
3070.00,0.0320
3067.00,0.0316
3064.00,0.0306
3061.00,0.0293
3058.00,0.0282
3055.00,0.0274
3052.00,0.0268
3049.00,0.0263
3046.00,0.0260
3043.00,0.0258
3040.00,0.0257
3037.00,0.0255
3034.00,0.0254
3031.00,0.0251
3028.00,0.0248
3025.00,0.0244
3022.00,0.0240
3019.00,0.0237
3016.00,0.0234
3013.00,0.0232
3010.00,0.0230
3007.00,0.0229
3004.00,0.0228
3001.00,0.0228
2998.00,0.0231
2995.00,0.0237
2992.00,0.0247
2989.00,0.0255
2986.00,0.0258
2983.00,0.0257
2980.00,0.0268
2977.00,0.0287
2974.00,0.0298
2971.00,0.0303
2968.00,0.0313
2965.00,0.0331
2962.00,0.0365
2959.00,0.0408
2956.00,0.0441
2953.00,0.0454
2950.00,0.0442
2947.00,0.0415
2944.00,0.0411
2941.00,0.0436
2938.00,0.0476
2935.00,0.0526
2932.00,0.0591
2929.00,0.0663
2926.00,0.0705
2923.00,0.0702
2920.00,0.0666
2917.00,0.0615
2914.00,0.0563
2911.00,0.0509
2908.00,0.0456
2905.00,0.0414
2902.00,0.0386
2899.00,0.0366
2896.00,0.0350
2893.00,0.0339
2890.00,0.0331
2887.00,0.0326
2884.00,0.0325
2881.00,0.0325
2878.00,0.0332
2875.00,0.0350
2872.00,0.0373
2869.00,0.0374
2866.00,0.0356
2863.00,0.0363
2860.00,0.0395
2857.00,0.0415
2854.00,0.0400
2851.00,0.0363
2848.00,0.0326
2845.00,0.0303
2842.00,0.0291
2839.00,0.0280
2836.00,0.0281
2833.00,0.0282
2830.00,0.0263
2827.00,0.0235
2824.00,0.0213
2821.00,0.0199
2818.00,0.0190
2815.00,0.0184
2812.00,0.0179
2809.00,0.0176
2806.00,0.0173
2803.00,0.0171
2800.00,0.0169
2797.00,0.0168
2794.00,0.0166
2791.00,0.0165
2788.00,0.0165
2785.00,0.0166
2782.00,0.0166
2779.00,0.0168
2776.00,0.0169
2773.00,0.0171
2770.00,0.0173
2767.00,0.0175
2764.00,0.0176
2761.00,0.0178
2758.00,0.0180
2755.00,0.0181
2752.00,0.0181
2749.00,0.0181
2746.00,0.0182
2743.00,0.0183
2740.00,0.0183
2737.00,0.0185
2734.00,0.0187
2731.00,0.0189
2728.00,0.0189
2725.00,0.0190
2722.00,0.0190
2719.00,0.0189
2716.00,0.0189
2713.00,0.0189
2710.00,0.0190
2707.00,0.0191
2704.00,0.0192
2701.00,0.0192
2698.00,0.0192
2695.00,0.0192
2692.00,0.0193
2689.00,0.0193
2686.00,0.0193
2683.00,0.0192
2680.00,0.0192
2677.00,0.0192
2674.00,0.0191
2671.00,0.0192
2668.00,0.0193
2665.00,0.0194
2662.00,0.0195
2659.00,0.0194
2656.00,0.0193
2653.00,0.0192
2650.00,0.0191
2647.00,0.0190
2644.00,0.0189
2641.00,0.0188
2638.00,0.0187
2635.00,0.0186
2632.00,0.0185
2629.00,0.0184
2626.00,0.0183
2623.00,0.0183
2620.00,0.0181
2617.00,0.0181
2614.00,0.0180
2611.00,0.0178
2608.00,0.0177
2605.00,0.0176
2602.00,0.0175
2599.00,0.0174
2596.00,0.0171
2593.00,0.0169
2590.00,0.0169
2587.00,0.0167
2584.00,0.0165
2581.00,0.0164
2578.00,0.0163
2575.00,0.0163
2572.00,0.0163
2569.00,0.0163
2566.00,0.0165
2563.00,0.0166
2560.00,0.0166
2557.00,0.0166
2554.00,0.0167
2551.00,0.0166
2548.00,0.0165
2545.00,0.0163
2542.00,0.0160
2539.00,0.0158
2536.00,0.0156
2533.00,0.0154
2530.00,0.0153
2527.00,0.0153
2524.00,0.0151
2521.00,0.0150
2518.00,0.0149
2515.00,0.0146
2512.00,0.0144
2509.00,0.0143
2506.00,0.0140
2503.00,0.0139
2500.00,0.0138
2497.00,0.0137
2494.00,0.0137
2491.00,0.0136
2488.00,0.0136
2485.00,0.0136
2482.00,0.0136
2479.00,0.0135
2476.00,0.0134
2473.00,0.0135
2470.00,0.0134
2467.00,0.0133
2464.00,0.0133
2461.00,0.0135
2458.00,0.0137
2455.00,0.0137
2452.00,0.0138
2449.00,0.0138
2446.00,0.0138
2443.00,0.0137
2440.00,0.0137
2437.00,0.0137
2434.00,0.0137
2431.00,0.0136
2428.00,0.0134
2425.00,0.0133
2422.00,0.0132
2419.00,0.0131
2416.00,0.0130
2413.00,0.0129
2410.00,0.0126
2407.00,0.0122
2404.00,0.0119
2401.00,0.0117
2398.00,0.0114
2395.00,0.0112
2392.00,0.0110
2389.00,0.0107
2386.00,0.0104
2383.00,0.0101
2380.00,0.0098
2377.00,0.0097
2374.00,0.0095
2371.00,0.0092
2368.00,0.0089
2365.00,0.0088
2362.00,0.0088
2359.00,0.0087
2356.00,0.0085
2353.00,0.0082
2350.00,0.0081
2347.00,0.0083
2344.00,0.0081
2341.00,0.0080
2338.00,0.0078
2335.00,0.0076
2332.00,0.0073
2329.00,0.0074
2326.00,0.0085
2323.00,0.0081
2320.00,0.0076
2317.00,0.0074
2314.00,0.0071
2311.00,0.0068
2308.00,0.0067
2305.00,0.0066
2302.00,0.0066
2299.00,0.0065
2296.00,0.0065
2293.00,0.0067
2290.00,0.0068
2287.00,0.0068
2284.00,0.0067
2281.00,0.0064
2278.00,0.0061
2275.00,0.0060
2272.00,0.0059
2269.00,0.0057
2266.00,0.0054
2263.00,0.0055
2260.00,0.0056
2257.00,0.0053
2254.00,0.0050
2251.00,0.0051
2248.00,0.0050
2245.00,0.0049
2242.00,0.0050
2239.00,0.0050
2236.00,0.0049
2233.00,0.0049
2230.00,0.0047
2227.00,0.0047
2224.00,0.0048
2221.00,0.0045
2218.00,0.0044
2215.00,0.0044
2212.00,0.0044
2209.00,0.0042
2206.00,0.0040
2203.00,0.0042
2200.00,0.0040
2197.00,0.0041
2194.00,0.0042
2191.00,0.0043
2188.00,0.0043
2185.00,0.0041
2182.00,0.0036
2179.00,0.0038
2176.00,0.0035
2173.00,0.0038
2170.00,0.0046
2167.00,0.0047
2164.00,0.0050
2161.00,0.0036
2158.00,0.0001
2155.00,0.0005
2152.00,0.0014
2149.00,0.0017
2146.00,0.0013
2143.00,0.0014
2140.00,0.0018
2137.00,0.0012
2134.00,0.0008
2131.00,0.0012
2128.00,0.0017
2125.00,0.0019
2122.00,0.0022
2119.00,0.0023
2116.00,0.0026
2113.00,0.0025
2110.00,0.0024
2107.00,0.0024
2104.00,0.0024
2101.00,0.0023
2098.00,0.0022
2095.00,0.0018
2092.00,0.0020
2089.00,0.0023
2086.00,0.0024
2083.00,0.0026
2080.00,0.0025
2077.00,0.0023
2074.00,0.0021
2071.00,0.0021
2068.00,0.0018
2065.00,0.0018
2062.00,0.0018
2059.00,0.0019
2056.00,0.0022
2053.00,0.0029
2050.00,0.0030
2047.00,0.0022
2044.00,0.0023
2041.00,0.0023
2038.00,0.0025
2035.00,0.0022
2032.00,0.0018
2029.00,0.0015
2026.00,0.0014
2023.00,0.0016
2020.00,0.0013
2017.00,0.0016
2014.00,0.0020
2011.00,0.0021
2008.00,0.0016
2005.00,0.0010
2002.00,0.0013
1999.00,0.0016
1996.00,0.0019
1993.00,0.0023
1990.00,0.0025
1987.00,0.0027
1984.00,0.0031
1981.00,0.0036
1978.00,0.0023
1975.00,0.0014
1972.00,0.0016
1969.00,0.0014
1966.00,0.0014
1963.00,0.0014
1960.00,0.0012
1957.00,0.0015
1954.00,0.0016
1951.00,0.0015
1948.00,0.0014
1945.00,0.0015
1942.00,0.0017
1939.00,0.0016
1936.00,0.0016
1933.00,0.0016
1930.00,0.0016
1927.00,0.0017
1924.00,0.0017
1921.00,0.0018
1918.00,0.0019
1915.00,0.0018
1912.00,0.0019
1909.00,0.0019
1906.00,0.0019
1903.00,0.0019
1900.00,0.0018
1897.00,0.0018
1894.00,0.0018
1891.00,0.0018
1888.00,0.0018
1885.00,0.0019
1882.00,0.0019
1879.00,0.0019
1876.00,0.0019
1873.00,0.0019
1870.00,0.0021
1867.00,0.0020
1864.00,0.0020
1861.00,0.0020
1858.00,0.0020
1855.00,0.0020
1852.00,0.0021
1849.00,0.0022
1846.00,0.0022
1843.00,0.0022
1840.00,0.0021
1837.00,0.0021
1834.00,0.0022
1831.00,0.0022
1828.00,0.0022
1825.00,0.0023
1822.00,0.0022
1819.00,0.0020
1816.00,0.0019
1813.00,0.0021
1810.00,0.0023
1807.00,0.0024
1804.00,0.0026
1801.00,0.0027
1798.00,0.0027
1795.00,0.0028
1792.00,0.0030
1789.00,0.0033
1786.00,0.0037
1783.00,0.0037
1780.00,0.0035
1777.00,0.0035
1774.00,0.0036
1771.00,0.0035
1768.00,0.0034
1765.00,0.0033
1762.00,0.0033
1759.00,0.0033
1756.00,0.0033
1753.00,0.0033
1750.00,0.0034
1747.00,0.0034
1744.00,0.0034
1741.00,0.0033
1738.00,0.0033
1735.00,0.0034
1732.00,0.0034
1729.00,0.0035
1726.00,0.0036
1723.00,0.0038
1720.00,0.0040
1717.00,0.0043
1714.00,0.0046
1711.00,0.0048
1708.00,0.0050
1705.00,0.0053
1702.00,0.0054
1699.00,0.0055
1696.00,0.0057
1693.00,0.0060
1690.00,0.0063
1687.00,0.0065
1684.00,0.0069
1681.00,0.0074
1678.00,0.0079
1675.00,0.0087
1672.00,0.0095
1669.00,0.0108
1666.00,0.0124
1663.00,0.0144
1660.00,0.0168
1657.00,0.0197
1654.00,0.0240
1651.00,0.0313
1648.00,0.0393
1645.00,0.0563
1642.00,0.0734
1639.00,0.0875
1636.00,0.1014
1633.00,0.1103
1630.00,0.1062
1627.00,0.0912
1624.00,0.0752
1621.00,0.0612
1618.00,0.0526
1615.00,0.0449
1612.00,0.0409
1609.00,0.0379
1606.00,0.0363
1603.00,0.0364
1600.00,0.0385
1597.00,0.0432
1594.00,0.0530
1591.00,0.0691
1588.00,0.0870
1585.00,0.1011
1582.00,0.1116
1579.00,0.1178
1576.00,0.1197
1573.00,0.1170
1570.00,0.1116
1567.00,0.1029
1564.00,0.0933
1561.00,0.0849
1558.00,0.0699
1555.00,0.0612
1552.00,0.0536
1549.00,0.0471
1546.00,0.0424
1543.00,0.0385
1540.00,0.0348
1537.00,0.0329
1534.00,0.0326
1531.00,0.0334
1528.00,0.0361
1525.00,0.0384
1522.00,0.0373
1519.00,0.0324
1516.00,0.0271
1513.00,0.0237
1510.00,0.0220
1507.00,0.0206
1504.00,0.0190
1501.00,0.0182
1498.00,0.0172
1495.00,0.0166
1492.00,0.0164
1489.00,0.0164
1486.00,0.0166
1483.00,0.0175
1480.00,0.0195
1477.00,0.0223
1474.00,0.0256
1471.00,0.0327
1468.00,0.0385
1465.00,0.0380
1462.00,0.0409
1459.00,0.0500
1456.00,0.0663
1453.00,0.0812
1450.00,0.1001
1447.00,0.1156
1444.00,0.1208
1441.00,0.1138
1438.00,0.1000
1435.00,0.0856
1432.00,0.0758
1429.00,0.0642
1426.00,0.0559
1423.00,0.0506
1420.00,0.0484
1417.00,0.0478
1414.00,0.0482
1411.00,0.0490
1408.00,0.0502
1405.00,0.0520
1402.00,0.0533
1399.00,0.0537
1396.00,0.0524
1393.00,0.0495
1390.00,0.0468
1387.00,0.0447
1384.00,0.0453
1381.00,0.0526
1378.00,0.0612
1375.00,0.0600
1372.00,0.0541
1369.00,0.0551
1366.00,0.0566
1363.00,0.0538
1360.00,0.0520
1357.00,0.0544
1354.00,0.0615
1351.00,0.0684
1348.00,0.0690
1345.00,0.0631
1342.00,0.0588
1339.00,0.0598
1336.00,0.0628
1333.00,0.0600
1330.00,0.0551
1327.00,0.0578
1324.00,0.0686
1321.00,0.0826
1318.00,0.0865
1315.00,0.0740
1312.00,0.0603
1309.00,0.0547
1306.00,0.0562
1303.00,0.0549
1300.00,0.0504
1297.00,0.0497
1294.00,0.0512
1291.00,0.0562
1288.00,0.0642
1285.00,0.0713
1282.00,0.0792
1279.00,0.0789
1276.00,0.0661
1273.00,0.0515
1270.00,0.0413
1267.00,0.0345
1264.00,0.0303
1261.00,0.0287
1258.00,0.0305
1255.00,0.0374
1252.00,0.0446
1249.00,0.0495
1246.00,0.0602
1243.00,0.0650
1240.00,0.0550
1237.00,0.0427
1234.00,0.0364
1231.00,0.0382
1228.00,0.0420
1225.00,0.0382
1222.00,0.0354
1219.00,0.0372
1216.00,0.0348
1213.00,0.0321
1210.00,0.0392
1207.00,0.0583
1204.00,0.0624
1201.00,0.0459
1198.00,0.0319
1195.00,0.0257
1192.00,0.0250
1189.00,0.0261
1186.00,0.0256
1183.00,0.0250
1180.00,0.0280
1177.00,0.0385
1174.00,0.0528
1171.00,0.0605
1168.00,0.0499
1165.00,0.0362
1162.00,0.0282
1159.00,0.0251
1156.00,0.0250
1153.00,0.0299
1150.00,0.0454
1147.00,0.0457
1144.00,0.0267
1141.00,0.0177
1138.00,0.0160
1135.00,0.0152
1132.00,0.0133
1129.00,0.0112
1126.00,0.0098
1123.00,0.0090
1120.00,0.0088
1117.00,0.0088
1114.00,0.0094
1111.00,0.0107
1108.00,0.0128
1105.00,0.0153
1102.00,0.0187
1099.00,0.0203
1096.00,0.0179
1093.00,0.0153
1090.00,0.0138
1087.00,0.0134
1084.00,0.0143
1081.00,0.0151
1078.00,0.0143
1075.00,0.0126
1072.00,0.0118
1069.00,0.0124
1066.00,0.0146
1063.00,0.0193
1060.00,0.0285
1057.00,0.0447
1054.00,0.0608
1051.00,0.0522
1048.00,0.0376
1045.00,0.0347
1042.00,0.0395
1039.00,0.0506
1036.00,0.0681
1033.00,0.0795
1030.00,0.0744
1027.00,0.0576
1024.00,0.0414
1021.00,0.0327
1018.00,0.0278
1015.00,0.0242
1012.00,0.0223
1009.00,0.0208
1006.00,0.0188
1003.00,0.0195
1000.00,0.0255
997.00,0.0252
994.00,0.0195
991.00,0.0178
988.00,0.0184
985.00,0.0189
982.00,0.0172
979.00,0.0150
976.00,0.0137
973.00,0.0138
970.00,0.0148
967.00,0.0158
964.00,0.0188
961.00,0.0235
958.00,0.0247
955.00,0.0230
952.00,0.0216
949.00,0.0211
946.00,0.0210
943.00,0.0218
940.00,0.0214
937.00,0.0192
934.00,0.0182
931.00,0.0191
928.00,0.0214
925.00,0.0235
922.00,0.0256
919.00,0.0295
916.00,0.0331
913.00,0.0337
910.00,0.0288
907.00,0.0275
904.00,0.0325
901.00,0.0359
898.00,0.0335
895.00,0.0355
892.00,0.0579
889.00,0.0797
886.00,0.0745
883.00,0.0688
880.00,0.0498
877.00,0.0409
874.00,0.0377
871.00,0.0374
868.00,0.0407
865.00,0.0517
862.00,0.0682
859.00,0.0723
856.00,0.0712
853.00,0.0642
850.00,0.0562
847.00,0.0552
844.00,0.0580
841.00,0.0594
838.00,0.0594
835.00,0.0499
832.00,0.0427
829.00,0.0430
826.00,0.0393
823.00,0.0311
820.00,0.0268
817.00,0.0246
814.00,0.0246
811.00,0.0265
808.00,0.0318
805.00,0.0431
802.00,0.0445
799.00,0.0426
796.00,0.0478
793.00,0.0463
790.00,0.0371
787.00,0.0317
784.00,0.0298
781.00,0.0286
778.00,0.0287
775.00,0.0305
772.00,0.0329
769.00,0.0335
766.00,0.0322
763.00,0.0304
760.00,0.0291
757.00,0.0290
754.00,0.0284
751.00,0.0248
748.00,0.0226
745.00,0.0231
742.00,0.0247
739.00,0.0278
736.00,0.0333
733.00,0.0384
730.00,0.0344
727.00,0.0289
724.00,0.0270
721.00,0.0263
718.00,0.0260
715.00,0.0262
712.00,0.0265
709.00,0.0260
706.00,0.0256
703.00,0.0256
700.00,0.0258
697.00,0.0262
694.00,0.0269
691.00,0.0281
688.00,0.0301
685.00,0.0328
682.00,0.0359
679.00,0.0380
676.00,0.0378
673.00,0.0367
670.00,0.0360
667.00,0.0317
664.00,0.0272
661.00,0.0250
658.00,0.0246
655.00,0.0243
652.00,0.0251
649.00,0.0258
646.00,0.0249
643.00,0.0243
640.00,0.0250
637.00,0.0267
634.00,0.0278
631.00,0.0276
628.00,0.0261
625.00,0.0244
622.00,0.0235
619.00,0.0241
616.00,0.0276
613.00,0.0284
610.00,0.0268
607.00,0.0262
604.00,0.0253
601.00,0.0241
598.00,0.0240
595.00,0.0251
592.00,0.0253
589.00,0.0244
586.00,0.0243
583.00,0.0287
580.00,0.0426
577.00,0.0451
574.00,0.0291
571.00,0.0212
568.00,0.0186
565.00,0.0182
562.00,0.0196
559.00,0.0228
556.00,0.0312
553.00,0.0459
550.00,0.0436
547.00,0.0317
544.00,0.0297
541.00,0.0310
538.00,0.0380
535.00,0.0475
532.00,0.0390
529.00,0.0321
526.00,0.0385
523.00,0.0371
520.00,0.0319
517.00,0.0238
514.00,0.0217
511.00,0.0224
508.00,0.0251
505.00,0.0293
502.00,0.0360
499.00,0.0446
496.00,0.0554
493.00,0.0662
490.00,0.0736
487.00,0.0754
484.00,0.0738
481.00,0.0727
478.00,0.0730
475.00,0.0728
472.00,0.0714
469.00,0.0694
466.00,0.0680
463.00,0.0634
460.00,0.0546
457.00,0.0507
454.00,0.0495
451.00,0.0484
448.00,0.0466
445.00,0.0445
442.00,0.0432
439.00,0.0420
436.00,0.0422
433.00,0.0394
430.00,0.0343
427.00,0.0321
424.00,0.0308
421.00,0.0296
418.00,0.0292
415.00,0.0277
412.00,0.0278
409.00,0.0265
406.00,0.0254
403.00,0.0277
400.00,0.0303