File: FTIR/Olivia/2025_06_26_Polystyrene_Std_OAG_scan1.csv
Created as New Dataset,Sample 721 By YargerLab Date Tuesday, June 24 2025
cm-1,A
4000.00,0.0017
3997.00,0.0017
3994.00,0.0017
3991.00,0.0017
3988.00,0.0017
3985.00,0.0017
3982.00,0.0017
3979.00,0.0017
3976.00,0.0017
3973.00,0.0016
3970.00,0.0016
3967.00,0.0017
3964.00,0.0017
3961.00,0.0016
3958.00,0.0016
3955.00,0.0017
3952.00,0.0017
3949.00,0.0017
3946.00,0.0017
3943.00,0.0017
3940.00,0.0017
3937.00,0.0017
3934.00,0.0017
3931.00,0.0017
3928.00,0.0017
3925.00,0.0017
3922.00,0.0016
3919.00,0.0016
3916.00,0.0016
3913.00,0.0016
3910.00,0.0016
3907.00,0.0016
3904.00,0.0016
3901.00,0.0016
3898.00,0.0016
3895.00,0.0016
3892.00,0.0017
3889.00,0.0016
3886.00,0.0016
3883.00,0.0016
3880.00,0.0016
3877.00,0.0016
3874.00,0.0016
3871.00,0.0016
3868.00,0.0016
3865.00,0.0016
3862.00,0.0016
3859.00,0.0016
3856.00,0.0015
3853.00,0.0016
3850.00,0.0015
3847.00,0.0016
3844.00,0.0016
3841.00,0.0016
3838.00,0.0016
3835.00,0.0016
3832.00,0.0016
3829.00,0.0017
3826.00,0.0017
3823.00,0.0016
3820.00,0.0017
3817.00,0.0016
3814.00,0.0016
3811.00,0.0016
3808.00,0.0016
3805.00,0.0016
3802.00,0.0016
3799.00,0.0017
3796.00,0.0017
3793.00,0.0017
3790.00,0.0017
3787.00,0.0017
3784.00,0.0017
3781.00,0.0017
3778.00,0.0017
3775.00,0.0017
3772.00,0.0017
3769.00,0.0017
3766.00,0.0017
3763.00,0.0017
3760.00,0.0017
3757.00,0.0017
3754.00,0.0017
3751.00,0.0017
3748.00,0.0015
3745.00,0.0015
3742.00,0.0016
3739.00,0.0016
3736.00,0.0016
3733.00,0.0015
3730.00,0.0015
3727.00,0.0015
3724.00,0.0016
3721.00,0.0016
3718.00,0.0015
3715.00,0.0016
3712.00,0.0015
3709.00,0.0015
3706.00,0.0015
3703.00,0.0015
3700.00,0.0015
3697.00,0.0015
3694.00,0.0015
3691.00,0.0015
3688.00,0.0015
3685.00,0.0014
3682.00,0.0014
3679.00,0.0013
3676.00,0.0011
3673.00,0.0011
3670.00,0.0010
3667.00,0.0010
3664.00,0.0010
3661.00,0.0010
3658.00,0.0010
3655.00,0.0010
3652.00,0.0010
3649.00,0.0011
3646.00,0.0011
3643.00,0.0011
3640.00,0.0011
3637.00,0.0011
3634.00,0.0012
3631.00,0.0013
3628.00,0.0014
3625.00,0.0014
3622.00,0.0015
3619.00,0.0015
3616.00,0.0015
3613.00,0.0015
3610.00,0.0015
3607.00,0.0015
3604.00,0.0016
3601.00,0.0016
3598.00,0.0016
3595.00,0.0017
3592.00,0.0017
3589.00,0.0017
3586.00,0.0016
3583.00,0.0016
3580.00,0.0017
3577.00,0.0017
3574.00,0.0016
3571.00,0.0016
3568.00,0.0016
3565.00,0.0015
3562.00,0.0015
3559.00,0.0016
3556.00,0.0016
3553.00,0.0016
3550.00,0.0016
3547.00,0.0016
3544.00,0.0016
3541.00,0.0016
3538.00,0.0017
3535.00,0.0017
3532.00,0.0017
3529.00,0.0017
3526.00,0.0017
3523.00,0.0017
3520.00,0.0017
3517.00,0.0017
3514.00,0.0018
3511.00,0.0018
3508.00,0.0018
3505.00,0.0018
3502.00,0.0019
3499.00,0.0019
3496.00,0.0018
3493.00,0.0018
3490.00,0.0018
3487.00,0.0019
3484.00,0.0018
3481.00,0.0019
3478.00,0.0019
3475.00,0.0019
3472.00,0.0019
3469.00,0.0019
3466.00,0.0019
3463.00,0.0019
3460.00,0.0019
3457.00,0.0019
3454.00,0.0019
3451.00,0.0019
3448.00,0.0019
3445.00,0.0019
3442.00,0.0019
3439.00,0.0019
3436.00,0.0020
3433.00,0.0020
3430.00,0.0020
3427.00,0.0019
3424.00,0.0020
3421.00,0.0019
3418.00,0.0019
3415.00,0.0019
3412.00,0.0019
3409.00,0.0019
3406.00,0.0019
3403.00,0.0019
3400.00,0.0019
3397.00,0.0019
3394.00,0.0019
3391.00,0.0020
3388.00,0.0019
3385.00,0.0019
3382.00,0.0019
3379.00,0.0019
3376.00,0.0020
3373.00,0.0020
3370.00,0.0020
3367.00,0.0019
3364.00,0.0019
3361.00,0.0019
3358.00,0.0019
3355.00,0.0020
3352.00,0.0019
3349.00,0.0019
3346.00,0.0019
3343.00,0.0019
3340.00,0.0020
3337.00,0.0020
3334.00,0.0019
3331.00,0.0020
3328.00,0.0020
3325.00,0.0019
3322.00,0.0019
3319.00,0.0019
3316.00,0.0019
3313.00,0.0018
3310.00,0.0018
3307.00,0.0019
3304.00,0.0019
3301.00,0.0019
3298.00,0.0019
3295.00,0.0019
3292.00,0.0019
3289.00,0.0019
3286.00,0.0018
3283.00,0.0019
3280.00,0.0019
3277.00,0.0019
3274.00,0.0019
3271.00,0.0019
3268.00,0.0018
3265.00,0.0018
3262.00,0.0018
3259.00,0.0018
3256.00,0.0018
3253.00,0.0018
3250.00,0.0018
3247.00,0.0018
3244.00,0.0018
3241.00,0.0018
3238.00,0.0018
3235.00,0.0018
3232.00,0.0018
3229.00,0.0017
3226.00,0.0017
3223.00,0.0017
3220.00,0.0017
3217.00,0.0018
3214.00,0.0018
3211.00,0.0018
3208.00,0.0018
3205.00,0.0019
3202.00,0.0019
3199.00,0.0019
3196.00,0.0018
3193.00,0.0018
3190.00,0.0018
3187.00,0.0018
3184.00,0.0018
3181.00,0.0017
3178.00,0.0017
3175.00,0.0017
3172.00,0.0018
3169.00,0.0018
3166.00,0.0019
3163.00,0.0020
3160.00,0.0019
3157.00,0.0019
3154.00,0.0018
3151.00,0.0018
3148.00,0.0018
3145.00,0.0017
3142.00,0.0018
3139.00,0.0018
3136.00,0.0018
3133.00,0.0018
3130.00,0.0018
3127.00,0.0019
3124.00,0.0020
3121.00,0.0020
3118.00,0.0021
3115.00,0.0024
3112.00,0.0028
3109.00,0.0034
3106.00,0.0040
3103.00,0.0043
3100.00,0.0043
3097.00,0.0041
3094.00,0.0043
3091.00,0.0052
3088.00,0.0071
3085.00,0.0093
3082.00,0.0102
3079.00,0.0093
3076.00,0.0079
3073.00,0.0075
3070.00,0.0081
3067.00,0.0097
3064.00,0.0120
3061.00,0.0138
3058.00,0.0136
3055.00,0.0116
3052.00,0.0094
3049.00,0.0080
3046.00,0.0073
3043.00,0.0074
3040.00,0.0085
3037.00,0.0104
3034.00,0.0138
3031.00,0.0190
3028.00,0.0245
3025.00,0.0269
3022.00,0.0232
3019.00,0.0165
3016.00,0.0111
3013.00,0.0079
3010.00,0.0063
3007.00,0.0059
3004.00,0.0060
3001.00,0.0058
2998.00,0.0045
2995.00,0.0027
2992.00,0.0016
2989.00,0.0011
2986.00,0.0005
2983.00,-0.0008
2980.00,-0.0011
2977.00,-0.0001
2974.00,0.0004
2971.00,0.0006
2968.00,0.0015
2965.00,0.0023
2962.00,0.0031
2959.00,0.0040
2956.00,0.0049
2953.00,0.0062
2950.00,0.0077
2947.00,0.0095
2944.00,0.0118
2941.00,0.0143
2938.00,0.0173
2935.00,0.0207
2932.00,0.0241
2929.00,0.0273
2926.00,0.0298
2923.00,0.0311
2920.00,0.0311
2917.00,0.0300
2914.00,0.0282
2911.00,0.0259
2908.00,0.0234
2905.00,0.0209
2902.00,0.0184
2899.00,0.0159
2896.00,0.0138
2893.00,0.0122
2890.00,0.0110
2887.00,0.0100
2884.00,0.0092
2881.00,0.0086
2878.00,0.0082
2875.00,0.0078
2872.00,0.0074
2869.00,0.0074
2866.00,0.0077
2863.00,0.0085
2860.00,0.0098
2857.00,0.0114
2854.00,0.0129
2851.00,0.0139
2848.00,0.0140
2845.00,0.0130
2842.00,0.0109
2839.00,0.0085
2836.00,0.0064
2833.00,0.0050
2830.00,0.0043
2827.00,0.0039
2824.00,0.0036
2821.00,0.0034
2818.00,0.0033
2815.00,0.0033
2812.00,0.0032
2809.00,0.0032
2806.00,0.0031
2803.00,0.0030
2800.00,0.0029
2797.00,0.0028
2794.00,0.0028
2791.00,0.0028
2788.00,0.0027
2785.00,0.0027
2782.00,0.0027
2779.00,0.0026
2776.00,0.0026
2773.00,0.0026
2770.00,0.0025
2767.00,0.0025
2764.00,0.0024
2761.00,0.0025
2758.00,0.0024
2755.00,0.0024
2752.00,0.0024
2749.00,0.0024
2746.00,0.0024
2743.00,0.0024
2740.00,0.0024
2737.00,0.0024
2734.00,0.0024
2731.00,0.0024
2728.00,0.0024
2725.00,0.0024
2722.00,0.0024
2719.00,0.0025
2716.00,0.0025
2713.00,0.0025
2710.00,0.0025
2707.00,0.0024
2704.00,0.0024
2701.00,0.0024
2698.00,0.0024
2695.00,0.0024
2692.00,0.0024
2689.00,0.0024
2686.00,0.0024
2683.00,0.0024
2680.00,0.0024
2677.00,0.0024
2674.00,0.0024
2671.00,0.0024
2668.00,0.0024
2665.00,0.0025
2662.00,0.0026
2659.00,0.0027
2656.00,0.0028
2653.00,0.0028
2650.00,0.0029
2647.00,0.0028
2644.00,0.0029
2641.00,0.0028
2638.00,0.0029
2635.00,0.0030
2632.00,0.0029
2629.00,0.0029
2626.00,0.0028
2623.00,0.0027
2620.00,0.0026
2617.00,0.0026
2614.00,0.0026
2611.00,0.0026
2608.00,0.0026
2605.00,0.0027
2602.00,0.0026
2599.00,0.0026
2596.00,0.0025
2593.00,0.0024
2590.00,0.0024
2587.00,0.0024
2584.00,0.0024
2581.00,0.0024
2578.00,0.0024
2575.00,0.0023
2572.00,0.0022
2569.00,0.0022
2566.00,0.0022
2563.00,0.0022
2560.00,0.0022
2557.00,0.0021
2554.00,0.0021
2551.00,0.0021
2548.00,0.0021
2545.00,0.0021
2542.00,0.0021
2539.00,0.0021
2536.00,0.0021
2533.00,0.0020
2530.00,0.0020
2527.00,0.0020
2524.00,0.0020
2521.00,0.0020
2518.00,0.0020
2515.00,0.0020
2512.00,0.0020
2509.00,0.0019
2506.00,0.0020
2503.00,0.0019
2500.00,0.0019
2497.00,0.0019
2494.00,0.0019
2491.00,0.0019
2488.00,0.0019
2485.00,0.0019
2482.00,0.0018
2479.00,0.0018
2476.00,0.0018
2473.00,0.0018
2470.00,0.0017
2467.00,0.0018
2464.00,0.0018
2461.00,0.0018
2458.00,0.0019
2455.00,0.0020
2452.00,0.0019
2449.00,0.0018
2446.00,0.0018
2443.00,0.0018
2440.00,0.0017
2437.00,0.0017
2434.00,0.0016
2431.00,0.0016
2428.00,0.0016
2425.00,0.0016
2422.00,0.0015
2419.00,0.0015
2416.00,0.0015
2413.00,0.0015
2410.00,0.0015
2407.00,0.0014
2404.00,0.0014
2401.00,0.0014
2398.00,0.0014
2395.00,0.0014
2392.00,0.0014
2389.00,0.0014
2386.00,0.0013
2383.00,0.0013
2380.00,0.0014
2377.00,0.0014
2374.00,0.0014
2371.00,0.0014
2368.00,0.0013
2365.00,0.0014
2362.00,0.0016
2359.00,0.0016
2356.00,0.0017
2353.00,0.0017
2350.00,0.0018
2347.00,0.0020
2344.00,0.0020
2341.00,0.0021
2338.00,0.0022
2335.00,0.0022
2332.00,0.0021
2329.00,0.0022
2326.00,0.0032
2323.00,0.0032
2320.00,0.0026
2317.00,0.0025
2314.00,0.0026
2311.00,0.0025
2308.00,0.0025
2305.00,0.0023
2302.00,0.0022
2299.00,0.0023
2296.00,0.0025
2293.00,0.0027
2290.00,0.0029
2287.00,0.0029
2284.00,0.0026
2281.00,0.0024
2278.00,0.0024
2275.00,0.0022
2272.00,0.0022
2269.00,0.0020
2266.00,0.0020
2263.00,0.0019
2260.00,0.0021
2257.00,0.0019
2254.00,0.0019
2251.00,0.0020
2248.00,0.0019
2245.00,0.0020
2242.00,0.0020
2239.00,0.0019
2236.00,0.0019
2233.00,0.0018
2230.00,0.0016
2227.00,0.0016
2224.00,0.0017
2221.00,0.0017
2218.00,0.0017
2215.00,0.0017
2212.00,0.0019
2209.00,0.0017
2206.00,0.0014
2203.00,0.0015
2200.00,0.0017
2197.00,0.0017
2194.00,0.0017
2191.00,0.0019
2188.00,0.0020
2185.00,0.0018
2182.00,0.0011
2179.00,0.0013
2176.00,0.0012
2173.00,0.0013
2170.00,0.0023
2167.00,0.0026
2164.00,0.0027
2161.00,0.0010
2158.00,-0.0020
2155.00,-0.0014
2152.00,-0.0006
2149.00,-0.0005
2146.00,-0.0006
2143.00,-0.0006
2140.00,-0.0004
2137.00,-0.0005
2134.00,-0.0009
2131.00,-0.0006
2128.00,-0.0002
2125.00,0.0004
2122.00,0.0005
2119.00,0.0008
2116.00,0.0012
2113.00,0.0013
2110.00,0.0012
2107.00,0.0012
2104.00,0.0011
2101.00,0.0012
2098.00,0.0011
2095.00,0.0007
2092.00,0.0008
2089.00,0.0011
2086.00,0.0013
2083.00,0.0014
2080.00,0.0015
2077.00,0.0014
2074.00,0.0014
2071.00,0.0012
2068.00,0.0011
2065.00,0.0010
2062.00,0.0010
2059.00,0.0010
2056.00,0.0008
2053.00,0.0015
2050.00,0.0017
2047.00,0.0011
2044.00,0.0011
2041.00,0.0010
2038.00,0.0010
2035.00,0.0008
2032.00,0.0006
2029.00,0.0006
2026.00,0.0004
2023.00,0.0004
2020.00,0.0005
2017.00,0.0003
2014.00,0.0006
2011.00,0.0007
2008.00,0.0003
2005.00,-0.0002
2002.00,0.0001
1999.00,0.0007
1996.00,0.0010
1993.00,0.0013
1990.00,0.0017
1987.00,0.0019
1984.00,0.0023
1981.00,0.0028
1978.00,0.0013
1975.00,0.0006
1972.00,0.0010
1969.00,0.0011
1966.00,0.0014
1963.00,0.0020
1960.00,0.0020
1957.00,0.0022
1954.00,0.0027
1951.00,0.0032
1948.00,0.0035
1945.00,0.0039
1942.00,0.0041
1939.00,0.0038
1936.00,0.0032
1933.00,0.0025
1930.00,0.0021
1927.00,0.0017
1924.00,0.0015
1921.00,0.0014
1918.00,0.0013
1915.00,0.0013
1912.00,0.0013
1909.00,0.0012
1906.00,0.0012
1903.00,0.0014
1900.00,0.0016
1897.00,0.0018
1894.00,0.0020
1891.00,0.0025
1888.00,0.0030
1885.00,0.0033
1882.00,0.0034
1879.00,0.0037
1876.00,0.0039
1873.00,0.0040
1870.00,0.0040
1867.00,0.0040
1864.00,0.0037
1861.00,0.0031
1858.00,0.0026
1855.00,0.0022
1852.00,0.0018
1849.00,0.0016
1846.00,0.0015
1843.00,0.0015
1840.00,0.0014
1837.00,0.0015
1834.00,0.0017
1831.00,0.0019
1828.00,0.0021
1825.00,0.0023
1822.00,0.0027
1819.00,0.0028
1816.00,0.0030
1813.00,0.0035
1810.00,0.0040
1807.00,0.0045
1804.00,0.0047
1801.00,0.0047
1798.00,0.0045
1795.00,0.0040
1792.00,0.0034
1789.00,0.0029
1786.00,0.0026
1783.00,0.0025
1780.00,0.0026
1777.00,0.0026
1774.00,0.0027
1771.00,0.0026
1768.00,0.0027
1765.00,0.0028
1762.00,0.0031
1759.00,0.0035
1756.00,0.0039
1753.00,0.0044
1750.00,0.0049
1747.00,0.0052
1744.00,0.0053
1741.00,0.0053
1738.00,0.0053
1735.00,0.0052
1732.00,0.0048
1729.00,0.0045
1726.00,0.0043
1723.00,0.0041
1720.00,0.0040
1717.00,0.0039
1714.00,0.0037
1711.00,0.0036
1708.00,0.0035
1705.00,0.0034
1702.00,0.0034
1699.00,0.0033
1696.00,0.0033
1693.00,0.0033
1690.00,0.0034
1687.00,0.0036
1684.00,0.0036
1681.00,0.0037
1678.00,0.0039
1675.00,0.0039
1672.00,0.0040
1669.00,0.0041
1666.00,0.0040
1663.00,0.0039
1660.00,0.0038
1657.00,0.0036
1654.00,0.0035
1651.00,0.0033
1648.00,0.0032
1645.00,0.0031
1642.00,0.0030
1639.00,0.0030
1636.00,0.0030
1633.00,0.0031
1630.00,0.0032
1627.00,0.0033
1624.00,0.0034
1621.00,0.0037
1618.00,0.0040
1615.00,0.0046
1612.00,0.0058
1609.00,0.0090
1606.00,0.0162
1603.00,0.0253
1600.00,0.0270
1597.00,0.0193
1594.00,0.0125
1591.00,0.0092
1588.00,0.0085
1585.00,0.0109
1582.00,0.0114
1579.00,0.0078
1576.00,0.0054
1573.00,0.0043
1570.00,0.0037
1567.00,0.0035
1564.00,0.0033
1561.00,0.0033
1558.00,0.0034
1555.00,0.0037
1552.00,0.0040
1549.00,0.0044
1546.00,0.0047
1543.00,0.0049
1540.00,0.0049
1537.00,0.0047
1534.00,0.0044
1531.00,0.0040
1528.00,0.0038
1525.00,0.0036
1522.00,0.0035
1519.00,0.0036
1516.00,0.0036
1513.00,0.0039
1510.00,0.0043
1507.00,0.0050
1504.00,0.0064
1501.00,0.0096
1498.00,0.0211
1495.00,0.0535
1492.00,0.0691
1489.00,0.0418
1486.00,0.0217
1483.00,0.0133
1480.00,0.0092
1477.00,0.0075
1474.00,0.0067
1471.00,0.0067
1468.00,0.0072
1465.00,0.0079
1462.00,0.0095
1459.00,0.0147
1456.00,0.0394
1453.00,0.0673
1450.00,0.0663
1447.00,0.0501
1444.00,0.0390
1441.00,0.0300
1438.00,0.0234
1435.00,0.0166
1432.00,0.0124
1429.00,0.0093
1426.00,0.0078
1423.00,0.0069
1420.00,0.0064
1417.00,0.0060
1414.00,0.0056
1411.00,0.0054
1408.00,0.0052
1405.00,0.0050
1402.00,0.0047
1399.00,0.0046
1396.00,0.0048
1393.00,0.0055
1390.00,0.0067
1387.00,0.0082
1384.00,0.0097
1381.00,0.0111
1378.00,0.0126
1375.00,0.0139
1372.00,0.0144
1369.00,0.0145
1366.00,0.0142
1363.00,0.0140
1360.00,0.0134
1357.00,0.0128
1354.00,0.0125
1351.00,0.0125
1348.00,0.0124
1345.00,0.0120
1342.00,0.0114
1339.00,0.0110
1336.00,0.0110
1333.00,0.0119
1330.00,0.0128
1327.00,0.0129
1324.00,0.0124
1321.00,0.0120
1318.00,0.0121
1315.00,0.0126
1312.00,0.0128
1309.00,0.0125
1306.00,0.0119
1303.00,0.0113
1300.00,0.0107
1297.00,0.0103
1294.00,0.0101
1291.00,0.0098
1288.00,0.0094
1285.00,0.0093
1282.00,0.0092
1279.00,0.0088
1276.00,0.0082
1273.00,0.0075
1270.00,0.0069
1267.00,0.0065
1264.00,0.0062
1261.00,0.0061
1258.00,0.0061
1255.00,0.0061
1252.00,0.0061
1249.00,0.0063
1246.00,0.0064
1243.00,0.0065
1240.00,0.0064
1237.00,0.0064
1234.00,0.0064
1231.00,0.0064
1228.00,0.0066
1225.00,0.0068
1222.00,0.0069
1219.00,0.0070
1216.00,0.0071
1213.00,0.0074
1210.00,0.0078
1207.00,0.0083
1204.00,0.0091
1201.00,0.0099
1198.00,0.0105
1195.00,0.0108
1192.00,0.0108
1189.00,0.0110
1186.00,0.0121
1183.00,0.0140
1180.00,0.0142
1177.00,0.0112
1174.00,0.0087
1171.00,0.0077
1168.00,0.0074
1165.00,0.0075
1162.00,0.0083
1159.00,0.0104
1156.00,0.0133
1153.00,0.0132
1150.00,0.0098
1147.00,0.0072
1144.00,0.0060
1141.00,0.0053
1138.00,0.0049
1135.00,0.0049
1132.00,0.0050
1129.00,0.0051
1126.00,0.0053
1123.00,0.0056
1120.00,0.0061
1117.00,0.0069
1114.00,0.0077
1111.00,0.0079
1108.00,0.0077
1105.00,0.0076
1102.00,0.0077
1099.00,0.0080
1096.00,0.0083
1093.00,0.0086
1090.00,0.0091
1087.00,0.0098
1084.00,0.0110
1081.00,0.0125
1078.00,0.0139
1075.00,0.0161
1072.00,0.0188
1069.00,0.0201
1066.00,0.0192
1063.00,0.0168
1060.00,0.0146
1057.00,0.0130
1054.00,0.0120
1051.00,0.0112
1048.00,0.0106
1045.00,0.0104
1042.00,0.0105
1039.00,0.0115
1036.00,0.0157
1033.00,0.0249
1030.00,0.0346
1027.00,0.0367
1024.00,0.0298
1021.00,0.0233
1018.00,0.0194
1015.00,0.0168
1012.00,0.0152
1009.00,0.0143
1006.00,0.0150
1003.00,0.0158
1000.00,0.0137
997.00,0.0115
994.00,0.0110
991.00,0.0112
988.00,0.0118
985.00,0.0127
982.00,0.0138
979.00,0.0139
976.00,0.0129
973.00,0.0120
970.00,0.0124
967.00,0.0138
964.00,0.0144
961.00,0.0133
958.00,0.0113
955.00,0.0102
952.00,0.0103
949.00,0.0109
946.00,0.0114
943.00,0.0115
940.00,0.0110
937.00,0.0100
934.00,0.0091
931.00,0.0084
928.00,0.0082
925.00,0.0087
922.00,0.0094
919.00,0.0106
916.00,0.0130
913.00,0.0172
910.00,0.0222
907.00,0.0254
904.00,0.0240
901.00,0.0188
898.00,0.0135
895.00,0.0105
892.00,0.0091
889.00,0.0082
886.00,0.0075
883.00,0.0071
880.00,0.0068
877.00,0.0065
874.00,0.0064
871.00,0.0063
868.00,0.0062
865.00,0.0061
862.00,0.0061
859.00,0.0061
856.00,0.0064
853.00,0.0071
850.00,0.0085
847.00,0.0106
844.00,0.0125
841.00,0.0131
838.00,0.0117
835.00,0.0091
832.00,0.0070
829.00,0.0061
826.00,0.0057
823.00,0.0055
820.00,0.0056
817.00,0.0059
814.00,0.0059
811.00,0.0060
808.00,0.0062
805.00,0.0063
802.00,0.0067
799.00,0.0074
796.00,0.0085
793.00,0.0101
790.00,0.0121
787.00,0.0146
784.00,0.0175
781.00,0.0215
778.00,0.0273
775.00,0.0357
772.00,0.0466
769.00,0.0598
766.00,0.0733
763.00,0.0866
760.00,0.1006
757.00,0.1114
754.00,0.1140
751.00,0.1126
748.00,0.1111
745.00,0.1008
742.00,0.0791
739.00,0.0581
736.00,0.0417
733.00,0.0277
730.00,0.0186
727.00,0.0145
724.00,0.0131
721.00,0.0128
718.00,0.0136
715.00,0.0163
712.00,0.0244
709.00,0.0451
706.00,0.0879
703.00,0.1580
700.00,0.2533
697.00,0.3540
694.00,0.3688
691.00,0.2530
688.00,0.1551
685.00,0.1065
682.00,0.0808
679.00,0.0651
676.00,0.0554
673.00,0.0490
670.00,0.0445
667.00,0.0396
664.00,0.0350
661.00,0.0308
658.00,0.0267
655.00,0.0237
652.00,0.0211
649.00,0.0191
646.00,0.0177
643.00,0.0169
640.00,0.0169
637.00,0.0177
634.00,0.0192
631.00,0.0206
628.00,0.0215
625.00,0.0222
622.00,0.0237
619.00,0.0233
616.00,0.0212
613.00,0.0198
610.00,0.0187
607.00,0.0183
604.00,0.0184
601.00,0.0185
598.00,0.0192
595.00,0.0202
592.00,0.0213
589.00,0.0220
586.00,0.0227
583.00,0.0244
580.00,0.0270
577.00,0.0307
574.00,0.0351
571.00,0.0398
568.00,0.0441
565.00,0.0483
562.00,0.0530
559.00,0.0576
556.00,0.0626
553.00,0.0678
550.00,0.0743
547.00,0.0831
544.00,0.0944
541.00,0.1055
538.00,0.1106
535.00,0.1038
532.00,0.0882
529.00,0.0717
526.00,0.0578
523.00,0.0474
520.00,0.0411
517.00,0.0368
514.00,0.0334
511.00,0.0303
508.00,0.0275
505.00,0.0249
502.00,0.0228
499.00,0.0210
496.00,0.0196
493.00,0.0188
490.00,0.0178
487.00,0.0170
484.00,0.0166
481.00,0.0161
478.00,0.0151
475.00,0.0147
472.00,0.0141
469.00,0.0145
466.00,0.0137
463.00,0.0126
460.00,0.0128
457.00,0.0133
454.00,0.0129
451.00,0.0133
448.00,0.0134
445.00,0.0130
442.00,0.0121
439.00,0.0121
436.00,0.0119
433.00,0.0110
430.00,0.0111
427.00,0.0102
424.00,0.0097
421.00,0.0106
418.00,0.0099
415.00,0.0098
412.00,0.0112
409.00,0.0123
406.00,0.0132
403.00,0.0121
400.00,0.0097