File: FTIR/Olivia/2025_06_05_CBD_Powder_scan2.csv
Created as New Dataset,Sample 583 By YargerLab Date Thursday, June 05 2025
cm-1,A
4000.00,0.0081
3997.00,0.0081
3994.00,0.0080
3991.00,0.0080
3988.00,0.0081
3985.00,0.0081
3982.00,0.0081
3979.00,0.0081
3976.00,0.0081
3973.00,0.0081
3970.00,0.0081
3967.00,0.0082
3964.00,0.0082
3961.00,0.0083
3958.00,0.0083
3955.00,0.0082
3952.00,0.0082
3949.00,0.0082
3946.00,0.0082
3943.00,0.0082
3940.00,0.0082
3937.00,0.0082
3934.00,0.0082
3931.00,0.0082
3928.00,0.0083
3925.00,0.0083
3922.00,0.0083
3919.00,0.0083
3916.00,0.0083
3913.00,0.0082
3910.00,0.0082
3907.00,0.0081
3904.00,0.0080
3901.00,0.0080
3898.00,0.0080
3895.00,0.0080
3892.00,0.0080
3889.00,0.0080
3886.00,0.0079
3883.00,0.0079
3880.00,0.0079
3877.00,0.0078
3874.00,0.0078
3871.00,0.0078
3868.00,0.0078
3865.00,0.0077
3862.00,0.0078
3859.00,0.0078
3856.00,0.0077
3853.00,0.0077
3850.00,0.0077
3847.00,0.0078
3844.00,0.0078
3841.00,0.0076
3838.00,0.0076
3835.00,0.0077
3832.00,0.0077
3829.00,0.0077
3826.00,0.0076
3823.00,0.0076
3820.00,0.0076
3817.00,0.0076
3814.00,0.0076
3811.00,0.0076
3808.00,0.0076
3805.00,0.0077
3802.00,0.0076
3799.00,0.0075
3796.00,0.0075
3793.00,0.0076
3790.00,0.0076
3787.00,0.0076
3784.00,0.0076
3781.00,0.0076
3778.00,0.0076
3775.00,0.0075
3772.00,0.0075
3769.00,0.0075
3766.00,0.0075
3763.00,0.0075
3760.00,0.0075
3757.00,0.0075
3754.00,0.0075
3751.00,0.0075
3748.00,0.0074
3745.00,0.0074
3742.00,0.0074
3739.00,0.0072
3736.00,0.0072
3733.00,0.0072
3730.00,0.0071
3727.00,0.0071
3724.00,0.0071
3721.00,0.0071
3718.00,0.0071
3715.00,0.0071
3712.00,0.0072
3709.00,0.0072
3706.00,0.0071
3703.00,0.0070
3700.00,0.0070
3697.00,0.0071
3694.00,0.0071
3691.00,0.0070
3688.00,0.0069
3685.00,0.0069
3682.00,0.0069
3679.00,0.0068
3676.00,0.0067
3673.00,0.0066
3670.00,0.0066
3667.00,0.0066
3664.00,0.0066
3661.00,0.0066
3658.00,0.0066
3655.00,0.0065
3652.00,0.0065
3649.00,0.0065
3646.00,0.0065
3643.00,0.0066
3640.00,0.0066
3637.00,0.0066
3634.00,0.0066
3631.00,0.0067
3628.00,0.0067
3625.00,0.0068
3622.00,0.0068
3619.00,0.0068
3616.00,0.0069
3613.00,0.0070
3610.00,0.0069
3607.00,0.0069
3604.00,0.0070
3601.00,0.0071
3598.00,0.0070
3595.00,0.0071
3592.00,0.0071
3589.00,0.0072
3586.00,0.0073
3583.00,0.0074
3580.00,0.0075
3577.00,0.0077
3574.00,0.0078
3571.00,0.0079
3568.00,0.0081
3565.00,0.0083
3562.00,0.0087
3559.00,0.0090
3556.00,0.0094
3553.00,0.0099
3550.00,0.0105
3547.00,0.0114
3544.00,0.0127
3541.00,0.0143
3538.00,0.0165
3535.00,0.0198
3532.00,0.0249
3529.00,0.0332
3526.00,0.0441
3523.00,0.0538
3520.00,0.0574
3517.00,0.0543
3514.00,0.0472
3511.00,0.0397
3508.00,0.0337
3505.00,0.0300
3502.00,0.0278
3499.00,0.0268
3496.00,0.0265
3493.00,0.0267
3490.00,0.0271
3487.00,0.0279
3484.00,0.0289
3481.00,0.0301
3478.00,0.0315
3475.00,0.0331
3472.00,0.0350
3469.00,0.0371
3466.00,0.0393
3463.00,0.0417
3460.00,0.0442
3457.00,0.0466
3454.00,0.0491
3451.00,0.0514
3448.00,0.0537
3445.00,0.0561
3442.00,0.0583
3439.00,0.0606
3436.00,0.0628
3433.00,0.0647
3430.00,0.0668
3427.00,0.0689
3424.00,0.0713
3421.00,0.0744
3418.00,0.0781
3415.00,0.0821
3412.00,0.0858
3409.00,0.0879
3406.00,0.0875
3403.00,0.0842
3400.00,0.0782
3397.00,0.0704
3394.00,0.0627
3391.00,0.0557
3388.00,0.0498
3385.00,0.0450
3382.00,0.0411
3379.00,0.0379
3376.00,0.0352
3373.00,0.0327
3370.00,0.0306
3367.00,0.0287
3364.00,0.0270
3361.00,0.0254
3358.00,0.0240
3355.00,0.0228
3352.00,0.0217
3349.00,0.0207
3346.00,0.0198
3343.00,0.0190
3340.00,0.0182
3337.00,0.0175
3334.00,0.0169
3331.00,0.0164
3328.00,0.0158
3325.00,0.0154
3322.00,0.0150
3319.00,0.0146
3316.00,0.0142
3313.00,0.0138
3310.00,0.0135
3307.00,0.0132
3304.00,0.0129
3301.00,0.0126
3298.00,0.0123
3295.00,0.0120
3292.00,0.0118
3289.00,0.0116
3286.00,0.0114
3283.00,0.0111
3280.00,0.0109
3277.00,0.0107
3274.00,0.0106
3271.00,0.0104
3268.00,0.0105
3265.00,0.0104
3262.00,0.0103
3259.00,0.0103
3256.00,0.0102
3253.00,0.0102
3250.00,0.0101
3247.00,0.0099
3244.00,0.0100
3241.00,0.0099
3238.00,0.0097
3235.00,0.0095
3232.00,0.0095
3229.00,0.0094
3226.00,0.0094
3223.00,0.0093
3220.00,0.0093
3217.00,0.0092
3214.00,0.0092
3211.00,0.0092
3208.00,0.0091
3205.00,0.0091
3202.00,0.0092
3199.00,0.0091
3196.00,0.0090
3193.00,0.0090
3190.00,0.0090
3187.00,0.0089
3184.00,0.0090
3181.00,0.0091
3178.00,0.0091
3175.00,0.0093
3172.00,0.0093
3169.00,0.0093
3166.00,0.0094
3163.00,0.0095
3160.00,0.0094
3157.00,0.0093
3154.00,0.0090
3151.00,0.0089
3148.00,0.0090
3145.00,0.0090
3142.00,0.0090
3139.00,0.0089
3136.00,0.0090
3133.00,0.0090
3130.00,0.0089
3127.00,0.0089
3124.00,0.0089
3121.00,0.0089
3118.00,0.0089
3115.00,0.0089
3112.00,0.0089
3109.00,0.0089
3106.00,0.0089
3103.00,0.0089
3100.00,0.0090
3097.00,0.0091
3094.00,0.0092
3091.00,0.0094
3088.00,0.0096
3085.00,0.0102
3082.00,0.0115
3079.00,0.0147
3076.00,0.0189
3073.00,0.0189
3070.00,0.0152
3067.00,0.0123
3064.00,0.0111
3061.00,0.0105
3058.00,0.0102
3055.00,0.0101
3052.00,0.0100
3049.00,0.0102
3046.00,0.0106
3043.00,0.0110
3040.00,0.0115
3037.00,0.0120
3034.00,0.0127
3031.00,0.0128
3028.00,0.0123
3025.00,0.0116
3022.00,0.0112
3019.00,0.0110
3016.00,0.0110
3013.00,0.0110
3010.00,0.0113
3007.00,0.0114
3004.00,0.0114
3001.00,0.0116
2998.00,0.0119
2995.00,0.0124
2992.00,0.0133
2989.00,0.0144
2986.00,0.0149
2983.00,0.0151
2980.00,0.0173
2977.00,0.0220
2974.00,0.0288
2971.00,0.0374
2968.00,0.0456
2965.00,0.0494
2962.00,0.0494
2959.00,0.0474
2956.00,0.0433
2953.00,0.0393
2950.00,0.0379
2947.00,0.0413
2944.00,0.0488
2941.00,0.0560
2938.00,0.0622
2935.00,0.0698
2932.00,0.0791
2929.00,0.0890
2926.00,0.0962
2923.00,0.0968
2920.00,0.0941
2917.00,0.0917
2914.00,0.0875
2911.00,0.0798
2908.00,0.0708
2905.00,0.0631
2902.00,0.0581
2899.00,0.0539
2896.00,0.0486
2893.00,0.0437
2890.00,0.0407
2887.00,0.0393
2884.00,0.0389
2881.00,0.0392
2878.00,0.0406
2875.00,0.0428
2872.00,0.0448
2869.00,0.0441
2866.00,0.0432
2863.00,0.0472
2860.00,0.0581
2857.00,0.0703
2854.00,0.0698
2851.00,0.0570
2848.00,0.0438
2845.00,0.0344
2842.00,0.0288
2839.00,0.0263
2836.00,0.0274
2833.00,0.0330
2830.00,0.0393
2827.00,0.0362
2824.00,0.0275
2821.00,0.0214
2818.00,0.0183
2815.00,0.0166
2812.00,0.0156
2809.00,0.0148
2806.00,0.0143
2803.00,0.0137
2800.00,0.0133
2797.00,0.0129
2794.00,0.0125
2791.00,0.0122
2788.00,0.0119
2785.00,0.0117
2782.00,0.0114
2779.00,0.0112
2776.00,0.0110
2773.00,0.0109
2770.00,0.0108
2767.00,0.0106
2764.00,0.0104
2761.00,0.0103
2758.00,0.0103
2755.00,0.0102
2752.00,0.0102
2749.00,0.0102
2746.00,0.0103
2743.00,0.0105
2740.00,0.0106
2737.00,0.0109
2734.00,0.0113
2731.00,0.0120
2728.00,0.0122
2725.00,0.0117
2722.00,0.0111
2719.00,0.0106
2716.00,0.0104
2713.00,0.0101
2710.00,0.0100
2707.00,0.0098
2704.00,0.0097
2701.00,0.0096
2698.00,0.0096
2695.00,0.0095
2692.00,0.0095
2689.00,0.0096
2686.00,0.0097
2683.00,0.0098
2680.00,0.0099
2677.00,0.0101
2674.00,0.0101
2671.00,0.0102
2668.00,0.0103
2665.00,0.0104
2662.00,0.0104
2659.00,0.0104
2656.00,0.0104
2653.00,0.0103
2650.00,0.0102
2647.00,0.0101
2644.00,0.0100
2641.00,0.0099
2638.00,0.0098
2635.00,0.0098
2632.00,0.0098
2629.00,0.0098
2626.00,0.0098
2623.00,0.0098
2620.00,0.0097
2617.00,0.0097
2614.00,0.0097
2611.00,0.0096
2608.00,0.0096
2605.00,0.0096
2602.00,0.0096
2599.00,0.0095
2596.00,0.0094
2593.00,0.0093
2590.00,0.0094
2587.00,0.0094
2584.00,0.0093
2581.00,0.0093
2578.00,0.0093
2575.00,0.0093
2572.00,0.0093
2569.00,0.0093
2566.00,0.0092
2563.00,0.0093
2560.00,0.0093
2557.00,0.0092
2554.00,0.0091
2551.00,0.0091
2548.00,0.0090
2545.00,0.0090
2542.00,0.0089
2539.00,0.0089
2536.00,0.0089
2533.00,0.0089
2530.00,0.0089
2527.00,0.0089
2524.00,0.0088
2521.00,0.0088
2518.00,0.0089
2515.00,0.0089
2512.00,0.0089
2509.00,0.0089
2506.00,0.0088
2503.00,0.0089
2500.00,0.0089
2497.00,0.0089
2494.00,0.0089
2491.00,0.0089
2488.00,0.0088
2485.00,0.0089
2482.00,0.0089
2479.00,0.0090
2476.00,0.0090
2473.00,0.0091
2470.00,0.0089
2467.00,0.0089
2464.00,0.0090
2461.00,0.0091
2458.00,0.0092
2455.00,0.0093
2452.00,0.0093
2449.00,0.0091
2446.00,0.0090
2443.00,0.0088
2440.00,0.0086
2437.00,0.0085
2434.00,0.0083
2431.00,0.0082
2428.00,0.0081
2425.00,0.0079
2422.00,0.0079
2419.00,0.0077
2416.00,0.0077
2413.00,0.0078
2410.00,0.0077
2407.00,0.0076
2404.00,0.0075
2401.00,0.0076
2398.00,0.0075
2395.00,0.0075
2392.00,0.0076
2389.00,0.0075
2386.00,0.0075
2383.00,0.0072
2380.00,0.0070
2377.00,0.0069
2374.00,0.0069
2371.00,0.0069
2368.00,0.0068
2365.00,0.0067
2362.00,0.0068
2359.00,0.0068
2356.00,0.0069
2353.00,0.0069
2350.00,0.0068
2347.00,0.0070
2344.00,0.0069
2341.00,0.0069
2338.00,0.0071
2335.00,0.0071
2332.00,0.0071
2329.00,0.0072
2326.00,0.0083
2323.00,0.0080
2320.00,0.0075
2317.00,0.0075
2314.00,0.0074
2311.00,0.0071
2308.00,0.0070
2305.00,0.0070
2302.00,0.0072
2299.00,0.0074
2296.00,0.0076
2293.00,0.0080
2290.00,0.0083
2287.00,0.0084
2284.00,0.0082
2281.00,0.0080
2278.00,0.0078
2275.00,0.0077
2272.00,0.0076
2269.00,0.0076
2266.00,0.0074
2263.00,0.0075
2260.00,0.0076
2257.00,0.0074
2254.00,0.0073
2251.00,0.0074
2248.00,0.0073
2245.00,0.0073
2242.00,0.0073
2239.00,0.0073
2236.00,0.0073
2233.00,0.0074
2230.00,0.0075
2227.00,0.0074
2224.00,0.0074
2221.00,0.0071
2218.00,0.0071
2215.00,0.0071
2212.00,0.0072
2209.00,0.0072
2206.00,0.0070
2203.00,0.0070
2200.00,0.0069
2197.00,0.0072
2194.00,0.0070
2191.00,0.0072
2188.00,0.0073
2185.00,0.0072
2182.00,0.0065
2179.00,0.0068
2176.00,0.0065
2173.00,0.0069
2170.00,0.0077
2167.00,0.0079
2164.00,0.0081
2161.00,0.0065
2158.00,0.0034
2155.00,0.0040
2152.00,0.0046
2149.00,0.0048
2146.00,0.0047
2143.00,0.0050
2140.00,0.0052
2137.00,0.0045
2134.00,0.0042
2131.00,0.0047
2128.00,0.0052
2125.00,0.0055
2122.00,0.0057
2119.00,0.0060
2116.00,0.0063
2113.00,0.0064
2110.00,0.0063
2107.00,0.0061
2104.00,0.0062
2101.00,0.0060
2098.00,0.0057
2095.00,0.0055
2092.00,0.0058
2089.00,0.0060
2086.00,0.0063
2083.00,0.0065
2080.00,0.0065
2077.00,0.0064
2074.00,0.0062
2071.00,0.0061
2068.00,0.0057
2065.00,0.0056
2062.00,0.0055
2059.00,0.0056
2056.00,0.0058
2053.00,0.0065
2050.00,0.0066
2047.00,0.0056
2044.00,0.0051
2041.00,0.0049
2038.00,0.0050
2035.00,0.0046
2032.00,0.0045
2029.00,0.0042
2026.00,0.0044
2023.00,0.0048
2020.00,0.0047
2017.00,0.0048
2014.00,0.0047
2011.00,0.0049
2008.00,0.0042
2005.00,0.0037
2002.00,0.0041
1999.00,0.0046
1996.00,0.0049
1993.00,0.0052
1990.00,0.0054
1987.00,0.0058
1984.00,0.0064
1981.00,0.0068
1978.00,0.0051
1975.00,0.0043
1972.00,0.0043
1969.00,0.0045
1966.00,0.0045
1963.00,0.0043
1960.00,0.0043
1957.00,0.0046
1954.00,0.0048
1951.00,0.0048
1948.00,0.0048
1945.00,0.0048
1942.00,0.0049
1939.00,0.0049
1936.00,0.0049
1933.00,0.0049
1930.00,0.0049
1927.00,0.0050
1924.00,0.0050
1921.00,0.0052
1918.00,0.0053
1915.00,0.0054
1912.00,0.0056
1909.00,0.0056
1906.00,0.0056
1903.00,0.0057
1900.00,0.0057
1897.00,0.0057
1894.00,0.0058
1891.00,0.0058
1888.00,0.0058
1885.00,0.0059
1882.00,0.0058
1879.00,0.0059
1876.00,0.0059
1873.00,0.0058
1870.00,0.0058
1867.00,0.0059
1864.00,0.0059
1861.00,0.0058
1858.00,0.0057
1855.00,0.0058
1852.00,0.0059
1849.00,0.0059
1846.00,0.0059
1843.00,0.0060
1840.00,0.0060
1837.00,0.0060
1834.00,0.0060
1831.00,0.0062
1828.00,0.0062
1825.00,0.0063
1822.00,0.0063
1819.00,0.0061
1816.00,0.0061
1813.00,0.0064
1810.00,0.0067
1807.00,0.0071
1804.00,0.0074
1801.00,0.0074
1798.00,0.0074
1795.00,0.0071
1792.00,0.0068
1789.00,0.0068
1786.00,0.0068
1783.00,0.0068
1780.00,0.0069
1777.00,0.0072
1774.00,0.0076
1771.00,0.0079
1768.00,0.0075
1765.00,0.0072
1762.00,0.0069
1759.00,0.0068
1756.00,0.0068
1753.00,0.0067
1750.00,0.0065
1747.00,0.0066
1744.00,0.0066
1741.00,0.0066
1738.00,0.0067
1735.00,0.0067
1732.00,0.0067
1729.00,0.0067
1726.00,0.0069
1723.00,0.0070
1720.00,0.0071
1717.00,0.0072
1714.00,0.0076
1711.00,0.0078
1708.00,0.0080
1705.00,0.0083
1702.00,0.0084
1699.00,0.0086
1696.00,0.0087
1693.00,0.0086
1690.00,0.0086
1687.00,0.0085
1684.00,0.0084
1681.00,0.0084
1678.00,0.0086
1675.00,0.0090
1672.00,0.0093
1669.00,0.0101
1666.00,0.0112
1663.00,0.0124
1660.00,0.0127
1657.00,0.0128
1654.00,0.0143
1651.00,0.0187
1648.00,0.0262
1645.00,0.0450
1642.00,0.0476
1639.00,0.0427
1636.00,0.0515
1633.00,0.0691
1630.00,0.0776
1627.00,0.0862
1624.00,0.0993
1621.00,0.0954
1618.00,0.0718
1615.00,0.0475
1612.00,0.0365
1609.00,0.0293
1606.00,0.0252
1603.00,0.0235
1600.00,0.0240
1597.00,0.0269
1594.00,0.0343
1591.00,0.0511
1588.00,0.0783
1585.00,0.1037
1582.00,0.1182
1579.00,0.1094
1576.00,0.0811
1573.00,0.0585
1570.00,0.0433
1567.00,0.0317
1564.00,0.0248
1561.00,0.0211
1558.00,0.0182
1555.00,0.0168
1552.00,0.0157
1549.00,0.0147
1546.00,0.0138
1543.00,0.0133
1540.00,0.0131
1537.00,0.0132
1534.00,0.0132
1531.00,0.0133
1528.00,0.0137
1525.00,0.0147
1522.00,0.0178
1519.00,0.0240
1516.00,0.0303
1513.00,0.0316
1510.00,0.0271
1507.00,0.0223
1504.00,0.0200
1501.00,0.0189
1498.00,0.0173
1495.00,0.0153
1492.00,0.0140
1489.00,0.0129
1486.00,0.0126
1483.00,0.0127
1480.00,0.0132
1477.00,0.0141
1474.00,0.0162
1471.00,0.0235
1468.00,0.0347
1465.00,0.0420
1462.00,0.0461
1459.00,0.0499
1456.00,0.0576
1453.00,0.0702
1450.00,0.0932
1447.00,0.1250
1444.00,0.1430
1441.00,0.1423
1438.00,0.1335
1435.00,0.1194
1432.00,0.1040
1429.00,0.0811
1426.00,0.0553
1423.00,0.0371
1420.00,0.0283
1417.00,0.0230
1414.00,0.0204
1411.00,0.0185
1408.00,0.0173
1405.00,0.0166
1402.00,0.0159
1399.00,0.0152
1396.00,0.0147
1393.00,0.0142
1390.00,0.0142
1387.00,0.0154
1384.00,0.0190
1381.00,0.0283
1378.00,0.0469
1375.00,0.0606
1372.00,0.0533
1369.00,0.0428
1366.00,0.0357
1363.00,0.0301
1360.00,0.0266
1357.00,0.0254
1354.00,0.0256
1351.00,0.0263
1348.00,0.0282
1345.00,0.0312
1342.00,0.0331
1339.00,0.0310
1336.00,0.0281
1333.00,0.0294
1330.00,0.0335
1327.00,0.0375
1324.00,0.0404
1321.00,0.0377
1318.00,0.0363
1315.00,0.0464
1312.00,0.0599
1309.00,0.0594
1306.00,0.0560
1303.00,0.0599
1300.00,0.0616
1297.00,0.0585
1294.00,0.0529
1291.00,0.0475
1288.00,0.0451
1285.00,0.0495
1282.00,0.0572
1279.00,0.0613
1276.00,0.0587
1273.00,0.0502
1270.00,0.0388
1267.00,0.0292
1264.00,0.0235
1261.00,0.0205
1258.00,0.0189
1255.00,0.0187
1252.00,0.0210
1249.00,0.0257
1246.00,0.0286
1243.00,0.0363
1240.00,0.0552
1237.00,0.0720
1234.00,0.0723
1231.00,0.0646
1228.00,0.0645
1225.00,0.0809
1222.00,0.1033
1219.00,0.1367
1216.00,0.1742
1213.00,0.1762
1210.00,0.1440
1207.00,0.1124
1204.00,0.0899
1201.00,0.0681
1198.00,0.0508
1195.00,0.0417
1192.00,0.0396
1189.00,0.0419
1186.00,0.0455
1183.00,0.0495
1180.00,0.0520
1177.00,0.0540
1174.00,0.0582
1171.00,0.0599
1168.00,0.0429
1165.00,0.0298
1162.00,0.0242
1159.00,0.0232
1156.00,0.0283
1153.00,0.0488
1150.00,0.0664
1147.00,0.0442
1144.00,0.0262
1141.00,0.0213
1138.00,0.0219
1135.00,0.0239
1132.00,0.0222
1129.00,0.0184
1126.00,0.0160
1123.00,0.0148
1120.00,0.0146
1117.00,0.0150
1114.00,0.0160
1111.00,0.0170
1108.00,0.0193
1105.00,0.0228
1102.00,0.0275
1099.00,0.0320
1096.00,0.0284
1093.00,0.0224
1090.00,0.0196
1087.00,0.0188
1084.00,0.0223
1081.00,0.0297
1078.00,0.0312
1075.00,0.0253
1072.00,0.0212
1069.00,0.0194
1066.00,0.0192
1063.00,0.0206
1060.00,0.0249
1057.00,0.0379
1054.00,0.0636
1051.00,0.0764
1048.00,0.0648
1045.00,0.0461
1042.00,0.0413
1039.00,0.0463
1036.00,0.0611
1033.00,0.0844
1030.00,0.0845
1027.00,0.0690
1024.00,0.0722
1021.00,0.0975
1018.00,0.1078
1015.00,0.0869
1012.00,0.0665
1009.00,0.0587
1006.00,0.0626
1003.00,0.0724
1000.00,0.0698
997.00,0.0521
994.00,0.0388
991.00,0.0363
988.00,0.0402
985.00,0.0432
982.00,0.0388
979.00,0.0325
976.00,0.0300
973.00,0.0284
970.00,0.0304
967.00,0.0354
964.00,0.0428
961.00,0.0486
958.00,0.0399
955.00,0.0283
952.00,0.0225
949.00,0.0202
946.00,0.0190
943.00,0.0183
940.00,0.0178
937.00,0.0176
934.00,0.0183
931.00,0.0201
928.00,0.0214
925.00,0.0214
922.00,0.0214
919.00,0.0230
916.00,0.0264
913.00,0.0270
910.00,0.0270
907.00,0.0321
904.00,0.0434
901.00,0.0636
898.00,0.1001
895.00,0.1111
892.00,0.0832
889.00,0.0695
886.00,0.0957
883.00,0.1296
880.00,0.0978
877.00,0.0613
874.00,0.0503
871.00,0.0551
868.00,0.0561
865.00,0.0563
862.00,0.0689
859.00,0.0695
856.00,0.0703
853.00,0.0772
850.00,0.0802
847.00,0.0718
844.00,0.0648
841.00,0.0599
838.00,0.0570
835.00,0.0608
832.00,0.0693
829.00,0.0764
826.00,0.0746
823.00,0.0608
820.00,0.0455
817.00,0.0354
814.00,0.0313
811.00,0.0300
808.00,0.0393
805.00,0.0628
802.00,0.0575
799.00,0.0395
796.00,0.0311
793.00,0.0291
790.00,0.0282
787.00,0.0279
784.00,0.0273
781.00,0.0246
778.00,0.0242
775.00,0.0236
772.00,0.0235
769.00,0.0234
766.00,0.0207
763.00,0.0186
760.00,0.0181
757.00,0.0193
754.00,0.0244
751.00,0.0303
748.00,0.0315
745.00,0.0252
742.00,0.0202
739.00,0.0187
736.00,0.0203
733.00,0.0255
730.00,0.0290
727.00,0.0245
724.00,0.0224
721.00,0.0214
718.00,0.0205
715.00,0.0179
712.00,0.0172
709.00,0.0165
706.00,0.0150
703.00,0.0144
700.00,0.0143
697.00,0.0143
694.00,0.0142
691.00,0.0143
688.00,0.0145
685.00,0.0149
682.00,0.0156
679.00,0.0168
676.00,0.0184
673.00,0.0215
670.00,0.0265
667.00,0.0306
664.00,0.0316
661.00,0.0322
658.00,0.0322
655.00,0.0308
652.00,0.0316
649.00,0.0345
646.00,0.0320
643.00,0.0270
640.00,0.0242
637.00,0.0240
634.00,0.0249
631.00,0.0265
628.00,0.0286
625.00,0.0309
622.00,0.0310
619.00,0.0270
616.00,0.0243
613.00,0.0311
610.00,0.0366
607.00,0.0349
604.00,0.0371
601.00,0.0402
598.00,0.0437
595.00,0.0432
592.00,0.0473
589.00,0.0565
586.00,0.0613
583.00,0.0558
580.00,0.0474
577.00,0.0426
574.00,0.0424
571.00,0.0444
568.00,0.0465
565.00,0.0479
562.00,0.0484
559.00,0.0484
556.00,0.0482
553.00,0.0504
550.00,0.0562
547.00,0.0601
544.00,0.0645
541.00,0.0664
538.00,0.0760
535.00,0.0833
532.00,0.0789
529.00,0.0764
526.00,0.0862
523.00,0.1037
520.00,0.1002
517.00,0.0743
514.00,0.0630
511.00,0.0628
508.00,0.0687
505.00,0.0787
502.00,0.0919
499.00,0.1041
496.00,0.1111
493.00,0.1117
490.00,0.1091
487.00,0.1077
484.00,0.1068
481.00,0.1010
478.00,0.0937
475.00,0.0912
472.00,0.0945
469.00,0.1001
466.00,0.1037
463.00,0.1043
460.00,0.1030
457.00,0.1017
454.00,0.1007
451.00,0.0982
448.00,0.0920
445.00,0.0860
442.00,0.0821
439.00,0.0806
436.00,0.0804
433.00,0.0795
430.00,0.0839
427.00,0.0977
424.00,0.1060
421.00,0.1029
418.00,0.0990
415.00,0.0982
412.00,0.1019
409.00,0.1083
406.00,0.1158
403.00,0.1221
400.00,0.1271