File: FTIR/Olivia/2025_08_04_1CBN_3PVP90kDa_MC_powder_scan3.csv
Created as New Dataset,Sample 1056 By YargerLab Date Monday, August 04 2025
cm-1,A
4000.00,0.0053
3997.00,0.0052
3994.00,0.0052
3991.00,0.0052
3988.00,0.0052
3985.00,0.0053
3982.00,0.0053
3979.00,0.0053
3976.00,0.0053
3973.00,0.0053
3970.00,0.0053
3967.00,0.0053
3964.00,0.0052
3961.00,0.0052
3958.00,0.0052
3955.00,0.0053
3952.00,0.0053
3949.00,0.0053
3946.00,0.0052
3943.00,0.0052
3940.00,0.0053
3937.00,0.0053
3934.00,0.0053
3931.00,0.0053
3928.00,0.0053
3925.00,0.0052
3922.00,0.0053
3919.00,0.0053
3916.00,0.0052
3913.00,0.0052
3910.00,0.0053
3907.00,0.0053
3904.00,0.0053
3901.00,0.0052
3898.00,0.0052
3895.00,0.0051
3892.00,0.0052
3889.00,0.0052
3886.00,0.0051
3883.00,0.0051
3880.00,0.0051
3877.00,0.0051
3874.00,0.0052
3871.00,0.0052
3868.00,0.0052
3865.00,0.0052
3862.00,0.0052
3859.00,0.0051
3856.00,0.0051
3853.00,0.0050
3850.00,0.0051
3847.00,0.0051
3844.00,0.0051
3841.00,0.0051
3838.00,0.0051
3835.00,0.0050
3832.00,0.0050
3829.00,0.0051
3826.00,0.0051
3823.00,0.0050
3820.00,0.0050
3817.00,0.0050
3814.00,0.0050
3811.00,0.0050
3808.00,0.0050
3805.00,0.0050
3802.00,0.0050
3799.00,0.0050
3796.00,0.0050
3793.00,0.0050
3790.00,0.0050
3787.00,0.0050
3784.00,0.0051
3781.00,0.0051
3778.00,0.0050
3775.00,0.0050
3772.00,0.0050
3769.00,0.0050
3766.00,0.0051
3763.00,0.0051
3760.00,0.0051
3757.00,0.0050
3754.00,0.0051
3751.00,0.0051
3748.00,0.0050
3745.00,0.0050
3742.00,0.0050
3739.00,0.0050
3736.00,0.0050
3733.00,0.0049
3730.00,0.0049
3727.00,0.0050
3724.00,0.0049
3721.00,0.0049
3718.00,0.0049
3715.00,0.0049
3712.00,0.0049
3709.00,0.0048
3706.00,0.0048
3703.00,0.0048
3700.00,0.0049
3697.00,0.0048
3694.00,0.0048
3691.00,0.0048
3688.00,0.0048
3685.00,0.0048
3682.00,0.0049
3679.00,0.0049
3676.00,0.0049
3673.00,0.0048
3670.00,0.0048
3667.00,0.0048
3664.00,0.0048
3661.00,0.0049
3658.00,0.0050
3655.00,0.0049
3652.00,0.0049
3649.00,0.0050
3646.00,0.0050
3643.00,0.0051
3640.00,0.0051
3637.00,0.0051
3634.00,0.0052
3631.00,0.0051
3628.00,0.0052
3625.00,0.0053
3622.00,0.0053
3619.00,0.0054
3616.00,0.0055
3613.00,0.0055
3610.00,0.0057
3607.00,0.0057
3604.00,0.0056
3601.00,0.0057
3598.00,0.0057
3595.00,0.0058
3592.00,0.0059
3589.00,0.0060
3586.00,0.0061
3583.00,0.0062
3580.00,0.0062
3577.00,0.0062
3574.00,0.0063
3571.00,0.0065
3568.00,0.0066
3565.00,0.0067
3562.00,0.0068
3559.00,0.0069
3556.00,0.0071
3553.00,0.0072
3550.00,0.0074
3547.00,0.0076
3544.00,0.0077
3541.00,0.0078
3538.00,0.0079
3535.00,0.0081
3532.00,0.0083
3529.00,0.0085
3526.00,0.0086
3523.00,0.0088
3520.00,0.0089
3517.00,0.0090
3514.00,0.0092
3511.00,0.0094
3508.00,0.0096
3505.00,0.0097
3502.00,0.0099
3499.00,0.0101
3496.00,0.0103
3493.00,0.0105
3490.00,0.0108
3487.00,0.0111
3484.00,0.0114
3481.00,0.0117
3478.00,0.0120
3475.00,0.0124
3472.00,0.0127
3469.00,0.0131
3466.00,0.0136
3463.00,0.0140
3460.00,0.0145
3457.00,0.0150
3454.00,0.0154
3451.00,0.0159
3448.00,0.0163
3445.00,0.0169
3442.00,0.0175
3439.00,0.0181
3436.00,0.0187
3433.00,0.0194
3430.00,0.0202
3427.00,0.0210
3424.00,0.0217
3421.00,0.0226
3418.00,0.0234
3415.00,0.0242
3412.00,0.0249
3409.00,0.0254
3406.00,0.0258
3403.00,0.0261
3400.00,0.0263
3397.00,0.0261
3394.00,0.0259
3391.00,0.0257
3388.00,0.0253
3385.00,0.0248
3382.00,0.0243
3379.00,0.0238
3376.00,0.0233
3373.00,0.0228
3370.00,0.0223
3367.00,0.0219
3364.00,0.0216
3361.00,0.0212
3358.00,0.0209
3355.00,0.0206
3352.00,0.0203
3349.00,0.0201
3346.00,0.0199
3343.00,0.0198
3340.00,0.0197
3337.00,0.0197
3334.00,0.0196
3331.00,0.0196
3328.00,0.0196
3325.00,0.0197
3322.00,0.0198
3319.00,0.0199
3316.00,0.0201
3313.00,0.0203
3310.00,0.0204
3307.00,0.0206
3304.00,0.0208
3301.00,0.0211
3298.00,0.0214
3295.00,0.0217
3292.00,0.0220
3289.00,0.0223
3286.00,0.0226
3283.00,0.0229
3280.00,0.0232
3277.00,0.0235
3274.00,0.0238
3271.00,0.0241
3268.00,0.0244
3265.00,0.0247
3262.00,0.0249
3259.00,0.0252
3256.00,0.0255
3253.00,0.0259
3250.00,0.0262
3247.00,0.0263
3244.00,0.0266
3241.00,0.0268
3238.00,0.0268
3235.00,0.0267
3232.00,0.0268
3229.00,0.0268
3226.00,0.0267
3223.00,0.0265
3220.00,0.0263
3217.00,0.0261
3214.00,0.0257
3211.00,0.0253
3208.00,0.0249
3205.00,0.0245
3202.00,0.0240
3199.00,0.0235
3196.00,0.0230
3193.00,0.0226
3190.00,0.0220
3187.00,0.0215
3184.00,0.0211
3181.00,0.0206
3178.00,0.0201
3175.00,0.0196
3172.00,0.0191
3169.00,0.0186
3166.00,0.0181
3163.00,0.0176
3160.00,0.0172
3157.00,0.0166
3154.00,0.0160
3151.00,0.0156
3148.00,0.0152
3145.00,0.0149
3142.00,0.0144
3139.00,0.0139
3136.00,0.0137
3133.00,0.0134
3130.00,0.0131
3127.00,0.0128
3124.00,0.0126
3121.00,0.0123
3118.00,0.0121
3115.00,0.0119
3112.00,0.0116
3109.00,0.0113
3106.00,0.0109
3103.00,0.0107
3100.00,0.0105
3097.00,0.0105
3094.00,0.0105
3091.00,0.0105
3088.00,0.0107
3085.00,0.0107
3082.00,0.0107
3079.00,0.0106
3076.00,0.0105
3073.00,0.0104
3070.00,0.0103
3067.00,0.0102
3064.00,0.0102
3061.00,0.0103
3058.00,0.0103
3055.00,0.0104
3052.00,0.0104
3049.00,0.0104
3046.00,0.0103
3043.00,0.0102
3040.00,0.0104
3037.00,0.0108
3034.00,0.0111
3031.00,0.0111
3028.00,0.0108
3025.00,0.0104
3022.00,0.0100
3019.00,0.0097
3016.00,0.0096
3013.00,0.0096
3010.00,0.0098
3007.00,0.0102
3004.00,0.0108
3001.00,0.0117
2998.00,0.0129
2995.00,0.0145
2992.00,0.0158
2989.00,0.0167
2986.00,0.0178
2983.00,0.0199
2980.00,0.0227
2977.00,0.0240
2974.00,0.0254
2971.00,0.0288
2968.00,0.0309
2965.00,0.0322
2962.00,0.0342
2959.00,0.0349
2956.00,0.0326
2953.00,0.0294
2950.00,0.0272
2947.00,0.0270
2944.00,0.0285
2941.00,0.0311
2938.00,0.0350
2935.00,0.0410
2932.00,0.0479
2929.00,0.0538
2926.00,0.0554
2923.00,0.0526
2920.00,0.0477
2917.00,0.0425
2914.00,0.0379
2911.00,0.0345
2908.00,0.0316
2905.00,0.0293
2902.00,0.0273
2899.00,0.0255
2896.00,0.0240
2893.00,0.0229
2890.00,0.0219
2887.00,0.0211
2884.00,0.0206
2881.00,0.0209
2878.00,0.0224
2875.00,0.0248
2872.00,0.0263
2869.00,0.0261
2866.00,0.0262
2863.00,0.0289
2860.00,0.0341
2857.00,0.0384
2854.00,0.0389
2851.00,0.0361
2848.00,0.0303
2845.00,0.0246
2842.00,0.0203
2839.00,0.0174
2836.00,0.0156
2833.00,0.0143
2830.00,0.0133
2827.00,0.0125
2824.00,0.0119
2821.00,0.0114
2818.00,0.0109
2815.00,0.0106
2812.00,0.0103
2809.00,0.0101
2806.00,0.0099
2803.00,0.0097
2800.00,0.0095
2797.00,0.0093
2794.00,0.0092
2791.00,0.0089
2788.00,0.0088
2785.00,0.0086
2782.00,0.0085
2779.00,0.0084
2776.00,0.0083
2773.00,0.0082
2770.00,0.0082
2767.00,0.0082
2764.00,0.0081
2761.00,0.0081
2758.00,0.0081
2755.00,0.0082
2752.00,0.0082
2749.00,0.0082
2746.00,0.0083
2743.00,0.0083
2740.00,0.0085
2737.00,0.0086
2734.00,0.0089
2731.00,0.0090
2728.00,0.0089
2725.00,0.0088
2722.00,0.0087
2719.00,0.0086
2716.00,0.0085
2713.00,0.0084
2710.00,0.0083
2707.00,0.0083
2704.00,0.0083
2701.00,0.0082
2698.00,0.0082
2695.00,0.0081
2692.00,0.0080
2689.00,0.0079
2686.00,0.0079
2683.00,0.0078
2680.00,0.0078
2677.00,0.0078
2674.00,0.0078
2671.00,0.0079
2668.00,0.0080
2665.00,0.0081
2662.00,0.0082
2659.00,0.0084
2656.00,0.0084
2653.00,0.0084
2650.00,0.0084
2647.00,0.0083
2644.00,0.0084
2641.00,0.0083
2638.00,0.0082
2635.00,0.0081
2632.00,0.0079
2629.00,0.0078
2626.00,0.0077
2623.00,0.0076
2620.00,0.0076
2617.00,0.0075
2614.00,0.0075
2611.00,0.0075
2608.00,0.0076
2605.00,0.0076
2602.00,0.0076
2599.00,0.0077
2596.00,0.0077
2593.00,0.0077
2590.00,0.0078
2587.00,0.0078
2584.00,0.0078
2581.00,0.0077
2578.00,0.0077
2575.00,0.0075
2572.00,0.0075
2569.00,0.0075
2566.00,0.0075
2563.00,0.0075
2560.00,0.0073
2557.00,0.0072
2554.00,0.0071
2551.00,0.0071
2548.00,0.0072
2545.00,0.0072
2542.00,0.0071
2539.00,0.0071
2536.00,0.0072
2533.00,0.0072
2530.00,0.0071
2527.00,0.0070
2524.00,0.0070
2521.00,0.0069
2518.00,0.0069
2515.00,0.0068
2512.00,0.0067
2509.00,0.0066
2506.00,0.0066
2503.00,0.0065
2500.00,0.0065
2497.00,0.0065
2494.00,0.0064
2491.00,0.0063
2488.00,0.0063
2485.00,0.0064
2482.00,0.0063
2479.00,0.0062
2476.00,0.0062
2473.00,0.0062
2470.00,0.0062
2467.00,0.0062
2464.00,0.0062
2461.00,0.0062
2458.00,0.0062
2455.00,0.0063
2452.00,0.0063
2449.00,0.0062
2446.00,0.0062
2443.00,0.0061
2440.00,0.0061
2437.00,0.0060
2434.00,0.0060
2431.00,0.0060
2428.00,0.0060
2425.00,0.0060
2422.00,0.0059
2419.00,0.0059
2416.00,0.0059
2413.00,0.0059
2410.00,0.0059
2407.00,0.0059
2404.00,0.0058
2401.00,0.0058
2398.00,0.0058
2395.00,0.0058
2392.00,0.0058
2389.00,0.0057
2386.00,0.0057
2383.00,0.0056
2380.00,0.0055
2377.00,0.0055
2374.00,0.0055
2371.00,0.0055
2368.00,0.0054
2365.00,0.0055
2362.00,0.0055
2359.00,0.0056
2356.00,0.0056
2353.00,0.0055
2350.00,0.0056
2347.00,0.0057
2344.00,0.0057
2341.00,0.0059
2338.00,0.0058
2335.00,0.0058
2332.00,0.0057
2329.00,0.0060
2326.00,0.0069
2323.00,0.0068
2320.00,0.0063
2317.00,0.0062
2314.00,0.0061
2311.00,0.0059
2308.00,0.0059
2305.00,0.0059
2302.00,0.0060
2299.00,0.0061
2296.00,0.0062
2293.00,0.0064
2290.00,0.0066
2287.00,0.0067
2284.00,0.0066
2281.00,0.0063
2278.00,0.0062
2275.00,0.0061
2272.00,0.0059
2269.00,0.0058
2266.00,0.0055
2263.00,0.0056
2260.00,0.0056
2257.00,0.0054
2254.00,0.0053
2251.00,0.0054
2248.00,0.0055
2245.00,0.0056
2242.00,0.0056
2239.00,0.0056
2236.00,0.0056
2233.00,0.0057
2230.00,0.0055
2227.00,0.0057
2224.00,0.0056
2221.00,0.0053
2218.00,0.0055
2215.00,0.0055
2212.00,0.0056
2209.00,0.0057
2206.00,0.0057
2203.00,0.0056
2200.00,0.0057
2197.00,0.0056
2194.00,0.0056
2191.00,0.0057
2188.00,0.0058
2185.00,0.0055
2182.00,0.0051
2179.00,0.0053
2176.00,0.0053
2173.00,0.0055
2170.00,0.0058
2167.00,0.0061
2164.00,0.0063
2161.00,0.0052
2158.00,0.0025
2155.00,0.0032
2152.00,0.0039
2149.00,0.0038
2146.00,0.0038
2143.00,0.0040
2140.00,0.0037
2137.00,0.0036
2134.00,0.0035
2131.00,0.0039
2128.00,0.0042
2125.00,0.0044
2122.00,0.0044
2119.00,0.0046
2116.00,0.0049
2113.00,0.0050
2110.00,0.0048
2107.00,0.0048
2104.00,0.0047
2101.00,0.0047
2098.00,0.0044
2095.00,0.0041
2092.00,0.0044
2089.00,0.0046
2086.00,0.0049
2083.00,0.0052
2080.00,0.0052
2077.00,0.0050
2074.00,0.0051
2071.00,0.0051
2068.00,0.0048
2065.00,0.0046
2062.00,0.0046
2059.00,0.0047
2056.00,0.0045
2053.00,0.0048
2050.00,0.0050
2047.00,0.0046
2044.00,0.0047
2041.00,0.0048
2038.00,0.0050
2035.00,0.0047
2032.00,0.0043
2029.00,0.0043
2026.00,0.0044
2023.00,0.0044
2020.00,0.0042
2017.00,0.0039
2014.00,0.0039
2011.00,0.0039
2008.00,0.0035
2005.00,0.0033
2002.00,0.0037
1999.00,0.0040
1996.00,0.0042
1993.00,0.0045
1990.00,0.0046
1987.00,0.0048
1984.00,0.0050
1981.00,0.0054
1978.00,0.0042
1975.00,0.0036
1972.00,0.0036
1969.00,0.0036
1966.00,0.0040
1963.00,0.0041
1960.00,0.0037
1957.00,0.0037
1954.00,0.0039
1951.00,0.0040
1948.00,0.0041
1945.00,0.0042
1942.00,0.0042
1939.00,0.0042
1936.00,0.0042
1933.00,0.0043
1930.00,0.0043
1927.00,0.0043
1924.00,0.0046
1921.00,0.0047
1918.00,0.0048
1915.00,0.0048
1912.00,0.0054
1909.00,0.0062
1906.00,0.0059
1903.00,0.0052
1900.00,0.0050
1897.00,0.0053
1894.00,0.0055
1891.00,0.0054
1888.00,0.0050
1885.00,0.0050
1882.00,0.0048
1879.00,0.0049
1876.00,0.0049
1873.00,0.0048
1870.00,0.0049
1867.00,0.0048
1864.00,0.0049
1861.00,0.0050
1858.00,0.0050
1855.00,0.0051
1852.00,0.0052
1849.00,0.0053
1846.00,0.0055
1843.00,0.0053
1840.00,0.0051
1837.00,0.0051
1834.00,0.0050
1831.00,0.0050
1828.00,0.0049
1825.00,0.0050
1822.00,0.0050
1819.00,0.0049
1816.00,0.0048
1813.00,0.0050
1810.00,0.0051
1807.00,0.0051
1804.00,0.0052
1801.00,0.0052
1798.00,0.0053
1795.00,0.0055
1792.00,0.0054
1789.00,0.0054
1786.00,0.0054
1783.00,0.0054
1780.00,0.0055
1777.00,0.0057
1774.00,0.0059
1771.00,0.0057
1768.00,0.0057
1765.00,0.0056
1762.00,0.0059
1759.00,0.0060
1756.00,0.0058
1753.00,0.0058
1750.00,0.0058
1747.00,0.0059
1744.00,0.0060
1741.00,0.0058
1738.00,0.0058
1735.00,0.0061
1732.00,0.0062
1729.00,0.0066
1726.00,0.0068
1723.00,0.0071
1720.00,0.0072
1717.00,0.0074
1714.00,0.0077
1711.00,0.0084
1708.00,0.0087
1705.00,0.0092
1702.00,0.0095
1699.00,0.0107
1696.00,0.0128
1693.00,0.0146
1690.00,0.0169
1687.00,0.0186
1684.00,0.0206
1681.00,0.0226
1678.00,0.0240
1675.00,0.0255
1672.00,0.0272
1669.00,0.0290
1666.00,0.0306
1663.00,0.0320
1660.00,0.0333
1657.00,0.0338
1654.00,0.0338
1651.00,0.0345
1648.00,0.0345
1645.00,0.0343
1642.00,0.0341
1639.00,0.0334
1636.00,0.0326
1633.00,0.0344
1630.00,0.0406
1627.00,0.0540
1624.00,0.0659
1621.00,0.0713
1618.00,0.0658
1615.00,0.0561
1612.00,0.0555
1609.00,0.0539
1606.00,0.0454
1603.00,0.0363
1600.00,0.0297
1597.00,0.0267
1594.00,0.0275
1591.00,0.0335
1588.00,0.0440
1585.00,0.0522
1582.00,0.0533
1579.00,0.0491
1576.00,0.0417
1573.00,0.0358
1570.00,0.0326
1567.00,0.0298
1564.00,0.0250
1561.00,0.0205
1558.00,0.0161
1555.00,0.0151
1552.00,0.0144
1549.00,0.0139
1546.00,0.0133
1543.00,0.0126
1540.00,0.0119
1537.00,0.0118
1534.00,0.0117
1531.00,0.0115
1528.00,0.0117
1525.00,0.0118
1522.00,0.0124
1519.00,0.0134
1516.00,0.0152
1513.00,0.0169
1510.00,0.0182
1507.00,0.0187
1504.00,0.0197
1501.00,0.0231
1498.00,0.0319
1495.00,0.0373
1492.00,0.0314
1489.00,0.0239
1486.00,0.0194
1483.00,0.0171
1480.00,0.0161
1477.00,0.0162
1474.00,0.0178
1471.00,0.0239
1468.00,0.0336
1465.00,0.0396
1462.00,0.0399
1459.00,0.0399
1456.00,0.0376
1453.00,0.0353
1450.00,0.0356
1447.00,0.0381
1444.00,0.0426
1441.00,0.0475
1438.00,0.0503
1435.00,0.0542
1432.00,0.0581
1429.00,0.0604
1426.00,0.0597
1423.00,0.0577
1420.00,0.0543
1417.00,0.0492
1414.00,0.0448
1411.00,0.0434
1408.00,0.0467
1405.00,0.0548
1402.00,0.0627
1399.00,0.0638
1396.00,0.0567
1393.00,0.0460
1390.00,0.0408
1387.00,0.0435
1384.00,0.0416
1381.00,0.0400
1378.00,0.0404
1375.00,0.0365
1372.00,0.0316
1369.00,0.0340
1366.00,0.0419
1363.00,0.0462
1360.00,0.0525
1357.00,0.0467
1354.00,0.0399
1351.00,0.0380
1348.00,0.0385
1345.00,0.0375
1342.00,0.0341
1339.00,0.0301
1336.00,0.0282
1333.00,0.0296
1330.00,0.0314
1327.00,0.0314
1324.00,0.0304
1321.00,0.0302
1318.00,0.0296
1315.00,0.0279
1312.00,0.0270
1309.00,0.0288
1306.00,0.0342
1303.00,0.0435
1300.00,0.0491
1297.00,0.0480
1294.00,0.0491
1291.00,0.0500
1288.00,0.0523
1285.00,0.0573
1282.00,0.0580
1279.00,0.0515
1276.00,0.0449
1273.00,0.0414
1270.00,0.0388
1267.00,0.0363
1264.00,0.0336
1261.00,0.0305
1258.00,0.0279
1255.00,0.0265
1252.00,0.0266
1249.00,0.0292
1246.00,0.0346
1243.00,0.0394
1240.00,0.0421
1237.00,0.0476
1234.00,0.0533
1231.00,0.0514
1228.00,0.0448
1225.00,0.0395
1222.00,0.0370
1219.00,0.0377
1216.00,0.0410
1213.00,0.0417
1210.00,0.0365
1207.00,0.0315
1204.00,0.0316
1201.00,0.0375
1198.00,0.0473
1195.00,0.0560
1192.00,0.0541
1189.00,0.0446
1186.00,0.0346
1183.00,0.0282
1180.00,0.0249
1177.00,0.0235
1174.00,0.0228
1171.00,0.0225
1168.00,0.0227
1165.00,0.0235
1162.00,0.0268
1159.00,0.0367
1156.00,0.0527
1153.00,0.0536
1150.00,0.0367
1147.00,0.0257
1144.00,0.0223
1141.00,0.0219
1138.00,0.0237
1135.00,0.0304
1132.00,0.0468
1129.00,0.0634
1126.00,0.0616
1123.00,0.0485
1120.00,0.0358
1117.00,0.0302
1114.00,0.0292
1111.00,0.0272
1108.00,0.0255
1105.00,0.0277
1102.00,0.0369
1099.00,0.0435
1096.00,0.0357
1093.00,0.0256
1090.00,0.0208
1087.00,0.0190
1084.00,0.0182
1081.00,0.0182
1078.00,0.0186
1075.00,0.0194
1072.00,0.0206
1069.00,0.0227
1066.00,0.0256
1063.00,0.0312
1060.00,0.0431
1057.00,0.0637
1054.00,0.0809
1051.00,0.0865
1048.00,0.0850
1045.00,0.0716
1042.00,0.0544
1039.00,0.0437
1036.00,0.0421
1033.00,0.0455
1030.00,0.0587
1027.00,0.0760
1024.00,0.0685
1021.00,0.0489
1018.00,0.0365
1015.00,0.0299
1012.00,0.0269
1009.00,0.0283
1006.00,0.0347
1003.00,0.0392
1000.00,0.0367
997.00,0.0330
994.00,0.0304
991.00,0.0271
988.00,0.0231
985.00,0.0206
982.00,0.0193
979.00,0.0190
976.00,0.0190
973.00,0.0189
970.00,0.0185
967.00,0.0185
964.00,0.0192
961.00,0.0194
958.00,0.0169
955.00,0.0150
952.00,0.0143
949.00,0.0150
946.00,0.0152
943.00,0.0157
940.00,0.0179
937.00,0.0198
934.00,0.0211
931.00,0.0213
928.00,0.0200
925.00,0.0210
922.00,0.0235
919.00,0.0215
916.00,0.0173
913.00,0.0152
910.00,0.0144
907.00,0.0149
904.00,0.0172
901.00,0.0228
898.00,0.0252
895.00,0.0215
892.00,0.0228
889.00,0.0248
886.00,0.0187
883.00,0.0171
880.00,0.0189
877.00,0.0248
874.00,0.0371
871.00,0.0510
868.00,0.0513
865.00,0.0415
862.00,0.0328
859.00,0.0275
856.00,0.0306
853.00,0.0379
850.00,0.0447
847.00,0.0438
844.00,0.0364
841.00,0.0329
838.00,0.0363
835.00,0.0453
832.00,0.0472
829.00,0.0386
826.00,0.0292
823.00,0.0354
820.00,0.0550
817.00,0.0623
814.00,0.0576
811.00,0.0329
808.00,0.0232
805.00,0.0194
802.00,0.0180
799.00,0.0173
796.00,0.0169
793.00,0.0168
790.00,0.0167
787.00,0.0166
784.00,0.0167
781.00,0.0171
778.00,0.0187
775.00,0.0229
772.00,0.0220
769.00,0.0195
766.00,0.0193
763.00,0.0205
760.00,0.0225
757.00,0.0228
754.00,0.0220
751.00,0.0222
748.00,0.0230
745.00,0.0242
742.00,0.0261
739.00,0.0311
736.00,0.0413
733.00,0.0434
730.00,0.0409
727.00,0.0396
724.00,0.0327
721.00,0.0291
718.00,0.0307
715.00,0.0340
712.00,0.0331
709.00,0.0308
706.00,0.0303
703.00,0.0317
700.00,0.0342
697.00,0.0354
694.00,0.0339
691.00,0.0349
688.00,0.0385
685.00,0.0368
682.00,0.0353
679.00,0.0364
676.00,0.0393
673.00,0.0437
670.00,0.0457
667.00,0.0444
664.00,0.0448
661.00,0.0466
658.00,0.0445
655.00,0.0422
652.00,0.0419
649.00,0.0419
646.00,0.0418
643.00,0.0415
640.00,0.0409
637.00,0.0404
634.00,0.0401
631.00,0.0399
628.00,0.0405
625.00,0.0418
622.00,0.0444
619.00,0.0456
616.00,0.0428
613.00,0.0400
610.00,0.0400
607.00,0.0451
604.00,0.0521
601.00,0.0551
598.00,0.0550
595.00,0.0545
592.00,0.0538
589.00,0.0524
586.00,0.0519
583.00,0.0528
580.00,0.0553
577.00,0.0606
574.00,0.0599
571.00,0.0548
568.00,0.0519
565.00,0.0531
562.00,0.0568
559.00,0.0591
556.00,0.0560
553.00,0.0536
550.00,0.0554
547.00,0.0600
544.00,0.0599
541.00,0.0561
538.00,0.0532
535.00,0.0538
532.00,0.0581
529.00,0.0579
526.00,0.0526
523.00,0.0488
520.00,0.0467
517.00,0.0456
514.00,0.0452
511.00,0.0456
508.00,0.0466
505.00,0.0470
502.00,0.0453
499.00,0.0439
496.00,0.0444
493.00,0.0464
490.00,0.0461
487.00,0.0445
484.00,0.0437
481.00,0.0433
478.00,0.0432
475.00,0.0430
472.00,0.0425
469.00,0.0427
466.00,0.0424
463.00,0.0414
460.00,0.0415
457.00,0.0426
454.00,0.0420
451.00,0.0419
448.00,0.0411
445.00,0.0420
442.00,0.0415
439.00,0.0411
436.00,0.0410
433.00,0.0409
430.00,0.0404
427.00,0.0401
424.00,0.0389
421.00,0.0392
418.00,0.0394
415.00,0.0385
412.00,0.0412
409.00,0.0429
406.00,0.0401
403.00,0.0373
400.00,0.0385