File: FTIR/Olivia/2025_08_15_Polystyrene_film_scan3.csv
Created as New Dataset,Sample 114 By YargerLab Date Friday, August 15 2025
cm-1,A
4000.00,0.0017
3997.00,0.0017
3994.00,0.0017
3991.00,0.0017
3988.00,0.0017
3985.00,0.0016
3982.00,0.0016
3979.00,0.0016
3976.00,0.0016
3973.00,0.0016
3970.00,0.0016
3967.00,0.0016
3964.00,0.0016
3961.00,0.0016
3958.00,0.0016
3955.00,0.0016
3952.00,0.0016
3949.00,0.0015
3946.00,0.0016
3943.00,0.0016
3940.00,0.0016
3937.00,0.0016
3934.00,0.0016
3931.00,0.0016
3928.00,0.0016
3925.00,0.0016
3922.00,0.0016
3919.00,0.0016
3916.00,0.0015
3913.00,0.0016
3910.00,0.0016
3907.00,0.0016
3904.00,0.0016
3901.00,0.0016
3898.00,0.0016
3895.00,0.0016
3892.00,0.0016
3889.00,0.0015
3886.00,0.0015
3883.00,0.0016
3880.00,0.0016
3877.00,0.0016
3874.00,0.0016
3871.00,0.0016
3868.00,0.0016
3865.00,0.0016
3862.00,0.0016
3859.00,0.0016
3856.00,0.0016
3853.00,0.0016
3850.00,0.0017
3847.00,0.0017
3844.00,0.0016
3841.00,0.0015
3838.00,0.0015
3835.00,0.0016
3832.00,0.0016
3829.00,0.0016
3826.00,0.0016
3823.00,0.0016
3820.00,0.0016
3817.00,0.0016
3814.00,0.0016
3811.00,0.0016
3808.00,0.0016
3805.00,0.0016
3802.00,0.0016
3799.00,0.0016
3796.00,0.0016
3793.00,0.0015
3790.00,0.0015
3787.00,0.0015
3784.00,0.0015
3781.00,0.0015
3778.00,0.0015
3775.00,0.0015
3772.00,0.0016
3769.00,0.0015
3766.00,0.0016
3763.00,0.0015
3760.00,0.0015
3757.00,0.0015
3754.00,0.0015
3751.00,0.0016
3748.00,0.0016
3745.00,0.0016
3742.00,0.0016
3739.00,0.0015
3736.00,0.0015
3733.00,0.0015
3730.00,0.0015
3727.00,0.0015
3724.00,0.0015
3721.00,0.0014
3718.00,0.0015
3715.00,0.0015
3712.00,0.0014
3709.00,0.0014
3706.00,0.0015
3703.00,0.0015
3700.00,0.0015
3697.00,0.0014
3694.00,0.0014
3691.00,0.0015
3688.00,0.0015
3685.00,0.0015
3682.00,0.0016
3679.00,0.0016
3676.00,0.0017
3673.00,0.0017
3670.00,0.0016
3667.00,0.0016
3664.00,0.0016
3661.00,0.0015
3658.00,0.0015
3655.00,0.0016
3652.00,0.0017
3649.00,0.0018
3646.00,0.0017
3643.00,0.0016
3640.00,0.0016
3637.00,0.0016
3634.00,0.0016
3631.00,0.0016
3628.00,0.0016
3625.00,0.0017
3622.00,0.0017
3619.00,0.0017
3616.00,0.0017
3613.00,0.0017
3610.00,0.0017
3607.00,0.0017
3604.00,0.0017
3601.00,0.0017
3598.00,0.0018
3595.00,0.0018
3592.00,0.0018
3589.00,0.0018
3586.00,0.0018
3583.00,0.0018
3580.00,0.0019
3577.00,0.0019
3574.00,0.0019
3571.00,0.0019
3568.00,0.0019
3565.00,0.0020
3562.00,0.0020
3559.00,0.0021
3556.00,0.0021
3553.00,0.0021
3550.00,0.0021
3547.00,0.0021
3544.00,0.0021
3541.00,0.0021
3538.00,0.0022
3535.00,0.0022
3532.00,0.0023
3529.00,0.0023
3526.00,0.0023
3523.00,0.0023
3520.00,0.0024
3517.00,0.0024
3514.00,0.0024
3511.00,0.0025
3508.00,0.0025
3505.00,0.0025
3502.00,0.0025
3499.00,0.0026
3496.00,0.0025
3493.00,0.0026
3490.00,0.0026
3487.00,0.0026
3484.00,0.0026
3481.00,0.0026
3478.00,0.0027
3475.00,0.0027
3472.00,0.0028
3469.00,0.0028
3466.00,0.0028
3463.00,0.0027
3460.00,0.0028
3457.00,0.0028
3454.00,0.0028
3451.00,0.0028
3448.00,0.0028
3445.00,0.0029
3442.00,0.0028
3439.00,0.0028
3436.00,0.0029
3433.00,0.0028
3430.00,0.0028
3427.00,0.0028
3424.00,0.0028
3421.00,0.0028
3418.00,0.0028
3415.00,0.0028
3412.00,0.0028
3409.00,0.0028
3406.00,0.0028
3403.00,0.0028
3400.00,0.0027
3397.00,0.0028
3394.00,0.0028
3391.00,0.0028
3388.00,0.0028
3385.00,0.0028
3382.00,0.0028
3379.00,0.0028
3376.00,0.0027
3373.00,0.0027
3370.00,0.0027
3367.00,0.0028
3364.00,0.0027
3361.00,0.0027
3358.00,0.0027
3355.00,0.0027
3352.00,0.0028
3349.00,0.0027
3346.00,0.0027
3343.00,0.0027
3340.00,0.0027
3337.00,0.0027
3334.00,0.0026
3331.00,0.0026
3328.00,0.0027
3325.00,0.0027
3322.00,0.0026
3319.00,0.0025
3316.00,0.0025
3313.00,0.0025
3310.00,0.0026
3307.00,0.0025
3304.00,0.0025
3301.00,0.0025
3298.00,0.0025
3295.00,0.0025
3292.00,0.0025
3289.00,0.0025
3286.00,0.0025
3283.00,0.0025
3280.00,0.0025
3277.00,0.0025
3274.00,0.0025
3271.00,0.0025
3268.00,0.0025
3265.00,0.0024
3262.00,0.0024
3259.00,0.0024
3256.00,0.0024
3253.00,0.0024
3250.00,0.0024
3247.00,0.0023
3244.00,0.0023
3241.00,0.0023
3238.00,0.0023
3235.00,0.0023
3232.00,0.0023
3229.00,0.0023
3226.00,0.0023
3223.00,0.0023
3220.00,0.0023
3217.00,0.0022
3214.00,0.0023
3211.00,0.0023
3208.00,0.0024
3205.00,0.0024
3202.00,0.0024
3199.00,0.0024
3196.00,0.0023
3193.00,0.0023
3190.00,0.0023
3187.00,0.0023
3184.00,0.0022
3181.00,0.0021
3178.00,0.0021
3175.00,0.0021
3172.00,0.0022
3169.00,0.0023
3166.00,0.0023
3163.00,0.0023
3160.00,0.0023
3157.00,0.0022
3154.00,0.0021
3151.00,0.0021
3148.00,0.0020
3145.00,0.0020
3142.00,0.0020
3139.00,0.0020
3136.00,0.0021
3133.00,0.0021
3130.00,0.0021
3127.00,0.0021
3124.00,0.0022
3121.00,0.0023
3118.00,0.0024
3115.00,0.0027
3112.00,0.0031
3109.00,0.0038
3106.00,0.0044
3103.00,0.0046
3100.00,0.0044
3097.00,0.0043
3094.00,0.0047
3091.00,0.0059
3088.00,0.0079
3085.00,0.0101
3082.00,0.0107
3079.00,0.0094
3076.00,0.0082
3073.00,0.0079
3070.00,0.0087
3067.00,0.0106
3064.00,0.0132
3061.00,0.0148
3058.00,0.0141
3055.00,0.0117
3052.00,0.0095
3049.00,0.0081
3046.00,0.0076
3043.00,0.0079
3040.00,0.0091
3037.00,0.0114
3034.00,0.0153
3031.00,0.0211
3028.00,0.0267
3025.00,0.0279
3022.00,0.0229
3019.00,0.0158
3016.00,0.0109
3013.00,0.0083
3010.00,0.0073
3007.00,0.0074
3004.00,0.0081
3001.00,0.0083
2998.00,0.0071
2995.00,0.0057
2992.00,0.0049
2989.00,0.0047
2986.00,0.0047
2983.00,0.0046
2980.00,0.0046
2977.00,0.0048
2974.00,0.0050
2971.00,0.0053
2968.00,0.0056
2965.00,0.0062
2962.00,0.0068
2959.00,0.0075
2956.00,0.0084
2953.00,0.0095
2950.00,0.0109
2947.00,0.0127
2944.00,0.0149
2941.00,0.0176
2938.00,0.0208
2935.00,0.0245
2932.00,0.0282
2929.00,0.0315
2926.00,0.0338
2923.00,0.0348
2920.00,0.0344
2917.00,0.0329
2914.00,0.0307
2911.00,0.0281
2908.00,0.0255
2905.00,0.0229
2902.00,0.0203
2899.00,0.0178
2896.00,0.0158
2893.00,0.0143
2890.00,0.0132
2887.00,0.0122
2884.00,0.0114
2881.00,0.0106
2878.00,0.0099
2875.00,0.0094
2872.00,0.0090
2869.00,0.0090
2866.00,0.0093
2863.00,0.0102
2860.00,0.0115
2857.00,0.0131
2854.00,0.0145
2851.00,0.0153
2848.00,0.0150
2845.00,0.0135
2842.00,0.0110
2839.00,0.0085
2836.00,0.0065
2833.00,0.0052
2830.00,0.0046
2827.00,0.0042
2824.00,0.0039
2821.00,0.0038
2818.00,0.0036
2815.00,0.0035
2812.00,0.0035
2809.00,0.0034
2806.00,0.0033
2803.00,0.0032
2800.00,0.0031
2797.00,0.0031
2794.00,0.0030
2791.00,0.0029
2788.00,0.0029
2785.00,0.0029
2782.00,0.0028
2779.00,0.0028
2776.00,0.0028
2773.00,0.0027
2770.00,0.0027
2767.00,0.0026
2764.00,0.0025
2761.00,0.0025
2758.00,0.0025
2755.00,0.0025
2752.00,0.0025
2749.00,0.0025
2746.00,0.0025
2743.00,0.0025
2740.00,0.0025
2737.00,0.0025
2734.00,0.0025
2731.00,0.0025
2728.00,0.0025
2725.00,0.0025
2722.00,0.0025
2719.00,0.0025
2716.00,0.0025
2713.00,0.0025
2710.00,0.0025
2707.00,0.0025
2704.00,0.0025
2701.00,0.0024
2698.00,0.0024
2695.00,0.0024
2692.00,0.0025
2689.00,0.0025
2686.00,0.0024
2683.00,0.0025
2680.00,0.0025
2677.00,0.0024
2674.00,0.0024
2671.00,0.0024
2668.00,0.0024
2665.00,0.0025
2662.00,0.0025
2659.00,0.0026
2656.00,0.0026
2653.00,0.0026
2650.00,0.0026
2647.00,0.0026
2644.00,0.0025
2641.00,0.0026
2638.00,0.0026
2635.00,0.0027
2632.00,0.0026
2629.00,0.0025
2626.00,0.0024
2623.00,0.0024
2620.00,0.0023
2617.00,0.0023
2614.00,0.0022
2611.00,0.0023
2608.00,0.0024
2605.00,0.0024
2602.00,0.0023
2599.00,0.0023
2596.00,0.0023
2593.00,0.0022
2590.00,0.0021
2587.00,0.0021
2584.00,0.0022
2581.00,0.0022
2578.00,0.0021
2575.00,0.0020
2572.00,0.0020
2569.00,0.0019
2566.00,0.0020
2563.00,0.0020
2560.00,0.0019
2557.00,0.0019
2554.00,0.0019
2551.00,0.0018
2548.00,0.0018
2545.00,0.0019
2542.00,0.0018
2539.00,0.0019
2536.00,0.0019
2533.00,0.0019
2530.00,0.0018
2527.00,0.0018
2524.00,0.0018
2521.00,0.0018
2518.00,0.0018
2515.00,0.0017
2512.00,0.0018
2509.00,0.0018
2506.00,0.0018
2503.00,0.0017
2500.00,0.0017
2497.00,0.0017
2494.00,0.0017
2491.00,0.0018
2488.00,0.0017
2485.00,0.0017
2482.00,0.0017
2479.00,0.0017
2476.00,0.0016
2473.00,0.0015
2470.00,0.0015
2467.00,0.0016
2464.00,0.0015
2461.00,0.0015
2458.00,0.0016
2455.00,0.0016
2452.00,0.0016
2449.00,0.0016
2446.00,0.0015
2443.00,0.0015
2440.00,0.0015
2437.00,0.0014
2434.00,0.0014
2431.00,0.0014
2428.00,0.0014
2425.00,0.0014
2422.00,0.0014
2419.00,0.0014
2416.00,0.0013
2413.00,0.0014
2410.00,0.0013
2407.00,0.0013
2404.00,0.0013
2401.00,0.0013
2398.00,0.0012
2395.00,0.0013
2392.00,0.0013
2389.00,0.0013
2386.00,0.0013
2383.00,0.0014
2380.00,0.0014
2377.00,0.0014
2374.00,0.0014
2371.00,0.0014
2368.00,0.0014
2365.00,0.0015
2362.00,0.0015
2359.00,0.0016
2356.00,0.0017
2353.00,0.0015
2350.00,0.0017
2347.00,0.0017
2344.00,0.0018
2341.00,0.0019
2338.00,0.0021
2335.00,0.0021
2332.00,0.0020
2329.00,0.0020
2326.00,0.0025
2323.00,0.0023
2320.00,0.0021
2317.00,0.0021
2314.00,0.0021
2311.00,0.0021
2308.00,0.0021
2305.00,0.0020
2302.00,0.0020
2299.00,0.0019
2296.00,0.0019
2293.00,0.0020
2290.00,0.0022
2287.00,0.0021
2284.00,0.0019
2281.00,0.0018
2278.00,0.0016
2275.00,0.0015
2272.00,0.0014
2269.00,0.0014
2266.00,0.0015
2263.00,0.0016
2260.00,0.0015
2257.00,0.0015
2254.00,0.0014
2251.00,0.0014
2248.00,0.0014
2245.00,0.0014
2242.00,0.0014
2239.00,0.0014
2236.00,0.0014
2233.00,0.0013
2230.00,0.0011
2227.00,0.0010
2224.00,0.0012
2221.00,0.0012
2218.00,0.0013
2215.00,0.0013
2212.00,0.0013
2209.00,0.0014
2206.00,0.0012
2203.00,0.0011
2200.00,0.0012
2197.00,0.0012
2194.00,0.0012
2191.00,0.0011
2188.00,0.0010
2185.00,0.0011
2182.00,0.0009
2179.00,0.0012
2176.00,0.0008
2173.00,0.0009
2170.00,0.0013
2167.00,0.0013
2164.00,0.0014
2161.00,0.0005
2158.00,-0.0010
2155.00,-0.0003
2152.00,-0.0000
2149.00,0.0001
2146.00,-0.0002
2143.00,-0.0001
2140.00,0.0001
2137.00,-0.0001
2134.00,-0.0004
2131.00,-0.0000
2128.00,0.0003
2125.00,0.0003
2122.00,0.0006
2119.00,0.0007
2116.00,0.0008
2113.00,0.0009
2110.00,0.0009
2107.00,0.0007
2104.00,0.0008
2101.00,0.0009
2098.00,0.0007
2095.00,0.0005
2092.00,0.0008
2089.00,0.0008
2086.00,0.0009
2083.00,0.0010
2080.00,0.0008
2077.00,0.0009
2074.00,0.0008
2071.00,0.0008
2068.00,0.0007
2065.00,0.0005
2062.00,0.0005
2059.00,0.0007
2056.00,0.0007
2053.00,0.0008
2050.00,0.0009
2047.00,0.0006
2044.00,0.0005
2041.00,0.0005
2038.00,0.0001
2035.00,0.0002
2032.00,0.0001
2029.00,0.0002
2026.00,0.0002
2023.00,0.0001
2020.00,0.0003
2017.00,0.0003
2014.00,0.0007
2011.00,0.0008
2008.00,0.0003
2005.00,0.0000
2002.00,0.0004
1999.00,0.0006
1996.00,0.0006
1993.00,0.0008
1990.00,0.0010
1987.00,0.0010
1984.00,0.0015
1981.00,0.0019
1978.00,0.0010
1975.00,0.0008
1972.00,0.0006
1969.00,0.0009
1966.00,0.0014
1963.00,0.0021
1960.00,0.0023
1957.00,0.0025
1954.00,0.0028
1951.00,0.0033
1948.00,0.0037
1945.00,0.0042
1942.00,0.0042
1939.00,0.0039
1936.00,0.0032
1933.00,0.0025
1930.00,0.0019
1927.00,0.0016
1924.00,0.0014
1921.00,0.0013
1918.00,0.0011
1915.00,0.0011
1912.00,0.0012
1909.00,0.0011
1906.00,0.0011
1903.00,0.0013
1900.00,0.0015
1897.00,0.0018
1894.00,0.0021
1891.00,0.0025
1888.00,0.0027
1885.00,0.0031
1882.00,0.0034
1879.00,0.0035
1876.00,0.0037
1873.00,0.0039
1870.00,0.0039
1867.00,0.0037
1864.00,0.0034
1861.00,0.0029
1858.00,0.0024
1855.00,0.0019
1852.00,0.0016
1849.00,0.0015
1846.00,0.0013
1843.00,0.0013
1840.00,0.0013
1837.00,0.0014
1834.00,0.0015
1831.00,0.0017
1828.00,0.0018
1825.00,0.0021
1822.00,0.0024
1819.00,0.0028
1816.00,0.0031
1813.00,0.0035
1810.00,0.0039
1807.00,0.0044
1804.00,0.0046
1801.00,0.0046
1798.00,0.0043
1795.00,0.0038
1792.00,0.0031
1789.00,0.0028
1786.00,0.0026
1783.00,0.0025
1780.00,0.0026
1777.00,0.0027
1774.00,0.0028
1771.00,0.0028
1768.00,0.0028
1765.00,0.0031
1762.00,0.0034
1759.00,0.0037
1756.00,0.0043
1753.00,0.0048
1750.00,0.0054
1747.00,0.0058
1744.00,0.0061
1741.00,0.0064
1738.00,0.0064
1735.00,0.0063
1732.00,0.0061
1729.00,0.0056
1726.00,0.0053
1723.00,0.0049
1720.00,0.0045
1717.00,0.0043
1714.00,0.0042
1711.00,0.0041
1708.00,0.0040
1705.00,0.0040
1702.00,0.0041
1699.00,0.0045
1696.00,0.0051
1693.00,0.0058
1690.00,0.0062
1687.00,0.0066
1684.00,0.0076
1681.00,0.0080
1678.00,0.0080
1675.00,0.0082
1672.00,0.0083
1669.00,0.0085
1666.00,0.0085
1663.00,0.0081
1660.00,0.0077
1657.00,0.0072
1654.00,0.0067
1651.00,0.0064
1648.00,0.0057
1645.00,0.0052
1642.00,0.0048
1639.00,0.0045
1636.00,0.0042
1633.00,0.0041
1630.00,0.0041
1627.00,0.0040
1624.00,0.0042
1621.00,0.0043
1618.00,0.0047
1615.00,0.0055
1612.00,0.0066
1609.00,0.0101
1606.00,0.0177
1603.00,0.0268
1600.00,0.0276
1597.00,0.0192
1594.00,0.0126
1591.00,0.0094
1588.00,0.0090
1585.00,0.0116
1582.00,0.0115
1579.00,0.0077
1576.00,0.0054
1573.00,0.0045
1570.00,0.0037
1567.00,0.0034
1564.00,0.0032
1561.00,0.0032
1558.00,0.0032
1555.00,0.0035
1552.00,0.0039
1549.00,0.0042
1546.00,0.0045
1543.00,0.0045
1540.00,0.0045
1537.00,0.0045
1534.00,0.0039
1531.00,0.0034
1528.00,0.0032
1525.00,0.0030
1522.00,0.0030
1519.00,0.0031
1516.00,0.0032
1513.00,0.0036
1510.00,0.0039
1507.00,0.0046
1504.00,0.0068
1501.00,0.0102
1498.00,0.0228
1495.00,0.0582
1492.00,0.0676
1489.00,0.0392
1486.00,0.0210
1483.00,0.0130
1480.00,0.0092
1477.00,0.0078
1474.00,0.0071
1471.00,0.0076
1468.00,0.0082
1465.00,0.0094
1462.00,0.0112
1459.00,0.0157
1456.00,0.0454
1453.00,0.0700
1450.00,0.0650
1447.00,0.0496
1444.00,0.0391
1441.00,0.0304
1438.00,0.0236
1435.00,0.0174
1432.00,0.0131
1429.00,0.0103
1426.00,0.0090
1423.00,0.0081
1420.00,0.0073
1417.00,0.0068
1414.00,0.0064
1411.00,0.0062
1408.00,0.0061
1405.00,0.0061
1402.00,0.0061
1399.00,0.0062
1396.00,0.0065
1393.00,0.0074
1390.00,0.0086
1387.00,0.0102
1384.00,0.0118
1381.00,0.0131
1378.00,0.0143
1375.00,0.0153
1372.00,0.0158
1369.00,0.0156
1366.00,0.0152
1363.00,0.0147
1360.00,0.0141
1357.00,0.0135
1354.00,0.0131
1351.00,0.0130
1348.00,0.0128
1345.00,0.0123
1342.00,0.0116
1339.00,0.0112
1336.00,0.0115
1333.00,0.0124
1330.00,0.0133
1327.00,0.0134
1324.00,0.0129
1321.00,0.0125
1318.00,0.0126
1315.00,0.0130
1312.00,0.0132
1309.00,0.0129
1306.00,0.0124
1303.00,0.0119
1300.00,0.0115
1297.00,0.0116
1294.00,0.0119
1291.00,0.0117
1288.00,0.0111
1285.00,0.0107
1282.00,0.0104
1279.00,0.0101
1276.00,0.0096
1273.00,0.0089
1270.00,0.0083
1267.00,0.0079
1264.00,0.0076
1261.00,0.0074
1258.00,0.0074
1255.00,0.0074
1252.00,0.0075
1249.00,0.0076
1246.00,0.0077
1243.00,0.0076
1240.00,0.0076
1237.00,0.0075
1234.00,0.0074
1231.00,0.0075
1228.00,0.0076
1225.00,0.0076
1222.00,0.0076
1219.00,0.0075
1216.00,0.0077
1213.00,0.0079
1210.00,0.0083
1207.00,0.0088
1204.00,0.0096
1201.00,0.0105
1198.00,0.0112
1195.00,0.0114
1192.00,0.0115
1189.00,0.0119
1186.00,0.0131
1183.00,0.0152
1180.00,0.0152
1177.00,0.0124
1174.00,0.0103
1171.00,0.0096
1168.00,0.0094
1165.00,0.0094
1162.00,0.0102
1159.00,0.0124
1156.00,0.0152
1153.00,0.0149
1150.00,0.0115
1147.00,0.0090
1144.00,0.0078
1141.00,0.0072
1138.00,0.0067
1135.00,0.0065
1132.00,0.0065
1129.00,0.0066
1126.00,0.0066
1123.00,0.0068
1120.00,0.0073
1117.00,0.0081
1114.00,0.0086
1111.00,0.0087
1108.00,0.0085
1105.00,0.0084
1102.00,0.0086
1099.00,0.0089
1096.00,0.0093
1093.00,0.0098
1090.00,0.0102
1087.00,0.0110
1084.00,0.0121
1081.00,0.0136
1078.00,0.0152
1075.00,0.0172
1072.00,0.0197
1069.00,0.0209
1066.00,0.0199
1063.00,0.0176
1060.00,0.0157
1057.00,0.0141
1054.00,0.0128
1051.00,0.0118
1048.00,0.0111
1045.00,0.0107
1042.00,0.0107
1039.00,0.0118
1036.00,0.0158
1033.00,0.0249
1030.00,0.0340
1027.00,0.0353
1024.00,0.0286
1021.00,0.0226
1018.00,0.0189
1015.00,0.0165
1012.00,0.0148
1009.00,0.0140
1006.00,0.0147
1003.00,0.0154
1000.00,0.0133
997.00,0.0113
994.00,0.0108
991.00,0.0110
988.00,0.0115
985.00,0.0125
982.00,0.0135
979.00,0.0137
976.00,0.0130
973.00,0.0125
970.00,0.0132
967.00,0.0146
964.00,0.0150
961.00,0.0139
958.00,0.0121
955.00,0.0111
952.00,0.0109
949.00,0.0114
946.00,0.0119
943.00,0.0121
940.00,0.0116
937.00,0.0106
934.00,0.0095
931.00,0.0087
928.00,0.0085
925.00,0.0088
922.00,0.0094
919.00,0.0105
916.00,0.0127
913.00,0.0165
910.00,0.0212
907.00,0.0241
904.00,0.0226
901.00,0.0177
898.00,0.0129
895.00,0.0101
892.00,0.0088
889.00,0.0080
886.00,0.0074
883.00,0.0070
880.00,0.0067
877.00,0.0066
874.00,0.0064
871.00,0.0063
868.00,0.0062
865.00,0.0061
862.00,0.0061
859.00,0.0061
856.00,0.0063
853.00,0.0070
850.00,0.0085
847.00,0.0106
844.00,0.0124
841.00,0.0128
838.00,0.0114
835.00,0.0090
832.00,0.0071
829.00,0.0064
826.00,0.0061
823.00,0.0058
820.00,0.0059
817.00,0.0061
814.00,0.0062
811.00,0.0063
808.00,0.0065
805.00,0.0066
802.00,0.0070
799.00,0.0076
796.00,0.0086
793.00,0.0100
790.00,0.0119
787.00,0.0141
784.00,0.0170
781.00,0.0207
778.00,0.0263
775.00,0.0344
772.00,0.0448
769.00,0.0574
766.00,0.0700
763.00,0.0821
760.00,0.0946
757.00,0.1041
754.00,0.1060
751.00,0.1047
748.00,0.1036
745.00,0.0941
742.00,0.0736
739.00,0.0541
736.00,0.0388
733.00,0.0259
730.00,0.0176
727.00,0.0140
724.00,0.0126
721.00,0.0124
718.00,0.0131
715.00,0.0159
712.00,0.0237
709.00,0.0433
706.00,0.0825
703.00,0.1440
700.00,0.2245
697.00,0.3082
694.00,0.3196
691.00,0.2217
688.00,0.1376
685.00,0.0952
682.00,0.0726
679.00,0.0591
676.00,0.0506
673.00,0.0450
670.00,0.0409
667.00,0.0367
664.00,0.0330
661.00,0.0291
658.00,0.0258
655.00,0.0228
652.00,0.0207
649.00,0.0191
646.00,0.0176
643.00,0.0169
640.00,0.0169
637.00,0.0177
634.00,0.0187
631.00,0.0200
628.00,0.0209
625.00,0.0217
622.00,0.0228
619.00,0.0223
616.00,0.0206
613.00,0.0193
610.00,0.0183
607.00,0.0179
604.00,0.0181
601.00,0.0188
598.00,0.0192
595.00,0.0199
592.00,0.0204
589.00,0.0213
586.00,0.0225
583.00,0.0241
580.00,0.0263
577.00,0.0298
574.00,0.0339
571.00,0.0382
568.00,0.0424
565.00,0.0466
562.00,0.0504
559.00,0.0548
556.00,0.0590
553.00,0.0639
550.00,0.0699
547.00,0.0778
544.00,0.0879
541.00,0.0975
538.00,0.1014
535.00,0.0950
532.00,0.0809
529.00,0.0661
526.00,0.0534
523.00,0.0440
520.00,0.0379
517.00,0.0344
514.00,0.0313
511.00,0.0281
508.00,0.0256
505.00,0.0240
502.00,0.0221
499.00,0.0205
496.00,0.0195
493.00,0.0184
490.00,0.0178
487.00,0.0169
484.00,0.0159
481.00,0.0155
478.00,0.0155
475.00,0.0152
472.00,0.0153
469.00,0.0145
466.00,0.0140
463.00,0.0136
460.00,0.0137
457.00,0.0142
454.00,0.0134
451.00,0.0137
448.00,0.0134
445.00,0.0132
442.00,0.0128
439.00,0.0119
436.00,0.0120
433.00,0.0126
430.00,0.0115
427.00,0.0115
424.00,0.0115
421.00,0.0121
418.00,0.0113
415.00,0.0106
412.00,0.0105
409.00,0.0135
406.00,0.0141
403.00,0.0117
400.00,0.0116