File: FTIR/Olivia/2025_06_24_Polystyrene_Std_scan2.csv
Created as New Dataset,Sample 716 By YargerLab Date Tuesday, June 24 2025
cm-1,A
4000.00,0.0016
3997.00,0.0016
3994.00,0.0016
3991.00,0.0016
3988.00,0.0016
3985.00,0.0016
3982.00,0.0016
3979.00,0.0016
3976.00,0.0016
3973.00,0.0016
3970.00,0.0016
3967.00,0.0016
3964.00,0.0016
3961.00,0.0015
3958.00,0.0016
3955.00,0.0016
3952.00,0.0016
3949.00,0.0016
3946.00,0.0016
3943.00,0.0016
3940.00,0.0016
3937.00,0.0016
3934.00,0.0016
3931.00,0.0016
3928.00,0.0016
3925.00,0.0016
3922.00,0.0016
3919.00,0.0015
3916.00,0.0015
3913.00,0.0015
3910.00,0.0015
3907.00,0.0016
3904.00,0.0016
3901.00,0.0017
3898.00,0.0016
3895.00,0.0016
3892.00,0.0016
3889.00,0.0016
3886.00,0.0015
3883.00,0.0016
3880.00,0.0016
3877.00,0.0016
3874.00,0.0016
3871.00,0.0016
3868.00,0.0016
3865.00,0.0015
3862.00,0.0016
3859.00,0.0016
3856.00,0.0017
3853.00,0.0017
3850.00,0.0016
3847.00,0.0016
3844.00,0.0016
3841.00,0.0017
3838.00,0.0017
3835.00,0.0017
3832.00,0.0017
3829.00,0.0017
3826.00,0.0017
3823.00,0.0017
3820.00,0.0017
3817.00,0.0017
3814.00,0.0016
3811.00,0.0016
3808.00,0.0016
3805.00,0.0017
3802.00,0.0017
3799.00,0.0017
3796.00,0.0016
3793.00,0.0017
3790.00,0.0016
3787.00,0.0016
3784.00,0.0016
3781.00,0.0016
3778.00,0.0016
3775.00,0.0016
3772.00,0.0017
3769.00,0.0017
3766.00,0.0017
3763.00,0.0017
3760.00,0.0017
3757.00,0.0017
3754.00,0.0018
3751.00,0.0018
3748.00,0.0018
3745.00,0.0017
3742.00,0.0018
3739.00,0.0017
3736.00,0.0017
3733.00,0.0017
3730.00,0.0016
3727.00,0.0015
3724.00,0.0016
3721.00,0.0016
3718.00,0.0016
3715.00,0.0016
3712.00,0.0017
3709.00,0.0017
3706.00,0.0015
3703.00,0.0015
3700.00,0.0016
3697.00,0.0015
3694.00,0.0015
3691.00,0.0015
3688.00,0.0014
3685.00,0.0012
3682.00,0.0012
3679.00,0.0011
3676.00,0.0009
3673.00,0.0009
3670.00,0.0008
3667.00,0.0007
3664.00,0.0006
3661.00,0.0006
3658.00,0.0006
3655.00,0.0006
3652.00,0.0008
3649.00,0.0009
3646.00,0.0008
3643.00,0.0008
3640.00,0.0009
3637.00,0.0009
3634.00,0.0011
3631.00,0.0013
3628.00,0.0013
3625.00,0.0013
3622.00,0.0013
3619.00,0.0014
3616.00,0.0014
3613.00,0.0014
3610.00,0.0015
3607.00,0.0014
3604.00,0.0014
3601.00,0.0013
3598.00,0.0013
3595.00,0.0014
3592.00,0.0014
3589.00,0.0014
3586.00,0.0014
3583.00,0.0014
3580.00,0.0013
3577.00,0.0014
3574.00,0.0015
3571.00,0.0015
3568.00,0.0014
3565.00,0.0013
3562.00,0.0014
3559.00,0.0014
3556.00,0.0014
3553.00,0.0014
3550.00,0.0014
3547.00,0.0015
3544.00,0.0015
3541.00,0.0015
3538.00,0.0015
3535.00,0.0015
3532.00,0.0015
3529.00,0.0015
3526.00,0.0015
3523.00,0.0015
3520.00,0.0015
3517.00,0.0015
3514.00,0.0015
3511.00,0.0016
3508.00,0.0015
3505.00,0.0016
3502.00,0.0016
3499.00,0.0016
3496.00,0.0016
3493.00,0.0016
3490.00,0.0016
3487.00,0.0016
3484.00,0.0015
3481.00,0.0015
3478.00,0.0015
3475.00,0.0015
3472.00,0.0016
3469.00,0.0015
3466.00,0.0016
3463.00,0.0016
3460.00,0.0016
3457.00,0.0016
3454.00,0.0016
3451.00,0.0016
3448.00,0.0016
3445.00,0.0016
3442.00,0.0015
3439.00,0.0015
3436.00,0.0016
3433.00,0.0016
3430.00,0.0016
3427.00,0.0016
3424.00,0.0016
3421.00,0.0016
3418.00,0.0015
3415.00,0.0016
3412.00,0.0016
3409.00,0.0016
3406.00,0.0016
3403.00,0.0015
3400.00,0.0016
3397.00,0.0015
3394.00,0.0015
3391.00,0.0016
3388.00,0.0016
3385.00,0.0016
3382.00,0.0016
3379.00,0.0015
3376.00,0.0015
3373.00,0.0016
3370.00,0.0016
3367.00,0.0015
3364.00,0.0015
3361.00,0.0015
3358.00,0.0015
3355.00,0.0015
3352.00,0.0015
3349.00,0.0015
3346.00,0.0015
3343.00,0.0014
3340.00,0.0015
3337.00,0.0015
3334.00,0.0015
3331.00,0.0016
3328.00,0.0016
3325.00,0.0015
3322.00,0.0015
3319.00,0.0015
3316.00,0.0015
3313.00,0.0016
3310.00,0.0016
3307.00,0.0015
3304.00,0.0015
3301.00,0.0015
3298.00,0.0015
3295.00,0.0015
3292.00,0.0015
3289.00,0.0015
3286.00,0.0015
3283.00,0.0015
3280.00,0.0014
3277.00,0.0015
3274.00,0.0016
3271.00,0.0016
3268.00,0.0016
3265.00,0.0015
3262.00,0.0015
3259.00,0.0015
3256.00,0.0015
3253.00,0.0015
3250.00,0.0014
3247.00,0.0015
3244.00,0.0015
3241.00,0.0014
3238.00,0.0014
3235.00,0.0014
3232.00,0.0014
3229.00,0.0013
3226.00,0.0013
3223.00,0.0014
3220.00,0.0014
3217.00,0.0014
3214.00,0.0014
3211.00,0.0015
3208.00,0.0015
3205.00,0.0015
3202.00,0.0015
3199.00,0.0015
3196.00,0.0014
3193.00,0.0014
3190.00,0.0014
3187.00,0.0014
3184.00,0.0014
3181.00,0.0014
3178.00,0.0014
3175.00,0.0014
3172.00,0.0014
3169.00,0.0015
3166.00,0.0015
3163.00,0.0015
3160.00,0.0015
3157.00,0.0015
3154.00,0.0015
3151.00,0.0015
3148.00,0.0015
3145.00,0.0015
3142.00,0.0015
3139.00,0.0015
3136.00,0.0015
3133.00,0.0015
3130.00,0.0015
3127.00,0.0016
3124.00,0.0016
3121.00,0.0017
3118.00,0.0018
3115.00,0.0020
3112.00,0.0024
3109.00,0.0030
3106.00,0.0036
3103.00,0.0039
3100.00,0.0038
3097.00,0.0036
3094.00,0.0039
3091.00,0.0047
3088.00,0.0064
3085.00,0.0084
3082.00,0.0093
3079.00,0.0084
3076.00,0.0073
3073.00,0.0069
3070.00,0.0073
3067.00,0.0087
3064.00,0.0108
3061.00,0.0126
3058.00,0.0124
3055.00,0.0106
3052.00,0.0086
3049.00,0.0073
3046.00,0.0067
3043.00,0.0068
3040.00,0.0077
3037.00,0.0094
3034.00,0.0126
3031.00,0.0173
3028.00,0.0223
3025.00,0.0245
3022.00,0.0212
3019.00,0.0150
3016.00,0.0098
3013.00,0.0067
3010.00,0.0050
3007.00,0.0042
3004.00,0.0039
3001.00,0.0034
2998.00,0.0019
2995.00,0.0000
2992.00,-0.0013
2989.00,-0.0020
2986.00,-0.0029
2983.00,-0.0053
2980.00,-0.0059
2977.00,-0.0045
2974.00,-0.0039
2971.00,-0.0038
2968.00,-0.0025
2965.00,-0.0013
2962.00,-0.0003
2959.00,0.0008
2956.00,0.0020
2953.00,0.0034
2950.00,0.0049
2947.00,0.0069
2944.00,0.0091
2941.00,0.0115
2938.00,0.0142
2935.00,0.0172
2932.00,0.0204
2929.00,0.0234
2926.00,0.0258
2923.00,0.0270
2920.00,0.0271
2917.00,0.0262
2914.00,0.0245
2911.00,0.0223
2908.00,0.0199
2905.00,0.0176
2902.00,0.0153
2899.00,0.0130
2896.00,0.0110
2893.00,0.0094
2890.00,0.0081
2887.00,0.0073
2884.00,0.0066
2881.00,0.0063
2878.00,0.0061
2875.00,0.0058
2872.00,0.0056
2869.00,0.0056
2866.00,0.0060
2863.00,0.0068
2860.00,0.0081
2857.00,0.0096
2854.00,0.0111
2851.00,0.0122
2848.00,0.0124
2845.00,0.0114
2842.00,0.0095
2839.00,0.0073
2836.00,0.0055
2833.00,0.0042
2830.00,0.0035
2827.00,0.0032
2824.00,0.0030
2821.00,0.0028
2818.00,0.0027
2815.00,0.0027
2812.00,0.0027
2809.00,0.0027
2806.00,0.0026
2803.00,0.0026
2800.00,0.0025
2797.00,0.0024
2794.00,0.0023
2791.00,0.0023
2788.00,0.0023
2785.00,0.0023
2782.00,0.0023
2779.00,0.0023
2776.00,0.0022
2773.00,0.0022
2770.00,0.0021
2767.00,0.0021
2764.00,0.0021
2761.00,0.0021
2758.00,0.0021
2755.00,0.0021
2752.00,0.0021
2749.00,0.0020
2746.00,0.0020
2743.00,0.0020
2740.00,0.0021
2737.00,0.0021
2734.00,0.0021
2731.00,0.0020
2728.00,0.0021
2725.00,0.0021
2722.00,0.0021
2719.00,0.0021
2716.00,0.0021
2713.00,0.0021
2710.00,0.0021
2707.00,0.0021
2704.00,0.0021
2701.00,0.0021
2698.00,0.0021
2695.00,0.0021
2692.00,0.0021
2689.00,0.0021
2686.00,0.0021
2683.00,0.0021
2680.00,0.0021
2677.00,0.0021
2674.00,0.0021
2671.00,0.0021
2668.00,0.0021
2665.00,0.0022
2662.00,0.0023
2659.00,0.0025
2656.00,0.0025
2653.00,0.0025
2650.00,0.0025
2647.00,0.0025
2644.00,0.0025
2641.00,0.0025
2638.00,0.0025
2635.00,0.0026
2632.00,0.0026
2629.00,0.0026
2626.00,0.0025
2623.00,0.0024
2620.00,0.0024
2617.00,0.0023
2614.00,0.0023
2611.00,0.0024
2608.00,0.0024
2605.00,0.0024
2602.00,0.0024
2599.00,0.0024
2596.00,0.0023
2593.00,0.0022
2590.00,0.0022
2587.00,0.0022
2584.00,0.0022
2581.00,0.0022
2578.00,0.0021
2575.00,0.0020
2572.00,0.0020
2569.00,0.0020
2566.00,0.0019
2563.00,0.0019
2560.00,0.0020
2557.00,0.0019
2554.00,0.0019
2551.00,0.0019
2548.00,0.0019
2545.00,0.0019
2542.00,0.0018
2539.00,0.0018
2536.00,0.0018
2533.00,0.0019
2530.00,0.0019
2527.00,0.0018
2524.00,0.0018
2521.00,0.0018
2518.00,0.0018
2515.00,0.0018
2512.00,0.0018
2509.00,0.0018
2506.00,0.0018
2503.00,0.0018
2500.00,0.0018
2497.00,0.0018
2494.00,0.0018
2491.00,0.0017
2488.00,0.0017
2485.00,0.0017
2482.00,0.0017
2479.00,0.0017
2476.00,0.0016
2473.00,0.0016
2470.00,0.0017
2467.00,0.0017
2464.00,0.0017
2461.00,0.0018
2458.00,0.0018
2455.00,0.0018
2452.00,0.0017
2449.00,0.0017
2446.00,0.0017
2443.00,0.0016
2440.00,0.0016
2437.00,0.0016
2434.00,0.0016
2431.00,0.0015
2428.00,0.0014
2425.00,0.0015
2422.00,0.0015
2419.00,0.0014
2416.00,0.0014
2413.00,0.0015
2410.00,0.0014
2407.00,0.0013
2404.00,0.0013
2401.00,0.0014
2398.00,0.0013
2395.00,0.0013
2392.00,0.0013
2389.00,0.0013
2386.00,0.0012
2383.00,0.0013
2380.00,0.0013
2377.00,0.0013
2374.00,0.0013
2371.00,0.0012
2368.00,0.0012
2365.00,0.0013
2362.00,0.0015
2359.00,0.0015
2356.00,0.0014
2353.00,0.0013
2350.00,0.0014
2347.00,0.0020
2344.00,0.0021
2341.00,0.0020
2338.00,0.0021
2335.00,0.0020
2332.00,0.0018
2329.00,0.0020
2326.00,0.0029
2323.00,0.0028
2320.00,0.0024
2317.00,0.0023
2314.00,0.0023
2311.00,0.0024
2308.00,0.0022
2305.00,0.0021
2302.00,0.0021
2299.00,0.0022
2296.00,0.0023
2293.00,0.0025
2290.00,0.0027
2287.00,0.0028
2284.00,0.0026
2281.00,0.0024
2278.00,0.0023
2275.00,0.0022
2272.00,0.0022
2269.00,0.0022
2266.00,0.0019
2263.00,0.0019
2260.00,0.0021
2257.00,0.0018
2254.00,0.0018
2251.00,0.0019
2248.00,0.0017
2245.00,0.0019
2242.00,0.0020
2239.00,0.0018
2236.00,0.0016
2233.00,0.0017
2230.00,0.0017
2227.00,0.0017
2224.00,0.0017
2221.00,0.0017
2218.00,0.0017
2215.00,0.0017
2212.00,0.0017
2209.00,0.0016
2206.00,0.0016
2203.00,0.0016
2200.00,0.0016
2197.00,0.0017
2194.00,0.0016
2191.00,0.0017
2188.00,0.0018
2185.00,0.0015
2182.00,0.0010
2179.00,0.0012
2176.00,0.0009
2173.00,0.0012
2170.00,0.0017
2167.00,0.0023
2164.00,0.0031
2161.00,0.0017
2158.00,-0.0016
2155.00,-0.0011
2152.00,-0.0005
2149.00,-0.0005
2146.00,-0.0004
2143.00,-0.0004
2140.00,-0.0004
2137.00,-0.0006
2134.00,-0.0009
2131.00,-0.0003
2128.00,-0.0001
2125.00,0.0002
2122.00,0.0007
2119.00,0.0009
2116.00,0.0011
2113.00,0.0014
2110.00,0.0013
2107.00,0.0011
2104.00,0.0011
2101.00,0.0011
2098.00,0.0011
2095.00,0.0007
2092.00,0.0009
2089.00,0.0012
2086.00,0.0013
2083.00,0.0012
2080.00,0.0014
2077.00,0.0014
2074.00,0.0013
2071.00,0.0012
2068.00,0.0010
2065.00,0.0010
2062.00,0.0010
2059.00,0.0010
2056.00,0.0010
2053.00,0.0016
2050.00,0.0020
2047.00,0.0013
2044.00,0.0010
2041.00,0.0008
2038.00,0.0012
2035.00,0.0010
2032.00,0.0006
2029.00,0.0007
2026.00,0.0007
2023.00,0.0005
2020.00,0.0007
2017.00,0.0005
2014.00,0.0005
2011.00,0.0007
2008.00,0.0002
2005.00,-0.0001
2002.00,0.0000
1999.00,0.0006
1996.00,0.0009
1993.00,0.0012
1990.00,0.0014
1987.00,0.0019
1984.00,0.0026
1981.00,0.0028
1978.00,0.0011
1975.00,0.0007
1972.00,0.0010
1969.00,0.0013
1966.00,0.0014
1963.00,0.0012
1960.00,0.0012
1957.00,0.0019
1954.00,0.0026
1951.00,0.0031
1948.00,0.0034
1945.00,0.0037
1942.00,0.0038
1939.00,0.0035
1936.00,0.0031
1933.00,0.0024
1930.00,0.0017
1927.00,0.0015
1924.00,0.0013
1921.00,0.0013
1918.00,0.0012
1915.00,0.0011
1912.00,0.0010
1909.00,0.0011
1906.00,0.0013
1903.00,0.0014
1900.00,0.0016
1897.00,0.0017
1894.00,0.0020
1891.00,0.0022
1888.00,0.0026
1885.00,0.0029
1882.00,0.0031
1879.00,0.0032
1876.00,0.0034
1873.00,0.0036
1870.00,0.0037
1867.00,0.0037
1864.00,0.0033
1861.00,0.0029
1858.00,0.0024
1855.00,0.0020
1852.00,0.0017
1849.00,0.0015
1846.00,0.0015
1843.00,0.0014
1840.00,0.0014
1837.00,0.0014
1834.00,0.0015
1831.00,0.0018
1828.00,0.0019
1825.00,0.0022
1822.00,0.0025
1819.00,0.0025
1816.00,0.0027
1813.00,0.0032
1810.00,0.0037
1807.00,0.0040
1804.00,0.0043
1801.00,0.0043
1798.00,0.0041
1795.00,0.0036
1792.00,0.0031
1789.00,0.0026
1786.00,0.0023
1783.00,0.0022
1780.00,0.0022
1777.00,0.0022
1774.00,0.0023
1771.00,0.0022
1768.00,0.0023
1765.00,0.0024
1762.00,0.0026
1759.00,0.0029
1756.00,0.0033
1753.00,0.0037
1750.00,0.0041
1747.00,0.0043
1744.00,0.0045
1741.00,0.0046
1738.00,0.0044
1735.00,0.0042
1732.00,0.0039
1729.00,0.0038
1726.00,0.0035
1723.00,0.0033
1720.00,0.0031
1717.00,0.0030
1714.00,0.0029
1711.00,0.0028
1708.00,0.0027
1705.00,0.0028
1702.00,0.0028
1699.00,0.0027
1696.00,0.0027
1693.00,0.0027
1690.00,0.0027
1687.00,0.0028
1684.00,0.0029
1681.00,0.0030
1678.00,0.0031
1675.00,0.0031
1672.00,0.0032
1669.00,0.0032
1666.00,0.0031
1663.00,0.0030
1660.00,0.0028
1657.00,0.0027
1654.00,0.0025
1651.00,0.0025
1648.00,0.0024
1645.00,0.0024
1642.00,0.0023
1639.00,0.0023
1636.00,0.0024
1633.00,0.0024
1630.00,0.0025
1627.00,0.0027
1624.00,0.0029
1621.00,0.0031
1618.00,0.0034
1615.00,0.0040
1612.00,0.0051
1609.00,0.0080
1606.00,0.0145
1603.00,0.0227
1600.00,0.0243
1597.00,0.0174
1594.00,0.0113
1591.00,0.0083
1588.00,0.0077
1585.00,0.0099
1582.00,0.0104
1579.00,0.0073
1576.00,0.0051
1573.00,0.0041
1570.00,0.0036
1567.00,0.0033
1564.00,0.0031
1561.00,0.0032
1558.00,0.0033
1555.00,0.0034
1552.00,0.0037
1549.00,0.0041
1546.00,0.0044
1543.00,0.0047
1540.00,0.0047
1537.00,0.0044
1534.00,0.0040
1531.00,0.0036
1528.00,0.0034
1525.00,0.0032
1522.00,0.0031
1519.00,0.0032
1516.00,0.0033
1513.00,0.0035
1510.00,0.0038
1507.00,0.0043
1504.00,0.0057
1501.00,0.0086
1498.00,0.0188
1495.00,0.0474
1492.00,0.0616
1489.00,0.0373
1486.00,0.0193
1483.00,0.0116
1480.00,0.0080
1477.00,0.0064
1474.00,0.0055
1471.00,0.0054
1468.00,0.0059
1465.00,0.0064
1462.00,0.0078
1459.00,0.0125
1456.00,0.0341
1453.00,0.0594
1450.00,0.0587
1447.00,0.0442
1444.00,0.0343
1441.00,0.0263
1438.00,0.0204
1435.00,0.0144
1432.00,0.0107
1429.00,0.0079
1426.00,0.0065
1423.00,0.0057
1420.00,0.0052
1417.00,0.0048
1414.00,0.0045
1411.00,0.0042
1408.00,0.0039
1405.00,0.0036
1402.00,0.0032
1399.00,0.0027
1396.00,0.0026
1393.00,0.0030
1390.00,0.0040
1387.00,0.0052
1384.00,0.0064
1381.00,0.0075
1378.00,0.0090
1375.00,0.0104
1372.00,0.0112
1369.00,0.0115
1366.00,0.0115
1363.00,0.0113
1360.00,0.0110
1357.00,0.0106
1354.00,0.0104
1351.00,0.0105
1348.00,0.0104
1345.00,0.0101
1342.00,0.0095
1339.00,0.0091
1336.00,0.0094
1333.00,0.0101
1330.00,0.0110
1327.00,0.0112
1324.00,0.0107
1321.00,0.0104
1318.00,0.0105
1315.00,0.0109
1312.00,0.0111
1309.00,0.0109
1306.00,0.0104
1303.00,0.0098
1300.00,0.0092
1297.00,0.0087
1294.00,0.0085
1291.00,0.0083
1288.00,0.0079
1285.00,0.0077
1282.00,0.0075
1279.00,0.0072
1276.00,0.0066
1273.00,0.0059
1270.00,0.0052
1267.00,0.0047
1264.00,0.0044
1261.00,0.0042
1258.00,0.0041
1255.00,0.0040
1252.00,0.0040
1249.00,0.0042
1246.00,0.0045
1243.00,0.0046
1240.00,0.0046
1237.00,0.0046
1234.00,0.0047
1231.00,0.0050
1228.00,0.0052
1225.00,0.0054
1222.00,0.0056
1219.00,0.0057
1216.00,0.0059
1213.00,0.0062
1210.00,0.0066
1207.00,0.0072
1204.00,0.0078
1201.00,0.0086
1198.00,0.0091
1195.00,0.0093
1192.00,0.0094
1189.00,0.0095
1186.00,0.0103
1183.00,0.0119
1180.00,0.0118
1177.00,0.0091
1174.00,0.0067
1171.00,0.0056
1168.00,0.0051
1165.00,0.0049
1162.00,0.0053
1159.00,0.0073
1156.00,0.0100
1153.00,0.0098
1150.00,0.0068
1147.00,0.0045
1144.00,0.0035
1141.00,0.0030
1138.00,0.0027
1135.00,0.0028
1132.00,0.0028
1129.00,0.0030
1126.00,0.0033
1123.00,0.0037
1120.00,0.0044
1117.00,0.0052
1114.00,0.0059
1111.00,0.0062
1108.00,0.0061
1105.00,0.0060
1102.00,0.0060
1099.00,0.0062
1096.00,0.0065
1093.00,0.0067
1090.00,0.0068
1087.00,0.0074
1084.00,0.0084
1081.00,0.0097
1078.00,0.0110
1075.00,0.0129
1072.00,0.0153
1069.00,0.0167
1066.00,0.0160
1063.00,0.0140
1060.00,0.0121
1057.00,0.0107
1054.00,0.0100
1051.00,0.0094
1048.00,0.0091
1045.00,0.0089
1042.00,0.0090
1039.00,0.0101
1036.00,0.0139
1033.00,0.0223
1030.00,0.0309
1027.00,0.0327
1024.00,0.0266
1021.00,0.0207
1018.00,0.0173
1015.00,0.0151
1012.00,0.0136
1009.00,0.0129
1006.00,0.0134
1003.00,0.0140
1000.00,0.0121
997.00,0.0102
994.00,0.0098
991.00,0.0098
988.00,0.0103
985.00,0.0112
982.00,0.0120
979.00,0.0120
976.00,0.0110
973.00,0.0098
970.00,0.0098
967.00,0.0109
964.00,0.0116
961.00,0.0105
958.00,0.0084
955.00,0.0071
952.00,0.0068
949.00,0.0074
946.00,0.0081
943.00,0.0086
940.00,0.0084
937.00,0.0077
934.00,0.0070
931.00,0.0068
928.00,0.0069
925.00,0.0073
922.00,0.0081
919.00,0.0093
916.00,0.0116
913.00,0.0153
910.00,0.0200
907.00,0.0231
904.00,0.0218
901.00,0.0171
898.00,0.0123
895.00,0.0094
892.00,0.0080
889.00,0.0073
886.00,0.0067
883.00,0.0062
880.00,0.0060
877.00,0.0058
874.00,0.0056
871.00,0.0054
868.00,0.0054
865.00,0.0054
862.00,0.0054
859.00,0.0055
856.00,0.0057
853.00,0.0063
850.00,0.0077
847.00,0.0096
844.00,0.0113
841.00,0.0118
838.00,0.0104
835.00,0.0080
832.00,0.0061
829.00,0.0052
826.00,0.0049
823.00,0.0047
820.00,0.0048
817.00,0.0048
814.00,0.0049
811.00,0.0052
808.00,0.0054
805.00,0.0056
802.00,0.0060
799.00,0.0066
796.00,0.0077
793.00,0.0091
790.00,0.0110
787.00,0.0134
784.00,0.0160
781.00,0.0194
778.00,0.0246
775.00,0.0321
772.00,0.0420
769.00,0.0539
766.00,0.0661
763.00,0.0781
760.00,0.0908
757.00,0.1009
754.00,0.1038
751.00,0.1027
748.00,0.1013
745.00,0.0924
742.00,0.0727
739.00,0.0533
736.00,0.0380
733.00,0.0251
730.00,0.0169
727.00,0.0134
724.00,0.0120
721.00,0.0117
718.00,0.0122
715.00,0.0149
712.00,0.0220
709.00,0.0404
706.00,0.0785
703.00,0.1401
700.00,0.2214
697.00,0.3074
694.00,0.3316
691.00,0.2375
688.00,0.1469
685.00,0.1003
682.00,0.0759
679.00,0.0608
676.00,0.0515
673.00,0.0456
670.00,0.0412
667.00,0.0359
664.00,0.0323
661.00,0.0281
658.00,0.0245
655.00,0.0214
652.00,0.0191
649.00,0.0173
646.00,0.0161
643.00,0.0152
640.00,0.0152
637.00,0.0160
634.00,0.0172
631.00,0.0185
628.00,0.0196
625.00,0.0203
622.00,0.0215
619.00,0.0210
616.00,0.0191
613.00,0.0180
610.00,0.0172
607.00,0.0167
604.00,0.0165
601.00,0.0168
598.00,0.0174
595.00,0.0180
592.00,0.0188
589.00,0.0197
586.00,0.0208
583.00,0.0223
580.00,0.0246
577.00,0.0280
574.00,0.0321
571.00,0.0362
568.00,0.0405
565.00,0.0444
562.00,0.0487
559.00,0.0526
556.00,0.0571
553.00,0.0621
550.00,0.0682
547.00,0.0765
544.00,0.0867
541.00,0.0971
538.00,0.1024
535.00,0.0969
532.00,0.0826
529.00,0.0670
526.00,0.0535
523.00,0.0440
520.00,0.0376
517.00,0.0333
514.00,0.0304
511.00,0.0279
508.00,0.0251
505.00,0.0222
502.00,0.0202
499.00,0.0187
496.00,0.0177
493.00,0.0170
490.00,0.0158
487.00,0.0151
484.00,0.0146
481.00,0.0140
478.00,0.0135
475.00,0.0132
472.00,0.0131
469.00,0.0129
466.00,0.0123
463.00,0.0112
460.00,0.0111
457.00,0.0123
454.00,0.0118
451.00,0.0119
448.00,0.0111
445.00,0.0106
442.00,0.0105
439.00,0.0102
436.00,0.0100
433.00,0.0087
430.00,0.0090
427.00,0.0090
424.00,0.0109
421.00,0.0097
418.00,0.0074
415.00,0.0066
412.00,0.0074
409.00,0.0096
406.00,0.0115
403.00,0.0116
400.00,0.0089