File: FTIR/Olivia/2025_08_04_1CBN_3PVP29kDa_MortPest_powder_scan2.csv
Created as New Dataset,Sample 1040 By YargerLab Date Monday, August 04 2025
cm-1,A
4000.00,0.0067
3997.00,0.0067
3994.00,0.0068
3991.00,0.0068
3988.00,0.0068
3985.00,0.0068
3982.00,0.0068
3979.00,0.0068
3976.00,0.0068
3973.00,0.0068
3970.00,0.0069
3967.00,0.0068
3964.00,0.0068
3961.00,0.0068
3958.00,0.0068
3955.00,0.0068
3952.00,0.0068
3949.00,0.0068
3946.00,0.0068
3943.00,0.0068
3940.00,0.0067
3937.00,0.0067
3934.00,0.0068
3931.00,0.0068
3928.00,0.0068
3925.00,0.0068
3922.00,0.0068
3919.00,0.0068
3916.00,0.0068
3913.00,0.0068
3910.00,0.0068
3907.00,0.0068
3904.00,0.0068
3901.00,0.0069
3898.00,0.0068
3895.00,0.0068
3892.00,0.0068
3889.00,0.0068
3886.00,0.0068
3883.00,0.0068
3880.00,0.0068
3877.00,0.0068
3874.00,0.0068
3871.00,0.0068
3868.00,0.0068
3865.00,0.0068
3862.00,0.0068
3859.00,0.0068
3856.00,0.0068
3853.00,0.0069
3850.00,0.0068
3847.00,0.0068
3844.00,0.0068
3841.00,0.0069
3838.00,0.0069
3835.00,0.0068
3832.00,0.0068
3829.00,0.0068
3826.00,0.0068
3823.00,0.0068
3820.00,0.0068
3817.00,0.0069
3814.00,0.0068
3811.00,0.0068
3808.00,0.0068
3805.00,0.0068
3802.00,0.0068
3799.00,0.0068
3796.00,0.0068
3793.00,0.0067
3790.00,0.0067
3787.00,0.0067
3784.00,0.0067
3781.00,0.0067
3778.00,0.0068
3775.00,0.0067
3772.00,0.0067
3769.00,0.0068
3766.00,0.0068
3763.00,0.0067
3760.00,0.0068
3757.00,0.0068
3754.00,0.0069
3751.00,0.0069
3748.00,0.0069
3745.00,0.0069
3742.00,0.0069
3739.00,0.0070
3736.00,0.0070
3733.00,0.0069
3730.00,0.0068
3727.00,0.0067
3724.00,0.0067
3721.00,0.0067
3718.00,0.0067
3715.00,0.0067
3712.00,0.0067
3709.00,0.0067
3706.00,0.0067
3703.00,0.0066
3700.00,0.0066
3697.00,0.0067
3694.00,0.0067
3691.00,0.0067
3688.00,0.0068
3685.00,0.0069
3682.00,0.0069
3679.00,0.0070
3676.00,0.0070
3673.00,0.0071
3670.00,0.0072
3667.00,0.0072
3664.00,0.0072
3661.00,0.0072
3658.00,0.0073
3655.00,0.0074
3652.00,0.0076
3649.00,0.0077
3646.00,0.0079
3643.00,0.0079
3640.00,0.0080
3637.00,0.0081
3634.00,0.0082
3631.00,0.0084
3628.00,0.0086
3625.00,0.0088
3622.00,0.0089
3619.00,0.0090
3616.00,0.0093
3613.00,0.0095
3610.00,0.0097
3607.00,0.0099
3604.00,0.0101
3601.00,0.0103
3598.00,0.0106
3595.00,0.0109
3592.00,0.0111
3589.00,0.0114
3586.00,0.0117
3583.00,0.0120
3580.00,0.0123
3577.00,0.0126
3574.00,0.0129
3571.00,0.0131
3568.00,0.0135
3565.00,0.0140
3562.00,0.0142
3559.00,0.0145
3556.00,0.0148
3553.00,0.0152
3550.00,0.0156
3547.00,0.0158
3544.00,0.0162
3541.00,0.0164
3538.00,0.0167
3535.00,0.0170
3532.00,0.0173
3529.00,0.0175
3526.00,0.0178
3523.00,0.0181
3520.00,0.0183
3517.00,0.0185
3514.00,0.0187
3511.00,0.0189
3508.00,0.0191
3505.00,0.0194
3502.00,0.0196
3499.00,0.0198
3496.00,0.0201
3493.00,0.0203
3490.00,0.0206
3487.00,0.0208
3484.00,0.0211
3481.00,0.0215
3478.00,0.0217
3475.00,0.0221
3472.00,0.0224
3469.00,0.0227
3466.00,0.0230
3463.00,0.0234
3460.00,0.0237
3457.00,0.0240
3454.00,0.0244
3451.00,0.0247
3448.00,0.0251
3445.00,0.0255
3442.00,0.0259
3439.00,0.0263
3436.00,0.0267
3433.00,0.0272
3430.00,0.0277
3427.00,0.0282
3424.00,0.0288
3421.00,0.0293
3418.00,0.0299
3415.00,0.0304
3412.00,0.0308
3409.00,0.0311
3406.00,0.0314
3403.00,0.0316
3400.00,0.0315
3397.00,0.0314
3394.00,0.0312
3391.00,0.0310
3388.00,0.0306
3385.00,0.0302
3382.00,0.0298
3379.00,0.0294
3376.00,0.0290
3373.00,0.0286
3370.00,0.0280
3367.00,0.0276
3364.00,0.0274
3361.00,0.0271
3358.00,0.0268
3355.00,0.0266
3352.00,0.0261
3349.00,0.0260
3346.00,0.0258
3343.00,0.0256
3340.00,0.0253
3337.00,0.0253
3334.00,0.0254
3331.00,0.0253
3328.00,0.0252
3325.00,0.0251
3322.00,0.0253
3319.00,0.0254
3316.00,0.0254
3313.00,0.0254
3310.00,0.0252
3307.00,0.0251
3304.00,0.0254
3301.00,0.0258
3298.00,0.0258
3295.00,0.0258
3292.00,0.0260
3289.00,0.0264
3286.00,0.0266
3283.00,0.0267
3280.00,0.0268
3277.00,0.0268
3274.00,0.0268
3271.00,0.0268
3268.00,0.0271
3265.00,0.0273
3262.00,0.0274
3259.00,0.0274
3256.00,0.0274
3253.00,0.0277
3250.00,0.0277
3247.00,0.0276
3244.00,0.0277
3241.00,0.0277
3238.00,0.0276
3235.00,0.0273
3232.00,0.0272
3229.00,0.0272
3226.00,0.0270
3223.00,0.0268
3220.00,0.0265
3217.00,0.0262
3214.00,0.0259
3211.00,0.0255
3208.00,0.0250
3205.00,0.0246
3202.00,0.0242
3199.00,0.0238
3196.00,0.0233
3193.00,0.0228
3190.00,0.0224
3187.00,0.0219
3184.00,0.0215
3181.00,0.0211
3178.00,0.0208
3175.00,0.0204
3172.00,0.0199
3169.00,0.0195
3166.00,0.0191
3163.00,0.0187
3160.00,0.0183
3157.00,0.0178
3154.00,0.0173
3151.00,0.0170
3148.00,0.0167
3145.00,0.0164
3142.00,0.0160
3139.00,0.0157
3136.00,0.0155
3133.00,0.0152
3130.00,0.0150
3127.00,0.0148
3124.00,0.0146
3121.00,0.0143
3118.00,0.0141
3115.00,0.0139
3112.00,0.0137
3109.00,0.0134
3106.00,0.0132
3103.00,0.0130
3100.00,0.0129
3097.00,0.0128
3094.00,0.0127
3091.00,0.0127
3088.00,0.0127
3085.00,0.0126
3082.00,0.0126
3079.00,0.0125
3076.00,0.0124
3073.00,0.0123
3070.00,0.0121
3067.00,0.0121
3064.00,0.0121
3061.00,0.0120
3058.00,0.0121
3055.00,0.0121
3052.00,0.0120
3049.00,0.0120
3046.00,0.0119
3043.00,0.0120
3040.00,0.0120
3037.00,0.0123
3034.00,0.0125
3031.00,0.0125
3028.00,0.0123
3025.00,0.0121
3022.00,0.0119
3019.00,0.0117
3016.00,0.0118
3013.00,0.0120
3010.00,0.0123
3007.00,0.0129
3004.00,0.0137
3001.00,0.0146
2998.00,0.0159
2995.00,0.0174
2992.00,0.0188
2989.00,0.0200
2986.00,0.0212
2983.00,0.0230
2980.00,0.0253
2977.00,0.0264
2974.00,0.0276
2971.00,0.0302
2968.00,0.0320
2965.00,0.0333
2962.00,0.0349
2959.00,0.0356
2956.00,0.0345
2953.00,0.0325
2950.00,0.0311
2947.00,0.0307
2944.00,0.0314
2941.00,0.0330
2938.00,0.0354
2935.00,0.0392
2932.00,0.0438
2929.00,0.0476
2926.00,0.0485
2923.00,0.0464
2920.00,0.0431
2917.00,0.0395
2914.00,0.0362
2911.00,0.0338
2908.00,0.0317
2905.00,0.0300
2902.00,0.0288
2899.00,0.0277
2896.00,0.0268
2893.00,0.0262
2890.00,0.0257
2887.00,0.0252
2884.00,0.0250
2881.00,0.0251
2878.00,0.0260
2875.00,0.0272
2872.00,0.0280
2869.00,0.0276
2866.00,0.0275
2863.00,0.0291
2860.00,0.0320
2857.00,0.0343
2854.00,0.0341
2851.00,0.0318
2848.00,0.0276
2845.00,0.0237
2842.00,0.0208
2839.00,0.0187
2836.00,0.0174
2833.00,0.0164
2830.00,0.0156
2827.00,0.0148
2824.00,0.0142
2821.00,0.0137
2818.00,0.0132
2815.00,0.0129
2812.00,0.0125
2809.00,0.0123
2806.00,0.0122
2803.00,0.0120
2800.00,0.0118
2797.00,0.0116
2794.00,0.0115
2791.00,0.0113
2788.00,0.0112
2785.00,0.0111
2782.00,0.0110
2779.00,0.0109
2776.00,0.0108
2773.00,0.0107
2770.00,0.0106
2767.00,0.0106
2764.00,0.0105
2761.00,0.0105
2758.00,0.0105
2755.00,0.0106
2752.00,0.0105
2749.00,0.0105
2746.00,0.0106
2743.00,0.0106
2740.00,0.0106
2737.00,0.0107
2734.00,0.0109
2731.00,0.0110
2728.00,0.0110
2725.00,0.0109
2722.00,0.0107
2719.00,0.0107
2716.00,0.0105
2713.00,0.0105
2710.00,0.0104
2707.00,0.0105
2704.00,0.0104
2701.00,0.0104
2698.00,0.0103
2695.00,0.0102
2692.00,0.0101
2689.00,0.0101
2686.00,0.0101
2683.00,0.0100
2680.00,0.0100
2677.00,0.0100
2674.00,0.0100
2671.00,0.0100
2668.00,0.0101
2665.00,0.0102
2662.00,0.0104
2659.00,0.0105
2656.00,0.0105
2653.00,0.0105
2650.00,0.0105
2647.00,0.0104
2644.00,0.0104
2641.00,0.0104
2638.00,0.0103
2635.00,0.0103
2632.00,0.0102
2629.00,0.0100
2626.00,0.0100
2623.00,0.0100
2620.00,0.0099
2617.00,0.0099
2614.00,0.0099
2611.00,0.0099
2608.00,0.0098
2605.00,0.0098
2602.00,0.0099
2599.00,0.0099
2596.00,0.0099
2593.00,0.0100
2590.00,0.0100
2587.00,0.0100
2584.00,0.0100
2581.00,0.0100
2578.00,0.0099
2575.00,0.0098
2572.00,0.0098
2569.00,0.0098
2566.00,0.0098
2563.00,0.0097
2560.00,0.0096
2557.00,0.0095
2554.00,0.0096
2551.00,0.0095
2548.00,0.0094
2545.00,0.0093
2542.00,0.0094
2539.00,0.0094
2536.00,0.0094
2533.00,0.0094
2530.00,0.0094
2527.00,0.0093
2524.00,0.0093
2521.00,0.0092
2518.00,0.0091
2515.00,0.0091
2512.00,0.0091
2509.00,0.0091
2506.00,0.0090
2503.00,0.0090
2500.00,0.0089
2497.00,0.0089
2494.00,0.0089
2491.00,0.0089
2488.00,0.0088
2485.00,0.0088
2482.00,0.0088
2479.00,0.0088
2476.00,0.0088
2473.00,0.0088
2470.00,0.0087
2467.00,0.0087
2464.00,0.0087
2461.00,0.0088
2458.00,0.0088
2455.00,0.0089
2452.00,0.0088
2449.00,0.0088
2446.00,0.0087
2443.00,0.0087
2440.00,0.0087
2437.00,0.0086
2434.00,0.0085
2431.00,0.0086
2428.00,0.0086
2425.00,0.0085
2422.00,0.0085
2419.00,0.0085
2416.00,0.0085
2413.00,0.0085
2410.00,0.0086
2407.00,0.0085
2404.00,0.0084
2401.00,0.0085
2398.00,0.0085
2395.00,0.0085
2392.00,0.0084
2389.00,0.0084
2386.00,0.0083
2383.00,0.0082
2380.00,0.0081
2377.00,0.0080
2374.00,0.0081
2371.00,0.0081
2368.00,0.0081
2365.00,0.0081
2362.00,0.0081
2359.00,0.0082
2356.00,0.0082
2353.00,0.0081
2350.00,0.0082
2347.00,0.0084
2344.00,0.0084
2341.00,0.0085
2338.00,0.0086
2335.00,0.0086
2332.00,0.0085
2329.00,0.0088
2326.00,0.0097
2323.00,0.0094
2320.00,0.0091
2317.00,0.0089
2314.00,0.0088
2311.00,0.0088
2308.00,0.0088
2305.00,0.0088
2302.00,0.0089
2299.00,0.0090
2296.00,0.0091
2293.00,0.0093
2290.00,0.0095
2287.00,0.0095
2284.00,0.0094
2281.00,0.0092
2278.00,0.0091
2275.00,0.0090
2272.00,0.0089
2269.00,0.0088
2266.00,0.0086
2263.00,0.0085
2260.00,0.0085
2257.00,0.0083
2254.00,0.0082
2251.00,0.0083
2248.00,0.0085
2245.00,0.0085
2242.00,0.0085
2239.00,0.0085
2236.00,0.0086
2233.00,0.0086
2230.00,0.0085
2227.00,0.0085
2224.00,0.0086
2221.00,0.0085
2218.00,0.0084
2215.00,0.0086
2212.00,0.0086
2209.00,0.0085
2206.00,0.0084
2203.00,0.0085
2200.00,0.0086
2197.00,0.0085
2194.00,0.0086
2191.00,0.0086
2188.00,0.0087
2185.00,0.0086
2182.00,0.0080
2179.00,0.0083
2176.00,0.0082
2173.00,0.0084
2170.00,0.0090
2167.00,0.0093
2164.00,0.0097
2161.00,0.0082
2158.00,0.0053
2155.00,0.0060
2152.00,0.0069
2149.00,0.0073
2146.00,0.0071
2143.00,0.0069
2140.00,0.0070
2137.00,0.0069
2134.00,0.0066
2131.00,0.0069
2128.00,0.0074
2125.00,0.0077
2122.00,0.0078
2119.00,0.0080
2116.00,0.0083
2113.00,0.0082
2110.00,0.0080
2107.00,0.0080
2104.00,0.0081
2101.00,0.0081
2098.00,0.0078
2095.00,0.0075
2092.00,0.0079
2089.00,0.0080
2086.00,0.0080
2083.00,0.0081
2080.00,0.0082
2077.00,0.0082
2074.00,0.0081
2071.00,0.0080
2068.00,0.0079
2065.00,0.0079
2062.00,0.0077
2059.00,0.0076
2056.00,0.0076
2053.00,0.0082
2050.00,0.0081
2047.00,0.0075
2044.00,0.0076
2041.00,0.0077
2038.00,0.0077
2035.00,0.0072
2032.00,0.0071
2029.00,0.0070
2026.00,0.0068
2023.00,0.0070
2020.00,0.0070
2017.00,0.0068
2014.00,0.0065
2011.00,0.0066
2008.00,0.0063
2005.00,0.0060
2002.00,0.0066
1999.00,0.0070
1996.00,0.0071
1993.00,0.0074
1990.00,0.0073
1987.00,0.0074
1984.00,0.0077
1981.00,0.0079
1978.00,0.0068
1975.00,0.0064
1972.00,0.0063
1969.00,0.0064
1966.00,0.0066
1963.00,0.0063
1960.00,0.0061
1957.00,0.0064
1954.00,0.0068
1951.00,0.0067
1948.00,0.0069
1945.00,0.0070
1942.00,0.0070
1939.00,0.0068
1936.00,0.0068
1933.00,0.0069
1930.00,0.0070
1927.00,0.0070
1924.00,0.0072
1921.00,0.0072
1918.00,0.0071
1915.00,0.0072
1912.00,0.0076
1909.00,0.0080
1906.00,0.0078
1903.00,0.0075
1900.00,0.0076
1897.00,0.0076
1894.00,0.0076
1891.00,0.0075
1888.00,0.0073
1885.00,0.0074
1882.00,0.0073
1879.00,0.0073
1876.00,0.0073
1873.00,0.0073
1870.00,0.0074
1867.00,0.0074
1864.00,0.0074
1861.00,0.0074
1858.00,0.0074
1855.00,0.0074
1852.00,0.0074
1849.00,0.0077
1846.00,0.0078
1843.00,0.0075
1840.00,0.0075
1837.00,0.0076
1834.00,0.0075
1831.00,0.0075
1828.00,0.0074
1825.00,0.0075
1822.00,0.0074
1819.00,0.0073
1816.00,0.0072
1813.00,0.0074
1810.00,0.0075
1807.00,0.0076
1804.00,0.0076
1801.00,0.0077
1798.00,0.0077
1795.00,0.0079
1792.00,0.0077
1789.00,0.0076
1786.00,0.0078
1783.00,0.0078
1780.00,0.0080
1777.00,0.0080
1774.00,0.0081
1771.00,0.0080
1768.00,0.0081
1765.00,0.0081
1762.00,0.0082
1759.00,0.0083
1756.00,0.0083
1753.00,0.0084
1750.00,0.0086
1747.00,0.0088
1744.00,0.0090
1741.00,0.0088
1738.00,0.0088
1735.00,0.0091
1732.00,0.0095
1729.00,0.0102
1726.00,0.0107
1723.00,0.0113
1720.00,0.0115
1717.00,0.0122
1714.00,0.0130
1711.00,0.0144
1708.00,0.0158
1705.00,0.0178
1702.00,0.0194
1699.00,0.0235
1696.00,0.0287
1693.00,0.0342
1690.00,0.0404
1687.00,0.0460
1684.00,0.0546
1681.00,0.0620
1678.00,0.0675
1675.00,0.0743
1672.00,0.0801
1669.00,0.0870
1666.00,0.0920
1663.00,0.0967
1660.00,0.1017
1657.00,0.1035
1654.00,0.1046
1651.00,0.1094
1648.00,0.1068
1645.00,0.1059
1642.00,0.1014
1639.00,0.0954
1636.00,0.0889
1633.00,0.0843
1630.00,0.0819
1627.00,0.0850
1624.00,0.0879
1621.00,0.0870
1618.00,0.0792
1615.00,0.0696
1612.00,0.0660
1609.00,0.0622
1606.00,0.0546
1603.00,0.0469
1600.00,0.0411
1597.00,0.0376
1594.00,0.0367
1591.00,0.0393
1588.00,0.0447
1585.00,0.0486
1582.00,0.0480
1579.00,0.0442
1576.00,0.0390
1573.00,0.0348
1570.00,0.0324
1567.00,0.0303
1564.00,0.0273
1561.00,0.0238
1558.00,0.0210
1555.00,0.0205
1552.00,0.0200
1549.00,0.0195
1546.00,0.0189
1543.00,0.0181
1540.00,0.0175
1537.00,0.0172
1534.00,0.0172
1531.00,0.0169
1528.00,0.0170
1525.00,0.0169
1522.00,0.0171
1519.00,0.0176
1516.00,0.0190
1513.00,0.0202
1510.00,0.0214
1507.00,0.0229
1504.00,0.0251
1501.00,0.0295
1498.00,0.0374
1495.00,0.0431
1492.00,0.0397
1489.00,0.0337
1486.00,0.0281
1483.00,0.0246
1480.00,0.0229
1477.00,0.0231
1474.00,0.0254
1471.00,0.0330
1468.00,0.0439
1465.00,0.0546
1462.00,0.0596
1459.00,0.0590
1456.00,0.0532
1453.00,0.0484
1450.00,0.0477
1447.00,0.0522
1444.00,0.0596
1441.00,0.0675
1438.00,0.0724
1435.00,0.0773
1432.00,0.0796
1429.00,0.0827
1426.00,0.0864
1423.00,0.0896
1420.00,0.0864
1417.00,0.0768
1414.00,0.0653
1411.00,0.0569
1408.00,0.0536
1405.00,0.0550
1402.00,0.0571
1399.00,0.0559
1396.00,0.0504
1393.00,0.0438
1390.00,0.0409
1387.00,0.0434
1384.00,0.0434
1381.00,0.0440
1378.00,0.0456
1375.00,0.0444
1372.00,0.0418
1369.00,0.0424
1366.00,0.0454
1363.00,0.0462
1360.00,0.0481
1357.00,0.0435
1354.00,0.0388
1351.00,0.0370
1348.00,0.0368
1345.00,0.0360
1342.00,0.0340
1339.00,0.0320
1336.00,0.0311
1333.00,0.0326
1330.00,0.0348
1327.00,0.0367
1324.00,0.0386
1321.00,0.0409
1318.00,0.0421
1315.00,0.0410
1312.00,0.0392
1309.00,0.0389
1306.00,0.0416
1303.00,0.0482
1300.00,0.0556
1297.00,0.0625
1294.00,0.0731
1291.00,0.0834
1288.00,0.0911
1285.00,0.0953
1282.00,0.0935
1279.00,0.0880
1276.00,0.0848
1273.00,0.0841
1270.00,0.0821
1267.00,0.0770
1264.00,0.0700
1261.00,0.0626
1258.00,0.0562
1255.00,0.0515
1252.00,0.0487
1249.00,0.0482
1246.00,0.0499
1243.00,0.0521
1240.00,0.0538
1237.00,0.0576
1234.00,0.0616
1231.00,0.0611
1228.00,0.0574
1225.00,0.0542
1222.00,0.0525
1219.00,0.0526
1216.00,0.0538
1213.00,0.0529
1210.00,0.0487
1207.00,0.0446
1204.00,0.0434
1201.00,0.0457
1198.00,0.0504
1195.00,0.0545
1192.00,0.0528
1189.00,0.0470
1186.00,0.0414
1183.00,0.0377
1180.00,0.0362
1177.00,0.0359
1174.00,0.0363
1171.00,0.0369
1168.00,0.0370
1165.00,0.0369
1162.00,0.0378
1159.00,0.0423
1156.00,0.0504
1153.00,0.0500
1150.00,0.0398
1147.00,0.0328
1144.00,0.0303
1141.00,0.0293
1138.00,0.0298
1135.00,0.0333
1132.00,0.0428
1129.00,0.0522
1126.00,0.0510
1123.00,0.0437
1120.00,0.0369
1117.00,0.0341
1114.00,0.0335
1111.00,0.0325
1108.00,0.0315
1105.00,0.0328
1102.00,0.0380
1099.00,0.0415
1096.00,0.0374
1093.00,0.0320
1090.00,0.0293
1087.00,0.0283
1084.00,0.0281
1081.00,0.0284
1078.00,0.0291
1075.00,0.0299
1072.00,0.0306
1069.00,0.0317
1066.00,0.0331
1063.00,0.0361
1060.00,0.0431
1057.00,0.0550
1054.00,0.0646
1051.00,0.0666
1048.00,0.0642
1045.00,0.0558
1042.00,0.0463
1039.00,0.0407
1036.00,0.0401
1033.00,0.0421
1030.00,0.0496
1027.00,0.0594
1024.00,0.0558
1021.00,0.0463
1018.00,0.0404
1015.00,0.0363
1012.00,0.0333
1009.00,0.0332
1006.00,0.0368
1003.00,0.0399
1000.00,0.0389
997.00,0.0364
994.00,0.0344
991.00,0.0320
988.00,0.0294
985.00,0.0277
982.00,0.0265
979.00,0.0258
976.00,0.0256
973.00,0.0252
970.00,0.0248
967.00,0.0244
964.00,0.0247
961.00,0.0248
958.00,0.0232
955.00,0.0221
952.00,0.0216
949.00,0.0220
946.00,0.0222
943.00,0.0226
940.00,0.0244
937.00,0.0264
934.00,0.0279
931.00,0.0278
928.00,0.0265
925.00,0.0266
922.00,0.0277
919.00,0.0264
916.00,0.0239
913.00,0.0226
910.00,0.0222
907.00,0.0226
904.00,0.0241
901.00,0.0276
898.00,0.0295
895.00,0.0278
892.00,0.0283
889.00,0.0292
886.00,0.0255
883.00,0.0243
880.00,0.0249
877.00,0.0282
874.00,0.0352
871.00,0.0432
868.00,0.0437
865.00,0.0388
862.00,0.0345
859.00,0.0325
856.00,0.0354
853.00,0.0408
850.00,0.0460
847.00,0.0466
844.00,0.0431
841.00,0.0410
838.00,0.0422
835.00,0.0463
832.00,0.0465
829.00,0.0410
826.00,0.0348
823.00,0.0376
820.00,0.0483
817.00,0.0518
814.00,0.0491
811.00,0.0360
808.00,0.0306
805.00,0.0284
802.00,0.0276
799.00,0.0271
796.00,0.0270
793.00,0.0272
790.00,0.0273
787.00,0.0275
784.00,0.0278
781.00,0.0281
778.00,0.0290
775.00,0.0316
772.00,0.0316
769.00,0.0308
766.00,0.0313
763.00,0.0326
760.00,0.0345
757.00,0.0356
754.00,0.0363
751.00,0.0374
748.00,0.0388
745.00,0.0403
742.00,0.0425
739.00,0.0462
736.00,0.0531
733.00,0.0550
730.00,0.0532
727.00,0.0514
724.00,0.0465
721.00,0.0438
718.00,0.0441
715.00,0.0458
712.00,0.0453
709.00,0.0442
706.00,0.0441
703.00,0.0451
700.00,0.0468
697.00,0.0480
694.00,0.0478
691.00,0.0489
688.00,0.0518
685.00,0.0521
682.00,0.0519
679.00,0.0530
676.00,0.0555
673.00,0.0589
670.00,0.0608
667.00,0.0623
664.00,0.0639
661.00,0.0666
658.00,0.0675
655.00,0.0682
652.00,0.0698
649.00,0.0713
646.00,0.0717
643.00,0.0709
640.00,0.0694
637.00,0.0683
634.00,0.0671
631.00,0.0664
628.00,0.0660
625.00,0.0663
622.00,0.0677
619.00,0.0682
616.00,0.0666
613.00,0.0650
610.00,0.0650
607.00,0.0682
604.00,0.0724
601.00,0.0743
598.00,0.0747
595.00,0.0750
592.00,0.0755
589.00,0.0760
586.00,0.0770
583.00,0.0793
580.00,0.0827
577.00,0.0873
574.00,0.0878
571.00,0.0851
568.00,0.0834
565.00,0.0833
562.00,0.0845
559.00,0.0852
556.00,0.0827
553.00,0.0803
550.00,0.0808
547.00,0.0830
544.00,0.0827
541.00,0.0802
538.00,0.0782
535.00,0.0782
532.00,0.0804
529.00,0.0805
526.00,0.0779
523.00,0.0754
520.00,0.0744
517.00,0.0740
514.00,0.0733
511.00,0.0725
508.00,0.0733
505.00,0.0738
502.00,0.0734
499.00,0.0726
496.00,0.0728
493.00,0.0737
490.00,0.0738
487.00,0.0731
484.00,0.0730
481.00,0.0731
478.00,0.0729
475.00,0.0733
472.00,0.0737
469.00,0.0727
466.00,0.0724
463.00,0.0712
460.00,0.0710
457.00,0.0718
454.00,0.0714
451.00,0.0707
448.00,0.0701
445.00,0.0698
442.00,0.0693
439.00,0.0690
436.00,0.0681
433.00,0.0688
430.00,0.0681
427.00,0.0673
424.00,0.0663
421.00,0.0672
418.00,0.0673
415.00,0.0651
412.00,0.0661
409.00,0.0692
406.00,0.0654
403.00,0.0647
400.00,0.0660