File: FTIR/Olivia/2025_06_12_Polystyrene_Std_scan2.csv
Created as New Dataset,Sample 672 By YargerLab Date Thursday, June 12 2025
cm-1,A
4000.00,0.0027
3997.00,0.0027
3994.00,0.0027
3991.00,0.0026
3988.00,0.0025
3985.00,0.0025
3982.00,0.0025
3979.00,0.0026
3976.00,0.0026
3973.00,0.0026
3970.00,0.0025
3967.00,0.0025
3964.00,0.0025
3961.00,0.0026
3958.00,0.0026
3955.00,0.0026
3952.00,0.0026
3949.00,0.0025
3946.00,0.0025
3943.00,0.0026
3940.00,0.0026
3937.00,0.0026
3934.00,0.0025
3931.00,0.0026
3928.00,0.0026
3925.00,0.0026
3922.00,0.0026
3919.00,0.0027
3916.00,0.0026
3913.00,0.0026
3910.00,0.0025
3907.00,0.0026
3904.00,0.0027
3901.00,0.0027
3898.00,0.0027
3895.00,0.0026
3892.00,0.0026
3889.00,0.0027
3886.00,0.0027
3883.00,0.0027
3880.00,0.0027
3877.00,0.0026
3874.00,0.0027
3871.00,0.0027
3868.00,0.0027
3865.00,0.0027
3862.00,0.0027
3859.00,0.0026
3856.00,0.0028
3853.00,0.0029
3850.00,0.0029
3847.00,0.0026
3844.00,0.0026
3841.00,0.0027
3838.00,0.0029
3835.00,0.0028
3832.00,0.0027
3829.00,0.0027
3826.00,0.0027
3823.00,0.0027
3820.00,0.0028
3817.00,0.0028
3814.00,0.0027
3811.00,0.0027
3808.00,0.0027
3805.00,0.0028
3802.00,0.0028
3799.00,0.0028
3796.00,0.0028
3793.00,0.0026
3790.00,0.0025
3787.00,0.0025
3784.00,0.0026
3781.00,0.0026
3778.00,0.0026
3775.00,0.0026
3772.00,0.0026
3769.00,0.0026
3766.00,0.0026
3763.00,0.0026
3760.00,0.0026
3757.00,0.0027
3754.00,0.0028
3751.00,0.0029
3748.00,0.0030
3745.00,0.0031
3742.00,0.0030
3739.00,0.0028
3736.00,0.0028
3733.00,0.0028
3730.00,0.0027
3727.00,0.0027
3724.00,0.0026
3721.00,0.0026
3718.00,0.0025
3715.00,0.0026
3712.00,0.0026
3709.00,0.0027
3706.00,0.0026
3703.00,0.0025
3700.00,0.0025
3697.00,0.0025
3694.00,0.0025
3691.00,0.0025
3688.00,0.0025
3685.00,0.0024
3682.00,0.0022
3679.00,0.0022
3676.00,0.0022
3673.00,0.0022
3670.00,0.0021
3667.00,0.0019
3664.00,0.0018
3661.00,0.0017
3658.00,0.0017
3655.00,0.0018
3652.00,0.0020
3649.00,0.0022
3646.00,0.0022
3643.00,0.0020
3640.00,0.0020
3637.00,0.0019
3634.00,0.0021
3631.00,0.0025
3628.00,0.0026
3625.00,0.0026
3622.00,0.0026
3619.00,0.0026
3616.00,0.0027
3613.00,0.0027
3610.00,0.0027
3607.00,0.0027
3604.00,0.0027
3601.00,0.0027
3598.00,0.0027
3595.00,0.0028
3592.00,0.0029
3589.00,0.0029
3586.00,0.0029
3583.00,0.0029
3580.00,0.0029
3577.00,0.0028
3574.00,0.0028
3571.00,0.0028
3568.00,0.0028
3565.00,0.0028
3562.00,0.0027
3559.00,0.0027
3556.00,0.0027
3553.00,0.0027
3550.00,0.0027
3547.00,0.0027
3544.00,0.0028
3541.00,0.0028
3538.00,0.0027
3535.00,0.0027
3532.00,0.0028
3529.00,0.0028
3526.00,0.0029
3523.00,0.0029
3520.00,0.0028
3517.00,0.0029
3514.00,0.0029
3511.00,0.0029
3508.00,0.0030
3505.00,0.0030
3502.00,0.0030
3499.00,0.0030
3496.00,0.0030
3493.00,0.0030
3490.00,0.0031
3487.00,0.0031
3484.00,0.0031
3481.00,0.0031
3478.00,0.0031
3475.00,0.0032
3472.00,0.0032
3469.00,0.0032
3466.00,0.0032
3463.00,0.0032
3460.00,0.0032
3457.00,0.0032
3454.00,0.0032
3451.00,0.0033
3448.00,0.0033
3445.00,0.0033
3442.00,0.0033
3439.00,0.0033
3436.00,0.0033
3433.00,0.0033
3430.00,0.0033
3427.00,0.0032
3424.00,0.0032
3421.00,0.0032
3418.00,0.0032
3415.00,0.0033
3412.00,0.0033
3409.00,0.0033
3406.00,0.0033
3403.00,0.0032
3400.00,0.0033
3397.00,0.0033
3394.00,0.0033
3391.00,0.0033
3388.00,0.0033
3385.00,0.0033
3382.00,0.0033
3379.00,0.0033
3376.00,0.0033
3373.00,0.0032
3370.00,0.0033
3367.00,0.0033
3364.00,0.0032
3361.00,0.0032
3358.00,0.0032
3355.00,0.0032
3352.00,0.0032
3349.00,0.0032
3346.00,0.0032
3343.00,0.0032
3340.00,0.0032
3337.00,0.0032
3334.00,0.0032
3331.00,0.0031
3328.00,0.0032
3325.00,0.0032
3322.00,0.0031
3319.00,0.0032
3316.00,0.0031
3313.00,0.0031
3310.00,0.0031
3307.00,0.0032
3304.00,0.0031
3301.00,0.0031
3298.00,0.0031
3295.00,0.0031
3292.00,0.0031
3289.00,0.0031
3286.00,0.0031
3283.00,0.0030
3280.00,0.0030
3277.00,0.0031
3274.00,0.0031
3271.00,0.0030
3268.00,0.0029
3265.00,0.0029
3262.00,0.0029
3259.00,0.0030
3256.00,0.0030
3253.00,0.0029
3250.00,0.0029
3247.00,0.0029
3244.00,0.0029
3241.00,0.0029
3238.00,0.0028
3235.00,0.0028
3232.00,0.0029
3229.00,0.0028
3226.00,0.0028
3223.00,0.0028
3220.00,0.0028
3217.00,0.0028
3214.00,0.0028
3211.00,0.0029
3208.00,0.0029
3205.00,0.0028
3202.00,0.0029
3199.00,0.0029
3196.00,0.0028
3193.00,0.0028
3190.00,0.0028
3187.00,0.0028
3184.00,0.0027
3181.00,0.0027
3178.00,0.0027
3175.00,0.0027
3172.00,0.0028
3169.00,0.0028
3166.00,0.0029
3163.00,0.0030
3160.00,0.0029
3157.00,0.0029
3154.00,0.0027
3151.00,0.0026
3148.00,0.0026
3145.00,0.0027
3142.00,0.0027
3139.00,0.0027
3136.00,0.0027
3133.00,0.0027
3130.00,0.0027
3127.00,0.0028
3124.00,0.0028
3121.00,0.0030
3118.00,0.0032
3115.00,0.0035
3112.00,0.0041
3109.00,0.0050
3106.00,0.0059
3103.00,0.0063
3100.00,0.0061
3097.00,0.0059
3094.00,0.0063
3091.00,0.0078
3088.00,0.0104
3085.00,0.0135
3082.00,0.0146
3079.00,0.0131
3076.00,0.0113
3073.00,0.0109
3070.00,0.0118
3067.00,0.0142
3064.00,0.0174
3061.00,0.0198
3058.00,0.0192
3055.00,0.0163
3052.00,0.0133
3049.00,0.0113
3046.00,0.0104
3043.00,0.0108
3040.00,0.0123
3037.00,0.0152
3034.00,0.0203
3031.00,0.0278
3028.00,0.0355
3025.00,0.0380
3022.00,0.0321
3019.00,0.0226
3016.00,0.0152
3013.00,0.0110
3010.00,0.0090
3007.00,0.0085
3004.00,0.0087
3001.00,0.0083
2998.00,0.0062
2995.00,0.0039
2992.00,0.0024
2989.00,0.0017
2986.00,0.0010
2983.00,-0.0007
2980.00,-0.0009
2977.00,0.0008
2974.00,0.0016
2971.00,0.0019
2968.00,0.0031
2965.00,0.0041
2962.00,0.0050
2959.00,0.0060
2956.00,0.0072
2953.00,0.0088
2950.00,0.0109
2947.00,0.0135
2944.00,0.0168
2941.00,0.0205
2938.00,0.0247
2935.00,0.0295
2932.00,0.0344
2929.00,0.0390
2926.00,0.0424
2923.00,0.0441
2920.00,0.0438
2917.00,0.0422
2914.00,0.0395
2911.00,0.0361
2908.00,0.0327
2905.00,0.0291
2902.00,0.0256
2899.00,0.0222
2896.00,0.0193
2893.00,0.0171
2890.00,0.0154
2887.00,0.0141
2884.00,0.0131
2881.00,0.0123
2878.00,0.0117
2875.00,0.0111
2872.00,0.0106
2869.00,0.0105
2866.00,0.0109
2863.00,0.0120
2860.00,0.0138
2857.00,0.0159
2854.00,0.0180
2851.00,0.0195
2848.00,0.0196
2845.00,0.0180
2842.00,0.0151
2839.00,0.0117
2836.00,0.0089
2833.00,0.0071
2830.00,0.0061
2827.00,0.0056
2824.00,0.0053
2821.00,0.0050
2818.00,0.0049
2815.00,0.0048
2812.00,0.0047
2809.00,0.0046
2806.00,0.0046
2803.00,0.0044
2800.00,0.0043
2797.00,0.0042
2794.00,0.0041
2791.00,0.0040
2788.00,0.0040
2785.00,0.0039
2782.00,0.0039
2779.00,0.0039
2776.00,0.0038
2773.00,0.0038
2770.00,0.0037
2767.00,0.0037
2764.00,0.0036
2761.00,0.0036
2758.00,0.0036
2755.00,0.0035
2752.00,0.0035
2749.00,0.0035
2746.00,0.0035
2743.00,0.0035
2740.00,0.0035
2737.00,0.0035
2734.00,0.0035
2731.00,0.0035
2728.00,0.0035
2725.00,0.0035
2722.00,0.0035
2719.00,0.0035
2716.00,0.0035
2713.00,0.0035
2710.00,0.0035
2707.00,0.0035
2704.00,0.0035
2701.00,0.0035
2698.00,0.0035
2695.00,0.0035
2692.00,0.0035
2689.00,0.0035
2686.00,0.0035
2683.00,0.0034
2680.00,0.0035
2677.00,0.0034
2674.00,0.0034
2671.00,0.0034
2668.00,0.0034
2665.00,0.0036
2662.00,0.0038
2659.00,0.0039
2656.00,0.0040
2653.00,0.0040
2650.00,0.0040
2647.00,0.0040
2644.00,0.0040
2641.00,0.0040
2638.00,0.0040
2635.00,0.0040
2632.00,0.0041
2629.00,0.0040
2626.00,0.0039
2623.00,0.0038
2620.00,0.0037
2617.00,0.0037
2614.00,0.0037
2611.00,0.0037
2608.00,0.0037
2605.00,0.0038
2602.00,0.0038
2599.00,0.0037
2596.00,0.0035
2593.00,0.0034
2590.00,0.0034
2587.00,0.0034
2584.00,0.0035
2581.00,0.0034
2578.00,0.0034
2575.00,0.0033
2572.00,0.0032
2569.00,0.0032
2566.00,0.0032
2563.00,0.0031
2560.00,0.0031
2557.00,0.0031
2554.00,0.0031
2551.00,0.0031
2548.00,0.0031
2545.00,0.0031
2542.00,0.0030
2539.00,0.0030
2536.00,0.0029
2533.00,0.0030
2530.00,0.0029
2527.00,0.0030
2524.00,0.0030
2521.00,0.0030
2518.00,0.0030
2515.00,0.0030
2512.00,0.0029
2509.00,0.0030
2506.00,0.0029
2503.00,0.0029
2500.00,0.0029
2497.00,0.0028
2494.00,0.0028
2491.00,0.0028
2488.00,0.0028
2485.00,0.0028
2482.00,0.0028
2479.00,0.0027
2476.00,0.0027
2473.00,0.0027
2470.00,0.0027
2467.00,0.0027
2464.00,0.0026
2461.00,0.0026
2458.00,0.0027
2455.00,0.0027
2452.00,0.0027
2449.00,0.0027
2446.00,0.0026
2443.00,0.0026
2440.00,0.0026
2437.00,0.0025
2434.00,0.0024
2431.00,0.0024
2428.00,0.0024
2425.00,0.0024
2422.00,0.0023
2419.00,0.0022
2416.00,0.0023
2413.00,0.0023
2410.00,0.0023
2407.00,0.0021
2404.00,0.0021
2401.00,0.0022
2398.00,0.0022
2395.00,0.0021
2392.00,0.0021
2389.00,0.0021
2386.00,0.0021
2383.00,0.0021
2380.00,0.0022
2377.00,0.0023
2374.00,0.0023
2371.00,0.0022
2368.00,0.0022
2365.00,0.0024
2362.00,0.0026
2359.00,0.0026
2356.00,0.0027
2353.00,0.0027
2350.00,0.0028
2347.00,0.0030
2344.00,0.0035
2341.00,0.0033
2338.00,0.0034
2335.00,0.0032
2332.00,0.0030
2329.00,0.0032
2326.00,0.0041
2323.00,0.0040
2320.00,0.0036
2317.00,0.0035
2314.00,0.0034
2311.00,0.0034
2308.00,0.0033
2305.00,0.0032
2302.00,0.0031
2299.00,0.0031
2296.00,0.0033
2293.00,0.0034
2290.00,0.0037
2287.00,0.0038
2284.00,0.0035
2281.00,0.0034
2278.00,0.0032
2275.00,0.0030
2272.00,0.0030
2269.00,0.0029
2266.00,0.0027
2263.00,0.0028
2260.00,0.0030
2257.00,0.0029
2254.00,0.0026
2251.00,0.0026
2248.00,0.0027
2245.00,0.0027
2242.00,0.0026
2239.00,0.0026
2236.00,0.0025
2233.00,0.0025
2230.00,0.0026
2227.00,0.0027
2224.00,0.0023
2221.00,0.0023
2218.00,0.0023
2215.00,0.0022
2212.00,0.0020
2209.00,0.0020
2206.00,0.0023
2203.00,0.0023
2200.00,0.0023
2197.00,0.0023
2194.00,0.0025
2191.00,0.0027
2188.00,0.0025
2185.00,0.0024
2182.00,0.0018
2179.00,0.0021
2176.00,0.0019
2173.00,0.0022
2170.00,0.0029
2167.00,0.0030
2164.00,0.0032
2161.00,0.0015
2158.00,-0.0017
2155.00,-0.0008
2152.00,-0.0003
2149.00,0.0001
2146.00,0.0001
2143.00,0.0000
2140.00,0.0001
2137.00,-0.0004
2134.00,-0.0007
2131.00,-0.0001
2128.00,0.0004
2125.00,0.0010
2122.00,0.0012
2119.00,0.0016
2116.00,0.0019
2113.00,0.0021
2110.00,0.0019
2107.00,0.0018
2104.00,0.0018
2101.00,0.0017
2098.00,0.0015
2095.00,0.0012
2092.00,0.0015
2089.00,0.0018
2086.00,0.0020
2083.00,0.0019
2080.00,0.0021
2077.00,0.0021
2074.00,0.0020
2071.00,0.0019
2068.00,0.0017
2065.00,0.0016
2062.00,0.0014
2059.00,0.0013
2056.00,0.0014
2053.00,0.0022
2050.00,0.0025
2047.00,0.0016
2044.00,0.0016
2041.00,0.0018
2038.00,0.0019
2035.00,0.0012
2032.00,0.0010
2029.00,0.0009
2026.00,0.0009
2023.00,0.0009
2020.00,0.0009
2017.00,0.0009
2014.00,0.0008
2011.00,0.0011
2008.00,0.0008
2005.00,0.0006
2002.00,0.0007
1999.00,0.0011
1996.00,0.0015
1993.00,0.0020
1990.00,0.0022
1987.00,0.0024
1984.00,0.0027
1981.00,0.0035
1978.00,0.0019
1975.00,0.0013
1972.00,0.0016
1969.00,0.0019
1966.00,0.0021
1963.00,0.0026
1960.00,0.0027
1957.00,0.0032
1954.00,0.0040
1951.00,0.0045
1948.00,0.0052
1945.00,0.0057
1942.00,0.0057
1939.00,0.0053
1936.00,0.0046
1933.00,0.0037
1930.00,0.0028
1927.00,0.0025
1924.00,0.0022
1921.00,0.0022
1918.00,0.0019
1915.00,0.0019
1912.00,0.0018
1909.00,0.0019
1906.00,0.0020
1903.00,0.0022
1900.00,0.0024
1897.00,0.0027
1894.00,0.0031
1891.00,0.0035
1888.00,0.0041
1885.00,0.0045
1882.00,0.0047
1879.00,0.0050
1876.00,0.0053
1873.00,0.0055
1870.00,0.0056
1867.00,0.0053
1864.00,0.0048
1861.00,0.0042
1858.00,0.0036
1855.00,0.0030
1852.00,0.0026
1849.00,0.0023
1846.00,0.0021
1843.00,0.0021
1840.00,0.0021
1837.00,0.0021
1834.00,0.0023
1831.00,0.0025
1828.00,0.0028
1825.00,0.0031
1822.00,0.0036
1819.00,0.0038
1816.00,0.0042
1813.00,0.0048
1810.00,0.0053
1807.00,0.0059
1804.00,0.0062
1801.00,0.0062
1798.00,0.0059
1795.00,0.0053
1792.00,0.0044
1789.00,0.0038
1786.00,0.0034
1783.00,0.0033
1780.00,0.0033
1777.00,0.0033
1774.00,0.0034
1771.00,0.0034
1768.00,0.0033
1765.00,0.0035
1762.00,0.0038
1759.00,0.0042
1756.00,0.0046
1753.00,0.0051
1750.00,0.0056
1747.00,0.0059
1744.00,0.0060
1741.00,0.0061
1738.00,0.0060
1735.00,0.0059
1732.00,0.0057
1729.00,0.0053
1726.00,0.0051
1723.00,0.0049
1720.00,0.0047
1717.00,0.0047
1714.00,0.0045
1711.00,0.0043
1708.00,0.0043
1705.00,0.0042
1702.00,0.0041
1699.00,0.0040
1696.00,0.0040
1693.00,0.0040
1690.00,0.0040
1687.00,0.0042
1684.00,0.0044
1681.00,0.0045
1678.00,0.0047
1675.00,0.0048
1672.00,0.0048
1669.00,0.0048
1666.00,0.0048
1663.00,0.0047
1660.00,0.0044
1657.00,0.0042
1654.00,0.0041
1651.00,0.0039
1648.00,0.0036
1645.00,0.0035
1642.00,0.0034
1639.00,0.0034
1636.00,0.0034
1633.00,0.0034
1630.00,0.0034
1627.00,0.0036
1624.00,0.0039
1621.00,0.0043
1618.00,0.0047
1615.00,0.0056
1612.00,0.0072
1609.00,0.0117
1606.00,0.0214
1603.00,0.0334
1600.00,0.0351
1597.00,0.0246
1594.00,0.0158
1591.00,0.0116
1588.00,0.0108
1585.00,0.0141
1582.00,0.0144
1579.00,0.0097
1576.00,0.0067
1573.00,0.0053
1570.00,0.0046
1567.00,0.0042
1564.00,0.0039
1561.00,0.0039
1558.00,0.0041
1555.00,0.0043
1552.00,0.0048
1549.00,0.0053
1546.00,0.0058
1543.00,0.0061
1540.00,0.0060
1537.00,0.0056
1534.00,0.0051
1531.00,0.0046
1528.00,0.0042
1525.00,0.0040
1522.00,0.0040
1519.00,0.0041
1516.00,0.0043
1513.00,0.0046
1510.00,0.0051
1507.00,0.0060
1504.00,0.0081
1501.00,0.0125
1498.00,0.0281
1495.00,0.0712
1492.00,0.0888
1489.00,0.0527
1486.00,0.0276
1483.00,0.0168
1480.00,0.0117
1477.00,0.0096
1474.00,0.0085
1471.00,0.0086
1468.00,0.0092
1465.00,0.0101
1462.00,0.0124
1459.00,0.0191
1456.00,0.0528
1453.00,0.0883
1450.00,0.0851
1447.00,0.0641
1444.00,0.0497
1441.00,0.0379
1438.00,0.0293
1435.00,0.0209
1432.00,0.0155
1429.00,0.0118
1426.00,0.0098
1423.00,0.0087
1420.00,0.0080
1417.00,0.0076
1414.00,0.0072
1411.00,0.0069
1408.00,0.0067
1405.00,0.0064
1402.00,0.0061
1399.00,0.0058
1396.00,0.0060
1393.00,0.0070
1390.00,0.0085
1387.00,0.0105
1384.00,0.0124
1381.00,0.0142
1378.00,0.0161
1375.00,0.0178
1372.00,0.0185
1369.00,0.0185
1366.00,0.0181
1363.00,0.0176
1360.00,0.0169
1357.00,0.0161
1354.00,0.0157
1351.00,0.0156
1348.00,0.0155
1345.00,0.0149
1342.00,0.0140
1339.00,0.0135
1336.00,0.0138
1333.00,0.0149
1330.00,0.0159
1327.00,0.0160
1324.00,0.0153
1321.00,0.0148
1318.00,0.0150
1315.00,0.0155
1312.00,0.0159
1309.00,0.0155
1306.00,0.0147
1303.00,0.0138
1300.00,0.0130
1297.00,0.0125
1294.00,0.0123
1291.00,0.0119
1288.00,0.0115
1285.00,0.0112
1282.00,0.0111
1279.00,0.0106
1276.00,0.0098
1273.00,0.0089
1270.00,0.0081
1267.00,0.0076
1264.00,0.0072
1261.00,0.0070
1258.00,0.0070
1255.00,0.0070
1252.00,0.0069
1249.00,0.0072
1246.00,0.0073
1243.00,0.0073
1240.00,0.0072
1237.00,0.0071
1234.00,0.0072
1231.00,0.0073
1228.00,0.0076
1225.00,0.0079
1222.00,0.0080
1219.00,0.0081
1216.00,0.0084
1213.00,0.0087
1210.00,0.0093
1207.00,0.0100
1204.00,0.0110
1201.00,0.0120
1198.00,0.0127
1195.00,0.0130
1192.00,0.0131
1189.00,0.0134
1186.00,0.0147
1183.00,0.0171
1180.00,0.0171
1177.00,0.0135
1174.00,0.0104
1171.00,0.0092
1168.00,0.0088
1165.00,0.0092
1162.00,0.0102
1159.00,0.0128
1156.00,0.0163
1153.00,0.0159
1150.00,0.0115
1147.00,0.0083
1144.00,0.0069
1141.00,0.0062
1138.00,0.0058
1135.00,0.0060
1132.00,0.0064
1129.00,0.0067
1126.00,0.0067
1123.00,0.0068
1120.00,0.0073
1117.00,0.0082
1114.00,0.0089
1111.00,0.0093
1108.00,0.0092
1105.00,0.0090
1102.00,0.0091
1099.00,0.0095
1096.00,0.0098
1093.00,0.0102
1090.00,0.0106
1087.00,0.0115
1084.00,0.0129
1081.00,0.0147
1078.00,0.0166
1075.00,0.0192
1072.00,0.0223
1069.00,0.0241
1066.00,0.0228
1063.00,0.0197
1060.00,0.0171
1057.00,0.0152
1054.00,0.0139
1051.00,0.0130
1048.00,0.0125
1045.00,0.0121
1042.00,0.0122
1039.00,0.0135
1036.00,0.0188
1033.00,0.0302
1030.00,0.0418
1027.00,0.0440
1024.00,0.0354
1021.00,0.0275
1018.00,0.0228
1015.00,0.0198
1012.00,0.0179
1009.00,0.0170
1006.00,0.0176
1003.00,0.0185
1000.00,0.0160
997.00,0.0134
994.00,0.0128
991.00,0.0130
988.00,0.0136
985.00,0.0148
982.00,0.0160
979.00,0.0161
976.00,0.0148
973.00,0.0136
970.00,0.0141
967.00,0.0157
964.00,0.0166
961.00,0.0154
958.00,0.0132
955.00,0.0122
952.00,0.0127
949.00,0.0135
946.00,0.0137
943.00,0.0136
940.00,0.0127
937.00,0.0115
934.00,0.0102
931.00,0.0094
928.00,0.0093
925.00,0.0097
922.00,0.0106
919.00,0.0121
916.00,0.0150
913.00,0.0199
910.00,0.0258
907.00,0.0294
904.00,0.0276
901.00,0.0215
898.00,0.0153
895.00,0.0118
892.00,0.0101
889.00,0.0092
886.00,0.0084
883.00,0.0079
880.00,0.0075
877.00,0.0073
874.00,0.0070
871.00,0.0068
868.00,0.0067
865.00,0.0066
862.00,0.0065
859.00,0.0067
856.00,0.0070
853.00,0.0078
850.00,0.0096
847.00,0.0122
844.00,0.0143
841.00,0.0149
838.00,0.0132
835.00,0.0102
832.00,0.0078
829.00,0.0066
826.00,0.0061
823.00,0.0060
820.00,0.0063
817.00,0.0066
814.00,0.0067
811.00,0.0066
808.00,0.0066
805.00,0.0068
802.00,0.0073
799.00,0.0081
796.00,0.0094
793.00,0.0113
790.00,0.0136
787.00,0.0165
784.00,0.0199
781.00,0.0246
778.00,0.0316
775.00,0.0414
772.00,0.0541
769.00,0.0693
766.00,0.0849
763.00,0.0999
760.00,0.1156
757.00,0.1276
754.00,0.1303
751.00,0.1284
748.00,0.1264
745.00,0.1144
742.00,0.0895
739.00,0.0656
736.00,0.0469
733.00,0.0312
730.00,0.0208
727.00,0.0162
724.00,0.0146
721.00,0.0144
718.00,0.0154
715.00,0.0186
712.00,0.0280
709.00,0.0518
706.00,0.0994
703.00,0.1752
700.00,0.2774
697.00,0.3874
694.00,0.3981
691.00,0.2671
688.00,0.1622
685.00,0.1112
682.00,0.0845
679.00,0.0684
676.00,0.0586
673.00,0.0519
670.00,0.0469
667.00,0.0414
664.00,0.0368
661.00,0.0325
658.00,0.0284
655.00,0.0248
652.00,0.0224
649.00,0.0205
646.00,0.0190
643.00,0.0181
640.00,0.0183
637.00,0.0194
634.00,0.0210
631.00,0.0222
628.00,0.0233
625.00,0.0242
622.00,0.0256
619.00,0.0251
616.00,0.0229
613.00,0.0212
610.00,0.0195
607.00,0.0196
604.00,0.0198
601.00,0.0202
598.00,0.0206
595.00,0.0214
592.00,0.0226
589.00,0.0239
586.00,0.0251
583.00,0.0266
580.00,0.0295
577.00,0.0337
574.00,0.0385
571.00,0.0435
568.00,0.0484
565.00,0.0531
562.00,0.0582
559.00,0.0634
556.00,0.0685
553.00,0.0739
550.00,0.0808
547.00,0.0902
544.00,0.1022
541.00,0.1139
538.00,0.1188
535.00,0.1108
532.00,0.0938
529.00,0.0758
526.00,0.0612
523.00,0.0501
520.00,0.0433
517.00,0.0386
514.00,0.0351
511.00,0.0319
508.00,0.0289
505.00,0.0264
502.00,0.0237
499.00,0.0213
496.00,0.0205
493.00,0.0197
490.00,0.0184
487.00,0.0174
484.00,0.0169
481.00,0.0162
478.00,0.0156
475.00,0.0151
472.00,0.0148
469.00,0.0152
466.00,0.0144
463.00,0.0138
460.00,0.0137
457.00,0.0140
454.00,0.0140
451.00,0.0125
448.00,0.0120
445.00,0.0130
442.00,0.0130
439.00,0.0122
436.00,0.0121
433.00,0.0121
430.00,0.0105
427.00,0.0108
424.00,0.0117
421.00,0.0127
418.00,0.0124
415.00,0.0116
412.00,0.0114
409.00,0.0128
406.00,0.0141
403.00,0.0126
400.00,0.0106