File: FTIR/Olivia/2025_08_04_1CBN_3PVP90kDa_MortPest_powder_scan3.csv
Created as New Dataset,Sample 1053 By YargerLab Date Monday, August 04 2025
cm-1,A
4000.00,0.0050
3997.00,0.0050
3994.00,0.0050
3991.00,0.0049
3988.00,0.0049
3985.00,0.0050
3982.00,0.0050
3979.00,0.0050
3976.00,0.0049
3973.00,0.0050
3970.00,0.0050
3967.00,0.0050
3964.00,0.0049
3961.00,0.0050
3958.00,0.0050
3955.00,0.0050
3952.00,0.0050
3949.00,0.0049
3946.00,0.0048
3943.00,0.0049
3940.00,0.0049
3937.00,0.0049
3934.00,0.0049
3931.00,0.0049
3928.00,0.0049
3925.00,0.0049
3922.00,0.0049
3919.00,0.0049
3916.00,0.0049
3913.00,0.0049
3910.00,0.0049
3907.00,0.0049
3904.00,0.0049
3901.00,0.0049
3898.00,0.0049
3895.00,0.0049
3892.00,0.0049
3889.00,0.0048
3886.00,0.0048
3883.00,0.0048
3880.00,0.0048
3877.00,0.0049
3874.00,0.0049
3871.00,0.0048
3868.00,0.0048
3865.00,0.0048
3862.00,0.0048
3859.00,0.0048
3856.00,0.0048
3853.00,0.0047
3850.00,0.0047
3847.00,0.0048
3844.00,0.0048
3841.00,0.0048
3838.00,0.0048
3835.00,0.0048
3832.00,0.0048
3829.00,0.0048
3826.00,0.0048
3823.00,0.0048
3820.00,0.0048
3817.00,0.0047
3814.00,0.0047
3811.00,0.0048
3808.00,0.0048
3805.00,0.0047
3802.00,0.0047
3799.00,0.0047
3796.00,0.0048
3793.00,0.0048
3790.00,0.0048
3787.00,0.0048
3784.00,0.0048
3781.00,0.0048
3778.00,0.0047
3775.00,0.0048
3772.00,0.0049
3769.00,0.0048
3766.00,0.0048
3763.00,0.0048
3760.00,0.0048
3757.00,0.0048
3754.00,0.0047
3751.00,0.0047
3748.00,0.0047
3745.00,0.0047
3742.00,0.0047
3739.00,0.0047
3736.00,0.0046
3733.00,0.0046
3730.00,0.0046
3727.00,0.0046
3724.00,0.0047
3721.00,0.0047
3718.00,0.0047
3715.00,0.0047
3712.00,0.0046
3709.00,0.0045
3706.00,0.0045
3703.00,0.0045
3700.00,0.0046
3697.00,0.0046
3694.00,0.0046
3691.00,0.0046
3688.00,0.0046
3685.00,0.0046
3682.00,0.0047
3679.00,0.0047
3676.00,0.0047
3673.00,0.0047
3670.00,0.0047
3667.00,0.0047
3664.00,0.0048
3661.00,0.0048
3658.00,0.0047
3655.00,0.0047
3652.00,0.0047
3649.00,0.0048
3646.00,0.0048
3643.00,0.0049
3640.00,0.0050
3637.00,0.0050
3634.00,0.0051
3631.00,0.0050
3628.00,0.0051
3625.00,0.0052
3622.00,0.0053
3619.00,0.0054
3616.00,0.0055
3613.00,0.0055
3610.00,0.0056
3607.00,0.0057
3604.00,0.0058
3601.00,0.0059
3598.00,0.0059
3595.00,0.0060
3592.00,0.0061
3589.00,0.0062
3586.00,0.0063
3583.00,0.0064
3580.00,0.0066
3577.00,0.0067
3574.00,0.0068
3571.00,0.0069
3568.00,0.0070
3565.00,0.0072
3562.00,0.0074
3559.00,0.0076
3556.00,0.0077
3553.00,0.0078
3550.00,0.0080
3547.00,0.0082
3544.00,0.0084
3541.00,0.0086
3538.00,0.0088
3535.00,0.0090
3532.00,0.0091
3529.00,0.0093
3526.00,0.0095
3523.00,0.0097
3520.00,0.0099
3517.00,0.0101
3514.00,0.0102
3511.00,0.0104
3508.00,0.0106
3505.00,0.0108
3502.00,0.0111
3499.00,0.0113
3496.00,0.0115
3493.00,0.0118
3490.00,0.0121
3487.00,0.0124
3484.00,0.0127
3481.00,0.0132
3478.00,0.0135
3475.00,0.0139
3472.00,0.0144
3469.00,0.0148
3466.00,0.0153
3463.00,0.0158
3460.00,0.0163
3457.00,0.0168
3454.00,0.0173
3451.00,0.0179
3448.00,0.0185
3445.00,0.0191
3442.00,0.0197
3439.00,0.0204
3436.00,0.0211
3433.00,0.0219
3430.00,0.0227
3427.00,0.0236
3424.00,0.0245
3421.00,0.0254
3418.00,0.0264
3415.00,0.0273
3412.00,0.0281
3409.00,0.0287
3406.00,0.0292
3403.00,0.0296
3400.00,0.0298
3397.00,0.0297
3394.00,0.0295
3391.00,0.0291
3388.00,0.0287
3385.00,0.0281
3382.00,0.0276
3379.00,0.0269
3376.00,0.0263
3373.00,0.0257
3370.00,0.0252
3367.00,0.0246
3364.00,0.0241
3361.00,0.0237
3358.00,0.0233
3355.00,0.0230
3352.00,0.0226
3349.00,0.0224
3346.00,0.0222
3343.00,0.0220
3340.00,0.0218
3337.00,0.0218
3334.00,0.0218
3331.00,0.0217
3328.00,0.0217
3325.00,0.0217
3322.00,0.0218
3319.00,0.0220
3316.00,0.0221
3313.00,0.0223
3310.00,0.0223
3307.00,0.0225
3304.00,0.0228
3301.00,0.0232
3298.00,0.0234
3295.00,0.0236
3292.00,0.0240
3289.00,0.0244
3286.00,0.0248
3283.00,0.0250
3280.00,0.0254
3277.00,0.0258
3274.00,0.0260
3271.00,0.0263
3268.00,0.0268
3265.00,0.0271
3262.00,0.0275
3259.00,0.0278
3256.00,0.0280
3253.00,0.0284
3250.00,0.0287
3247.00,0.0289
3244.00,0.0292
3241.00,0.0294
3238.00,0.0295
3235.00,0.0294
3232.00,0.0293
3229.00,0.0295
3226.00,0.0294
3223.00,0.0292
3220.00,0.0290
3217.00,0.0287
3214.00,0.0284
3211.00,0.0280
3208.00,0.0275
3205.00,0.0270
3202.00,0.0265
3199.00,0.0260
3196.00,0.0254
3193.00,0.0249
3190.00,0.0243
3187.00,0.0238
3184.00,0.0232
3181.00,0.0226
3178.00,0.0221
3175.00,0.0216
3172.00,0.0210
3169.00,0.0204
3166.00,0.0198
3163.00,0.0192
3160.00,0.0186
3157.00,0.0180
3154.00,0.0174
3151.00,0.0169
3148.00,0.0165
3145.00,0.0161
3142.00,0.0155
3139.00,0.0150
3136.00,0.0147
3133.00,0.0144
3130.00,0.0140
3127.00,0.0137
3124.00,0.0134
3121.00,0.0132
3118.00,0.0130
3115.00,0.0126
3112.00,0.0122
3109.00,0.0119
3106.00,0.0116
3103.00,0.0113
3100.00,0.0111
3097.00,0.0110
3094.00,0.0110
3091.00,0.0111
3088.00,0.0112
3085.00,0.0112
3082.00,0.0111
3079.00,0.0111
3076.00,0.0110
3073.00,0.0108
3070.00,0.0107
3067.00,0.0107
3064.00,0.0107
3061.00,0.0107
3058.00,0.0108
3055.00,0.0109
3052.00,0.0109
3049.00,0.0108
3046.00,0.0107
3043.00,0.0107
3040.00,0.0110
3037.00,0.0114
3034.00,0.0116
3031.00,0.0116
3028.00,0.0114
3025.00,0.0109
3022.00,0.0105
3019.00,0.0102
3016.00,0.0101
3013.00,0.0102
3010.00,0.0104
3007.00,0.0109
3004.00,0.0117
3001.00,0.0128
2998.00,0.0143
2995.00,0.0161
2992.00,0.0176
2989.00,0.0187
2986.00,0.0201
2983.00,0.0226
2980.00,0.0259
2977.00,0.0275
2974.00,0.0295
2971.00,0.0335
2968.00,0.0359
2965.00,0.0376
2962.00,0.0399
2959.00,0.0404
2956.00,0.0377
2953.00,0.0340
2950.00,0.0315
2947.00,0.0313
2944.00,0.0332
2941.00,0.0364
2938.00,0.0413
2935.00,0.0483
2932.00,0.0567
2929.00,0.0637
2926.00,0.0657
2923.00,0.0626
2920.00,0.0570
2917.00,0.0508
2914.00,0.0452
2911.00,0.0408
2908.00,0.0373
2905.00,0.0343
2902.00,0.0318
2899.00,0.0297
2896.00,0.0279
2893.00,0.0266
2890.00,0.0254
2887.00,0.0244
2884.00,0.0238
2881.00,0.0242
2878.00,0.0260
2875.00,0.0288
2872.00,0.0304
2869.00,0.0302
2866.00,0.0305
2863.00,0.0339
2860.00,0.0401
2857.00,0.0452
2854.00,0.0458
2851.00,0.0427
2848.00,0.0358
2845.00,0.0287
2842.00,0.0234
2839.00,0.0197
2836.00,0.0175
2833.00,0.0159
2830.00,0.0147
2827.00,0.0137
2824.00,0.0129
2821.00,0.0123
2818.00,0.0118
2815.00,0.0114
2812.00,0.0110
2809.00,0.0107
2806.00,0.0106
2803.00,0.0103
2800.00,0.0101
2797.00,0.0098
2794.00,0.0096
2791.00,0.0094
2788.00,0.0092
2785.00,0.0090
2782.00,0.0088
2779.00,0.0087
2776.00,0.0085
2773.00,0.0085
2770.00,0.0085
2767.00,0.0084
2764.00,0.0084
2761.00,0.0084
2758.00,0.0084
2755.00,0.0084
2752.00,0.0084
2749.00,0.0084
2746.00,0.0085
2743.00,0.0086
2740.00,0.0087
2737.00,0.0089
2734.00,0.0092
2731.00,0.0094
2728.00,0.0093
2725.00,0.0091
2722.00,0.0090
2719.00,0.0089
2716.00,0.0088
2713.00,0.0087
2710.00,0.0086
2707.00,0.0086
2704.00,0.0086
2701.00,0.0085
2698.00,0.0084
2695.00,0.0083
2692.00,0.0082
2689.00,0.0082
2686.00,0.0080
2683.00,0.0080
2680.00,0.0079
2677.00,0.0079
2674.00,0.0080
2671.00,0.0081
2668.00,0.0082
2665.00,0.0083
2662.00,0.0085
2659.00,0.0086
2656.00,0.0086
2653.00,0.0087
2650.00,0.0087
2647.00,0.0087
2644.00,0.0086
2641.00,0.0086
2638.00,0.0085
2635.00,0.0083
2632.00,0.0082
2629.00,0.0081
2626.00,0.0079
2623.00,0.0078
2620.00,0.0078
2617.00,0.0077
2614.00,0.0077
2611.00,0.0077
2608.00,0.0078
2605.00,0.0077
2602.00,0.0078
2599.00,0.0079
2596.00,0.0079
2593.00,0.0079
2590.00,0.0080
2587.00,0.0080
2584.00,0.0080
2581.00,0.0079
2578.00,0.0078
2575.00,0.0077
2572.00,0.0077
2569.00,0.0077
2566.00,0.0077
2563.00,0.0076
2560.00,0.0075
2557.00,0.0073
2554.00,0.0072
2551.00,0.0072
2548.00,0.0071
2545.00,0.0071
2542.00,0.0072
2539.00,0.0073
2536.00,0.0073
2533.00,0.0073
2530.00,0.0072
2527.00,0.0071
2524.00,0.0070
2521.00,0.0070
2518.00,0.0068
2515.00,0.0068
2512.00,0.0068
2509.00,0.0066
2506.00,0.0066
2503.00,0.0066
2500.00,0.0065
2497.00,0.0064
2494.00,0.0064
2491.00,0.0063
2488.00,0.0063
2485.00,0.0063
2482.00,0.0063
2479.00,0.0062
2476.00,0.0062
2473.00,0.0062
2470.00,0.0062
2467.00,0.0062
2464.00,0.0061
2461.00,0.0062
2458.00,0.0062
2455.00,0.0063
2452.00,0.0062
2449.00,0.0062
2446.00,0.0061
2443.00,0.0061
2440.00,0.0061
2437.00,0.0059
2434.00,0.0059
2431.00,0.0059
2428.00,0.0059
2425.00,0.0059
2422.00,0.0059
2419.00,0.0058
2416.00,0.0058
2413.00,0.0058
2410.00,0.0059
2407.00,0.0058
2404.00,0.0058
2401.00,0.0058
2398.00,0.0057
2395.00,0.0057
2392.00,0.0057
2389.00,0.0056
2386.00,0.0056
2383.00,0.0055
2380.00,0.0054
2377.00,0.0054
2374.00,0.0054
2371.00,0.0054
2368.00,0.0053
2365.00,0.0053
2362.00,0.0054
2359.00,0.0054
2356.00,0.0054
2353.00,0.0054
2350.00,0.0055
2347.00,0.0054
2344.00,0.0055
2341.00,0.0057
2338.00,0.0057
2335.00,0.0057
2332.00,0.0056
2329.00,0.0059
2326.00,0.0070
2323.00,0.0067
2320.00,0.0063
2317.00,0.0062
2314.00,0.0061
2311.00,0.0060
2308.00,0.0060
2305.00,0.0060
2302.00,0.0060
2299.00,0.0061
2296.00,0.0063
2293.00,0.0065
2290.00,0.0067
2287.00,0.0068
2284.00,0.0067
2281.00,0.0064
2278.00,0.0062
2275.00,0.0061
2272.00,0.0059
2269.00,0.0057
2266.00,0.0055
2263.00,0.0053
2260.00,0.0054
2257.00,0.0053
2254.00,0.0053
2251.00,0.0054
2248.00,0.0053
2245.00,0.0056
2242.00,0.0057
2239.00,0.0055
2236.00,0.0054
2233.00,0.0056
2230.00,0.0056
2227.00,0.0055
2224.00,0.0054
2221.00,0.0055
2218.00,0.0054
2215.00,0.0054
2212.00,0.0056
2209.00,0.0055
2206.00,0.0053
2203.00,0.0052
2200.00,0.0051
2197.00,0.0052
2194.00,0.0054
2191.00,0.0054
2188.00,0.0056
2185.00,0.0055
2182.00,0.0051
2179.00,0.0050
2176.00,0.0047
2173.00,0.0051
2170.00,0.0061
2167.00,0.0065
2164.00,0.0063
2161.00,0.0046
2158.00,0.0023
2155.00,0.0028
2152.00,0.0032
2149.00,0.0035
2146.00,0.0036
2143.00,0.0037
2140.00,0.0039
2137.00,0.0034
2134.00,0.0028
2131.00,0.0035
2128.00,0.0039
2125.00,0.0042
2122.00,0.0044
2119.00,0.0046
2116.00,0.0049
2113.00,0.0048
2110.00,0.0046
2107.00,0.0047
2104.00,0.0045
2101.00,0.0045
2098.00,0.0042
2095.00,0.0039
2092.00,0.0042
2089.00,0.0044
2086.00,0.0046
2083.00,0.0049
2080.00,0.0050
2077.00,0.0051
2074.00,0.0050
2071.00,0.0048
2068.00,0.0045
2065.00,0.0043
2062.00,0.0042
2059.00,0.0042
2056.00,0.0041
2053.00,0.0046
2050.00,0.0048
2047.00,0.0042
2044.00,0.0044
2041.00,0.0046
2038.00,0.0048
2035.00,0.0045
2032.00,0.0039
2029.00,0.0041
2026.00,0.0042
2023.00,0.0042
2020.00,0.0039
2017.00,0.0035
2014.00,0.0035
2011.00,0.0037
2008.00,0.0032
2005.00,0.0028
2002.00,0.0033
1999.00,0.0038
1996.00,0.0042
1993.00,0.0045
1990.00,0.0046
1987.00,0.0046
1984.00,0.0050
1981.00,0.0056
1978.00,0.0042
1975.00,0.0038
1972.00,0.0037
1969.00,0.0039
1966.00,0.0036
1963.00,0.0036
1960.00,0.0033
1957.00,0.0034
1954.00,0.0037
1951.00,0.0039
1948.00,0.0039
1945.00,0.0040
1942.00,0.0038
1939.00,0.0039
1936.00,0.0040
1933.00,0.0042
1930.00,0.0042
1927.00,0.0043
1924.00,0.0045
1921.00,0.0045
1918.00,0.0045
1915.00,0.0046
1912.00,0.0054
1909.00,0.0063
1906.00,0.0060
1903.00,0.0053
1900.00,0.0050
1897.00,0.0052
1894.00,0.0056
1891.00,0.0053
1888.00,0.0049
1885.00,0.0048
1882.00,0.0047
1879.00,0.0048
1876.00,0.0047
1873.00,0.0047
1870.00,0.0049
1867.00,0.0048
1864.00,0.0048
1861.00,0.0050
1858.00,0.0050
1855.00,0.0050
1852.00,0.0051
1849.00,0.0055
1846.00,0.0056
1843.00,0.0052
1840.00,0.0051
1837.00,0.0051
1834.00,0.0048
1831.00,0.0049
1828.00,0.0048
1825.00,0.0050
1822.00,0.0050
1819.00,0.0049
1816.00,0.0048
1813.00,0.0049
1810.00,0.0051
1807.00,0.0050
1804.00,0.0051
1801.00,0.0052
1798.00,0.0054
1795.00,0.0056
1792.00,0.0055
1789.00,0.0053
1786.00,0.0054
1783.00,0.0054
1780.00,0.0056
1777.00,0.0059
1774.00,0.0062
1771.00,0.0059
1768.00,0.0059
1765.00,0.0058
1762.00,0.0061
1759.00,0.0063
1756.00,0.0060
1753.00,0.0060
1750.00,0.0061
1747.00,0.0063
1744.00,0.0065
1741.00,0.0062
1738.00,0.0061
1735.00,0.0063
1732.00,0.0066
1729.00,0.0072
1726.00,0.0075
1723.00,0.0079
1720.00,0.0080
1717.00,0.0083
1714.00,0.0088
1711.00,0.0096
1708.00,0.0101
1705.00,0.0110
1702.00,0.0114
1699.00,0.0134
1696.00,0.0163
1693.00,0.0192
1690.00,0.0223
1687.00,0.0246
1684.00,0.0277
1681.00,0.0306
1678.00,0.0323
1675.00,0.0344
1672.00,0.0365
1669.00,0.0387
1666.00,0.0404
1663.00,0.0420
1660.00,0.0437
1657.00,0.0441
1654.00,0.0439
1651.00,0.0459
1648.00,0.0457
1645.00,0.0456
1642.00,0.0449
1639.00,0.0435
1636.00,0.0423
1633.00,0.0444
1630.00,0.0514
1627.00,0.0674
1624.00,0.0813
1621.00,0.0875
1618.00,0.0799
1615.00,0.0684
1612.00,0.0674
1609.00,0.0654
1606.00,0.0551
1603.00,0.0439
1600.00,0.0358
1597.00,0.0320
1594.00,0.0330
1591.00,0.0403
1588.00,0.0526
1585.00,0.0620
1582.00,0.0630
1579.00,0.0576
1576.00,0.0489
1573.00,0.0420
1570.00,0.0382
1567.00,0.0347
1564.00,0.0288
1561.00,0.0231
1558.00,0.0182
1555.00,0.0171
1552.00,0.0163
1549.00,0.0156
1546.00,0.0149
1543.00,0.0142
1540.00,0.0133
1537.00,0.0130
1534.00,0.0130
1531.00,0.0127
1528.00,0.0130
1525.00,0.0132
1522.00,0.0140
1519.00,0.0153
1516.00,0.0175
1513.00,0.0194
1510.00,0.0210
1507.00,0.0217
1504.00,0.0231
1501.00,0.0275
1498.00,0.0385
1495.00,0.0450
1492.00,0.0378
1489.00,0.0288
1486.00,0.0230
1483.00,0.0200
1480.00,0.0187
1477.00,0.0190
1474.00,0.0212
1471.00,0.0292
1468.00,0.0412
1465.00,0.0491
1462.00,0.0496
1459.00,0.0493
1456.00,0.0464
1453.00,0.0433
1450.00,0.0434
1447.00,0.0467
1444.00,0.0524
1441.00,0.0587
1438.00,0.0625
1435.00,0.0682
1432.00,0.0729
1429.00,0.0760
1426.00,0.0753
1423.00,0.0732
1420.00,0.0688
1417.00,0.0622
1414.00,0.0558
1411.00,0.0533
1408.00,0.0567
1405.00,0.0660
1402.00,0.0749
1399.00,0.0760
1396.00,0.0673
1393.00,0.0548
1390.00,0.0485
1387.00,0.0519
1384.00,0.0495
1381.00,0.0479
1378.00,0.0485
1375.00,0.0442
1372.00,0.0384
1369.00,0.0413
1366.00,0.0505
1363.00,0.0554
1360.00,0.0629
1357.00,0.0557
1354.00,0.0474
1351.00,0.0452
1348.00,0.0457
1345.00,0.0444
1342.00,0.0402
1339.00,0.0354
1336.00,0.0333
1333.00,0.0352
1330.00,0.0376
1327.00,0.0377
1324.00,0.0367
1321.00,0.0365
1318.00,0.0358
1315.00,0.0337
1312.00,0.0327
1309.00,0.0350
1306.00,0.0418
1303.00,0.0533
1300.00,0.0601
1297.00,0.0592
1294.00,0.0611
1291.00,0.0629
1288.00,0.0666
1285.00,0.0732
1282.00,0.0741
1279.00,0.0658
1276.00,0.0576
1273.00,0.0534
1270.00,0.0503
1267.00,0.0470
1264.00,0.0433
1261.00,0.0391
1258.00,0.0355
1255.00,0.0334
1252.00,0.0331
1249.00,0.0361
1246.00,0.0424
1243.00,0.0480
1240.00,0.0517
1237.00,0.0587
1234.00,0.0656
1231.00,0.0630
1228.00,0.0548
1225.00,0.0483
1222.00,0.0452
1219.00,0.0461
1216.00,0.0499
1213.00,0.0503
1210.00,0.0439
1207.00,0.0380
1204.00,0.0383
1201.00,0.0455
1198.00,0.0570
1195.00,0.0672
1192.00,0.0647
1189.00,0.0532
1186.00,0.0411
1183.00,0.0333
1180.00,0.0294
1177.00,0.0277
1174.00,0.0269
1171.00,0.0267
1168.00,0.0269
1165.00,0.0278
1162.00,0.0316
1159.00,0.0430
1156.00,0.0615
1153.00,0.0623
1150.00,0.0425
1147.00,0.0296
1144.00,0.0256
1141.00,0.0251
1138.00,0.0274
1135.00,0.0356
1132.00,0.0551
1129.00,0.0746
1126.00,0.0728
1123.00,0.0573
1120.00,0.0418
1117.00,0.0353
1114.00,0.0340
1111.00,0.0316
1108.00,0.0294
1105.00,0.0323
1102.00,0.0434
1099.00,0.0509
1096.00,0.0414
1093.00,0.0294
1090.00,0.0237
1087.00,0.0213
1084.00,0.0205
1081.00,0.0205
1078.00,0.0212
1075.00,0.0220
1072.00,0.0234
1069.00,0.0259
1066.00,0.0294
1063.00,0.0358
1060.00,0.0499
1057.00,0.0744
1054.00,0.0951
1051.00,0.1016
1048.00,0.0995
1045.00,0.0836
1042.00,0.0632
1039.00,0.0510
1036.00,0.0495
1033.00,0.0536
1030.00,0.0693
1027.00,0.0894
1024.00,0.0807
1021.00,0.0576
1018.00,0.0426
1015.00,0.0346
1012.00,0.0309
1009.00,0.0328
1006.00,0.0406
1003.00,0.0459
1000.00,0.0428
997.00,0.0382
994.00,0.0350
991.00,0.0307
988.00,0.0258
985.00,0.0227
982.00,0.0212
979.00,0.0208
976.00,0.0209
973.00,0.0207
970.00,0.0203
967.00,0.0202
964.00,0.0212
961.00,0.0214
958.00,0.0184
955.00,0.0161
952.00,0.0153
949.00,0.0164
946.00,0.0167
943.00,0.0174
940.00,0.0199
937.00,0.0222
934.00,0.0241
931.00,0.0242
928.00,0.0225
925.00,0.0237
922.00,0.0267
919.00,0.0242
916.00,0.0191
913.00,0.0166
910.00,0.0158
907.00,0.0165
904.00,0.0194
901.00,0.0262
898.00,0.0290
895.00,0.0247
892.00,0.0265
889.00,0.0288
886.00,0.0213
883.00,0.0192
880.00,0.0214
877.00,0.0289
874.00,0.0440
871.00,0.0606
868.00,0.0608
865.00,0.0489
862.00,0.0384
859.00,0.0323
856.00,0.0365
853.00,0.0456
850.00,0.0546
847.00,0.0534
844.00,0.0440
841.00,0.0395
838.00,0.0439
835.00,0.0547
832.00,0.0567
829.00,0.0457
826.00,0.0341
823.00,0.0420
820.00,0.0664
817.00,0.0757
814.00,0.0689
811.00,0.0382
808.00,0.0262
805.00,0.0218
802.00,0.0200
799.00,0.0192
796.00,0.0188
793.00,0.0186
790.00,0.0184
787.00,0.0184
784.00,0.0186
781.00,0.0191
778.00,0.0212
775.00,0.0264
772.00,0.0252
769.00,0.0222
766.00,0.0220
763.00,0.0238
760.00,0.0264
757.00,0.0266
754.00,0.0258
751.00,0.0261
748.00,0.0271
745.00,0.0286
742.00,0.0312
739.00,0.0375
736.00,0.0501
733.00,0.0526
730.00,0.0499
727.00,0.0482
724.00,0.0390
721.00,0.0347
718.00,0.0368
715.00,0.0410
712.00,0.0397
709.00,0.0368
706.00,0.0362
703.00,0.0381
700.00,0.0411
697.00,0.0426
694.00,0.0406
691.00,0.0419
688.00,0.0466
685.00,0.0445
682.00,0.0425
679.00,0.0439
676.00,0.0478
673.00,0.0534
670.00,0.0558
667.00,0.0544
664.00,0.0550
661.00,0.0573
658.00,0.0548
655.00,0.0522
652.00,0.0518
649.00,0.0520
646.00,0.0519
643.00,0.0513
640.00,0.0505
637.00,0.0499
634.00,0.0492
631.00,0.0487
628.00,0.0494
625.00,0.0513
622.00,0.0549
619.00,0.0565
616.00,0.0528
613.00,0.0488
610.00,0.0493
607.00,0.0561
604.00,0.0650
601.00,0.0685
598.00,0.0684
595.00,0.0675
592.00,0.0668
589.00,0.0651
586.00,0.0643
583.00,0.0654
580.00,0.0692
577.00,0.0763
574.00,0.0747
571.00,0.0677
568.00,0.0645
565.00,0.0664
562.00,0.0714
559.00,0.0740
556.00,0.0698
553.00,0.0663
550.00,0.0689
547.00,0.0750
544.00,0.0749
541.00,0.0695
538.00,0.0658
535.00,0.0666
532.00,0.0713
529.00,0.0708
526.00,0.0644
523.00,0.0598
520.00,0.0574
517.00,0.0560
514.00,0.0549
511.00,0.0553
508.00,0.0567
505.00,0.0572
502.00,0.0557
499.00,0.0538
496.00,0.0542
493.00,0.0562
490.00,0.0556
487.00,0.0539
484.00,0.0527
481.00,0.0527
478.00,0.0521
475.00,0.0513
472.00,0.0508
469.00,0.0512
466.00,0.0512
463.00,0.0504
460.00,0.0508
457.00,0.0515
454.00,0.0505
451.00,0.0492
448.00,0.0498
445.00,0.0504
442.00,0.0500
439.00,0.0500
436.00,0.0507
433.00,0.0501
430.00,0.0489
427.00,0.0479
424.00,0.0481
421.00,0.0473
418.00,0.0472
415.00,0.0479
412.00,0.0515
409.00,0.0522
406.00,0.0482
403.00,0.0480
400.00,0.0481