File: FTIR/Olivia/2025_08_01_1CBN_3PVP90_mortar_dry_scan3.csv
Created as New Dataset,Sample 1028 By YargerLab Date Friday, August 01 2025
cm-1,A
4000.00,0.0029
3997.00,0.0029
3994.00,0.0029
3991.00,0.0028
3988.00,0.0029
3985.00,0.0029
3982.00,0.0029
3979.00,0.0029
3976.00,0.0030
3973.00,0.0030
3970.00,0.0030
3967.00,0.0030
3964.00,0.0030
3961.00,0.0029
3958.00,0.0029
3955.00,0.0029
3952.00,0.0029
3949.00,0.0029
3946.00,0.0029
3943.00,0.0029
3940.00,0.0029
3937.00,0.0029
3934.00,0.0029
3931.00,0.0029
3928.00,0.0029
3925.00,0.0029
3922.00,0.0029
3919.00,0.0029
3916.00,0.0029
3913.00,0.0029
3910.00,0.0029
3907.00,0.0028
3904.00,0.0028
3901.00,0.0028
3898.00,0.0028
3895.00,0.0028
3892.00,0.0028
3889.00,0.0029
3886.00,0.0028
3883.00,0.0028
3880.00,0.0028
3877.00,0.0028
3874.00,0.0028
3871.00,0.0027
3868.00,0.0028
3865.00,0.0028
3862.00,0.0027
3859.00,0.0028
3856.00,0.0027
3853.00,0.0027
3850.00,0.0027
3847.00,0.0028
3844.00,0.0029
3841.00,0.0028
3838.00,0.0028
3835.00,0.0027
3832.00,0.0028
3829.00,0.0028
3826.00,0.0028
3823.00,0.0027
3820.00,0.0027
3817.00,0.0027
3814.00,0.0028
3811.00,0.0028
3808.00,0.0028
3805.00,0.0028
3802.00,0.0028
3799.00,0.0028
3796.00,0.0028
3793.00,0.0028
3790.00,0.0029
3787.00,0.0029
3784.00,0.0028
3781.00,0.0027
3778.00,0.0027
3775.00,0.0028
3772.00,0.0029
3769.00,0.0029
3766.00,0.0028
3763.00,0.0029
3760.00,0.0029
3757.00,0.0028
3754.00,0.0028
3751.00,0.0028
3748.00,0.0027
3745.00,0.0027
3742.00,0.0027
3739.00,0.0027
3736.00,0.0026
3733.00,0.0025
3730.00,0.0027
3727.00,0.0027
3724.00,0.0027
3721.00,0.0026
3718.00,0.0027
3715.00,0.0027
3712.00,0.0026
3709.00,0.0026
3706.00,0.0026
3703.00,0.0026
3700.00,0.0026
3697.00,0.0026
3694.00,0.0026
3691.00,0.0026
3688.00,0.0026
3685.00,0.0026
3682.00,0.0028
3679.00,0.0027
3676.00,0.0026
3673.00,0.0027
3670.00,0.0028
3667.00,0.0029
3664.00,0.0030
3661.00,0.0031
3658.00,0.0030
3655.00,0.0031
3652.00,0.0030
3649.00,0.0029
3646.00,0.0030
3643.00,0.0031
3640.00,0.0033
3637.00,0.0033
3634.00,0.0034
3631.00,0.0034
3628.00,0.0035
3625.00,0.0035
3622.00,0.0036
3619.00,0.0037
3616.00,0.0038
3613.00,0.0039
3610.00,0.0040
3607.00,0.0041
3604.00,0.0042
3601.00,0.0043
3598.00,0.0043
3595.00,0.0044
3592.00,0.0046
3589.00,0.0047
3586.00,0.0049
3583.00,0.0050
3580.00,0.0052
3577.00,0.0053
3574.00,0.0055
3571.00,0.0055
3568.00,0.0057
3565.00,0.0058
3562.00,0.0060
3559.00,0.0062
3556.00,0.0065
3553.00,0.0067
3550.00,0.0068
3547.00,0.0070
3544.00,0.0072
3541.00,0.0073
3538.00,0.0076
3535.00,0.0078
3532.00,0.0080
3529.00,0.0081
3526.00,0.0083
3523.00,0.0085
3520.00,0.0088
3517.00,0.0090
3514.00,0.0092
3511.00,0.0093
3508.00,0.0094
3505.00,0.0096
3502.00,0.0099
3499.00,0.0101
3496.00,0.0102
3493.00,0.0104
3490.00,0.0107
3487.00,0.0110
3484.00,0.0112
3481.00,0.0115
3478.00,0.0118
3475.00,0.0122
3472.00,0.0126
3469.00,0.0129
3466.00,0.0133
3463.00,0.0137
3460.00,0.0141
3457.00,0.0146
3454.00,0.0150
3451.00,0.0154
3448.00,0.0159
3445.00,0.0164
3442.00,0.0169
3439.00,0.0175
3436.00,0.0182
3433.00,0.0188
3430.00,0.0195
3427.00,0.0202
3424.00,0.0209
3421.00,0.0217
3418.00,0.0226
3415.00,0.0233
3412.00,0.0240
3409.00,0.0246
3406.00,0.0250
3403.00,0.0253
3400.00,0.0254
3397.00,0.0254
3394.00,0.0252
3391.00,0.0250
3388.00,0.0245
3385.00,0.0241
3382.00,0.0236
3379.00,0.0230
3376.00,0.0225
3373.00,0.0220
3370.00,0.0214
3367.00,0.0210
3364.00,0.0206
3361.00,0.0201
3358.00,0.0197
3355.00,0.0194
3352.00,0.0191
3349.00,0.0189
3346.00,0.0186
3343.00,0.0184
3340.00,0.0182
3337.00,0.0181
3334.00,0.0180
3331.00,0.0180
3328.00,0.0180
3325.00,0.0180
3322.00,0.0181
3319.00,0.0182
3316.00,0.0183
3313.00,0.0183
3310.00,0.0183
3307.00,0.0184
3304.00,0.0187
3301.00,0.0191
3298.00,0.0192
3295.00,0.0194
3292.00,0.0197
3289.00,0.0200
3286.00,0.0204
3283.00,0.0207
3280.00,0.0210
3277.00,0.0212
3274.00,0.0214
3271.00,0.0216
3268.00,0.0220
3265.00,0.0223
3262.00,0.0226
3259.00,0.0228
3256.00,0.0230
3253.00,0.0234
3250.00,0.0235
3247.00,0.0236
3244.00,0.0239
3241.00,0.0241
3238.00,0.0241
3235.00,0.0239
3232.00,0.0239
3229.00,0.0239
3226.00,0.0239
3223.00,0.0237
3220.00,0.0235
3217.00,0.0232
3214.00,0.0229
3211.00,0.0226
3208.00,0.0221
3205.00,0.0216
3202.00,0.0212
3199.00,0.0207
3196.00,0.0202
3193.00,0.0196
3190.00,0.0192
3187.00,0.0187
3184.00,0.0181
3181.00,0.0176
3178.00,0.0172
3175.00,0.0167
3172.00,0.0162
3169.00,0.0157
3166.00,0.0151
3163.00,0.0146
3160.00,0.0141
3157.00,0.0135
3154.00,0.0130
3151.00,0.0126
3148.00,0.0123
3145.00,0.0118
3142.00,0.0114
3139.00,0.0110
3136.00,0.0107
3133.00,0.0104
3130.00,0.0101
3127.00,0.0099
3124.00,0.0096
3121.00,0.0094
3118.00,0.0091
3115.00,0.0088
3112.00,0.0085
3109.00,0.0083
3106.00,0.0081
3103.00,0.0078
3100.00,0.0076
3097.00,0.0075
3094.00,0.0076
3091.00,0.0076
3088.00,0.0077
3085.00,0.0077
3082.00,0.0077
3079.00,0.0076
3076.00,0.0074
3073.00,0.0073
3070.00,0.0073
3067.00,0.0072
3064.00,0.0072
3061.00,0.0073
3058.00,0.0074
3055.00,0.0074
3052.00,0.0074
3049.00,0.0073
3046.00,0.0073
3043.00,0.0073
3040.00,0.0075
3037.00,0.0078
3034.00,0.0081
3031.00,0.0081
3028.00,0.0078
3025.00,0.0074
3022.00,0.0072
3019.00,0.0070
3016.00,0.0069
3013.00,0.0070
3010.00,0.0072
3007.00,0.0077
3004.00,0.0084
3001.00,0.0093
2998.00,0.0106
2995.00,0.0120
2992.00,0.0129
2989.00,0.0137
2986.00,0.0146
2983.00,0.0163
2980.00,0.0186
2977.00,0.0195
2974.00,0.0208
2971.00,0.0238
2968.00,0.0258
2965.00,0.0274
2962.00,0.0295
2959.00,0.0300
2956.00,0.0280
2953.00,0.0254
2950.00,0.0239
2947.00,0.0240
2944.00,0.0256
2941.00,0.0283
2938.00,0.0324
2935.00,0.0384
2932.00,0.0452
2929.00,0.0506
2926.00,0.0516
2923.00,0.0483
2920.00,0.0432
2917.00,0.0379
2914.00,0.0333
2911.00,0.0298
2908.00,0.0270
2905.00,0.0247
2902.00,0.0228
2899.00,0.0212
2896.00,0.0198
2893.00,0.0187
2890.00,0.0178
2887.00,0.0171
2884.00,0.0167
2881.00,0.0171
2878.00,0.0186
2875.00,0.0207
2872.00,0.0219
2869.00,0.0218
2866.00,0.0222
2863.00,0.0249
2860.00,0.0299
2857.00,0.0336
2854.00,0.0337
2851.00,0.0307
2848.00,0.0251
2845.00,0.0195
2842.00,0.0154
2839.00,0.0127
2836.00,0.0111
2833.00,0.0100
2830.00,0.0092
2827.00,0.0085
2824.00,0.0079
2821.00,0.0075
2818.00,0.0071
2815.00,0.0068
2812.00,0.0066
2809.00,0.0064
2806.00,0.0062
2803.00,0.0061
2800.00,0.0060
2797.00,0.0058
2794.00,0.0056
2791.00,0.0054
2788.00,0.0053
2785.00,0.0052
2782.00,0.0051
2779.00,0.0050
2776.00,0.0049
2773.00,0.0049
2770.00,0.0049
2767.00,0.0049
2764.00,0.0048
2761.00,0.0048
2758.00,0.0049
2755.00,0.0049
2752.00,0.0049
2749.00,0.0049
2746.00,0.0050
2743.00,0.0051
2740.00,0.0052
2737.00,0.0053
2734.00,0.0055
2731.00,0.0057
2728.00,0.0056
2725.00,0.0055
2722.00,0.0054
2719.00,0.0053
2716.00,0.0052
2713.00,0.0051
2710.00,0.0051
2707.00,0.0051
2704.00,0.0051
2701.00,0.0050
2698.00,0.0050
2695.00,0.0049
2692.00,0.0048
2689.00,0.0048
2686.00,0.0047
2683.00,0.0047
2680.00,0.0047
2677.00,0.0046
2674.00,0.0047
2671.00,0.0048
2668.00,0.0048
2665.00,0.0050
2662.00,0.0052
2659.00,0.0053
2656.00,0.0054
2653.00,0.0054
2650.00,0.0055
2647.00,0.0055
2644.00,0.0054
2641.00,0.0054
2638.00,0.0053
2635.00,0.0053
2632.00,0.0051
2629.00,0.0050
2626.00,0.0049
2623.00,0.0048
2620.00,0.0048
2617.00,0.0047
2614.00,0.0047
2611.00,0.0048
2608.00,0.0048
2605.00,0.0048
2602.00,0.0049
2599.00,0.0050
2596.00,0.0050
2593.00,0.0050
2590.00,0.0050
2587.00,0.0050
2584.00,0.0050
2581.00,0.0049
2578.00,0.0049
2575.00,0.0047
2572.00,0.0047
2569.00,0.0048
2566.00,0.0047
2563.00,0.0046
2560.00,0.0046
2557.00,0.0045
2554.00,0.0043
2551.00,0.0043
2548.00,0.0043
2545.00,0.0044
2542.00,0.0044
2539.00,0.0045
2536.00,0.0044
2533.00,0.0043
2530.00,0.0043
2527.00,0.0042
2524.00,0.0042
2521.00,0.0041
2518.00,0.0040
2515.00,0.0040
2512.00,0.0040
2509.00,0.0039
2506.00,0.0039
2503.00,0.0039
2500.00,0.0038
2497.00,0.0038
2494.00,0.0038
2491.00,0.0038
2488.00,0.0037
2485.00,0.0037
2482.00,0.0036
2479.00,0.0036
2476.00,0.0036
2473.00,0.0036
2470.00,0.0036
2467.00,0.0036
2464.00,0.0036
2461.00,0.0036
2458.00,0.0037
2455.00,0.0038
2452.00,0.0038
2449.00,0.0037
2446.00,0.0037
2443.00,0.0036
2440.00,0.0036
2437.00,0.0035
2434.00,0.0035
2431.00,0.0035
2428.00,0.0034
2425.00,0.0033
2422.00,0.0033
2419.00,0.0034
2416.00,0.0033
2413.00,0.0033
2410.00,0.0033
2407.00,0.0033
2404.00,0.0032
2401.00,0.0032
2398.00,0.0032
2395.00,0.0032
2392.00,0.0032
2389.00,0.0031
2386.00,0.0030
2383.00,0.0028
2380.00,0.0026
2377.00,0.0027
2374.00,0.0028
2371.00,0.0027
2368.00,0.0026
2365.00,0.0026
2362.00,0.0026
2359.00,0.0027
2356.00,0.0027
2353.00,0.0025
2350.00,0.0025
2347.00,0.0028
2344.00,0.0030
2341.00,0.0030
2338.00,0.0031
2335.00,0.0031
2332.00,0.0030
2329.00,0.0034
2326.00,0.0045
2323.00,0.0043
2320.00,0.0038
2317.00,0.0036
2314.00,0.0035
2311.00,0.0033
2308.00,0.0034
2305.00,0.0035
2302.00,0.0037
2299.00,0.0037
2296.00,0.0039
2293.00,0.0043
2290.00,0.0046
2287.00,0.0046
2284.00,0.0044
2281.00,0.0040
2278.00,0.0040
2275.00,0.0039
2272.00,0.0038
2269.00,0.0037
2266.00,0.0034
2263.00,0.0033
2260.00,0.0034
2257.00,0.0031
2254.00,0.0031
2251.00,0.0033
2248.00,0.0033
2245.00,0.0033
2242.00,0.0033
2239.00,0.0035
2236.00,0.0035
2233.00,0.0034
2230.00,0.0035
2227.00,0.0034
2224.00,0.0033
2221.00,0.0032
2218.00,0.0033
2215.00,0.0035
2212.00,0.0035
2209.00,0.0034
2206.00,0.0035
2203.00,0.0032
2200.00,0.0031
2197.00,0.0033
2194.00,0.0034
2191.00,0.0035
2188.00,0.0038
2185.00,0.0034
2182.00,0.0032
2179.00,0.0032
2176.00,0.0027
2173.00,0.0031
2170.00,0.0039
2167.00,0.0044
2164.00,0.0050
2161.00,0.0031
2158.00,-0.0005
2155.00,0.0001
2152.00,0.0010
2149.00,0.0014
2146.00,0.0014
2143.00,0.0016
2140.00,0.0018
2137.00,0.0011
2134.00,0.0009
2131.00,0.0016
2128.00,0.0018
2125.00,0.0019
2122.00,0.0022
2119.00,0.0027
2116.00,0.0030
2113.00,0.0029
2110.00,0.0028
2107.00,0.0028
2104.00,0.0027
2101.00,0.0026
2098.00,0.0025
2095.00,0.0021
2092.00,0.0024
2089.00,0.0026
2086.00,0.0028
2083.00,0.0030
2080.00,0.0031
2077.00,0.0031
2074.00,0.0027
2071.00,0.0026
2068.00,0.0027
2065.00,0.0028
2062.00,0.0027
2059.00,0.0025
2056.00,0.0022
2053.00,0.0027
2050.00,0.0029
2047.00,0.0025
2044.00,0.0023
2041.00,0.0026
2038.00,0.0027
2035.00,0.0025
2032.00,0.0021
2029.00,0.0020
2026.00,0.0021
2023.00,0.0021
2020.00,0.0019
2017.00,0.0019
2014.00,0.0015
2011.00,0.0018
2008.00,0.0011
2005.00,0.0009
2002.00,0.0012
1999.00,0.0021
1996.00,0.0023
1993.00,0.0021
1990.00,0.0024
1987.00,0.0026
1984.00,0.0031
1981.00,0.0037
1978.00,0.0021
1975.00,0.0014
1972.00,0.0014
1969.00,0.0015
1966.00,0.0015
1963.00,0.0018
1960.00,0.0015
1957.00,0.0013
1954.00,0.0017
1951.00,0.0017
1948.00,0.0018
1945.00,0.0017
1942.00,0.0016
1939.00,0.0016
1936.00,0.0019
1933.00,0.0020
1930.00,0.0021
1927.00,0.0021
1924.00,0.0021
1921.00,0.0024
1918.00,0.0026
1915.00,0.0027
1912.00,0.0031
1909.00,0.0035
1906.00,0.0034
1903.00,0.0030
1900.00,0.0028
1897.00,0.0027
1894.00,0.0030
1891.00,0.0029
1888.00,0.0027
1885.00,0.0026
1882.00,0.0025
1879.00,0.0026
1876.00,0.0025
1873.00,0.0025
1870.00,0.0025
1867.00,0.0026
1864.00,0.0027
1861.00,0.0027
1858.00,0.0027
1855.00,0.0028
1852.00,0.0028
1849.00,0.0030
1846.00,0.0031
1843.00,0.0031
1840.00,0.0029
1837.00,0.0028
1834.00,0.0027
1831.00,0.0028
1828.00,0.0028
1825.00,0.0029
1822.00,0.0028
1819.00,0.0027
1816.00,0.0026
1813.00,0.0027
1810.00,0.0028
1807.00,0.0029
1804.00,0.0030
1801.00,0.0031
1798.00,0.0031
1795.00,0.0033
1792.00,0.0033
1789.00,0.0032
1786.00,0.0033
1783.00,0.0033
1780.00,0.0033
1777.00,0.0034
1774.00,0.0035
1771.00,0.0037
1768.00,0.0037
1765.00,0.0035
1762.00,0.0037
1759.00,0.0039
1756.00,0.0038
1753.00,0.0037
1750.00,0.0036
1747.00,0.0036
1744.00,0.0038
1741.00,0.0038
1738.00,0.0039
1735.00,0.0040
1732.00,0.0042
1729.00,0.0046
1726.00,0.0048
1723.00,0.0051
1720.00,0.0053
1717.00,0.0054
1714.00,0.0059
1711.00,0.0064
1708.00,0.0069
1705.00,0.0077
1702.00,0.0088
1699.00,0.0104
1696.00,0.0123
1693.00,0.0149
1690.00,0.0176
1687.00,0.0199
1684.00,0.0236
1681.00,0.0264
1678.00,0.0289
1675.00,0.0319
1672.00,0.0339
1669.00,0.0366
1666.00,0.0386
1663.00,0.0413
1660.00,0.0435
1657.00,0.0453
1654.00,0.0478
1651.00,0.0493
1648.00,0.0508
1645.00,0.0517
1642.00,0.0520
1639.00,0.0516
1636.00,0.0508
1633.00,0.0508
1630.00,0.0556
1627.00,0.0672
1624.00,0.0765
1621.00,0.0783
1618.00,0.0706
1615.00,0.0599
1612.00,0.0582
1609.00,0.0550
1606.00,0.0459
1603.00,0.0367
1600.00,0.0303
1597.00,0.0271
1594.00,0.0274
1591.00,0.0326
1588.00,0.0416
1585.00,0.0482
1582.00,0.0485
1579.00,0.0440
1576.00,0.0367
1573.00,0.0312
1570.00,0.0284
1567.00,0.0255
1564.00,0.0209
1561.00,0.0173
1558.00,0.0139
1555.00,0.0125
1552.00,0.0117
1549.00,0.0112
1546.00,0.0108
1543.00,0.0100
1540.00,0.0094
1537.00,0.0094
1534.00,0.0093
1531.00,0.0091
1528.00,0.0091
1525.00,0.0093
1522.00,0.0098
1519.00,0.0109
1516.00,0.0124
1513.00,0.0140
1510.00,0.0151
1507.00,0.0159
1504.00,0.0180
1501.00,0.0215
1498.00,0.0302
1495.00,0.0348
1492.00,0.0296
1489.00,0.0225
1486.00,0.0178
1483.00,0.0151
1480.00,0.0140
1477.00,0.0145
1474.00,0.0164
1471.00,0.0234
1468.00,0.0328
1465.00,0.0402
1462.00,0.0411
1459.00,0.0411
1456.00,0.0378
1453.00,0.0346
1450.00,0.0350
1447.00,0.0385
1444.00,0.0437
1441.00,0.0495
1438.00,0.0535
1435.00,0.0571
1432.00,0.0599
1429.00,0.0621
1426.00,0.0624
1423.00,0.0620
1420.00,0.0593
1417.00,0.0518
1414.00,0.0448
1411.00,0.0411
1408.00,0.0427
1405.00,0.0493
1402.00,0.0556
1399.00,0.0558
1396.00,0.0486
1393.00,0.0388
1390.00,0.0345
1387.00,0.0376
1384.00,0.0353
1381.00,0.0336
1378.00,0.0341
1375.00,0.0315
1372.00,0.0278
1369.00,0.0301
1366.00,0.0368
1363.00,0.0402
1360.00,0.0450
1357.00,0.0392
1354.00,0.0333
1351.00,0.0317
1348.00,0.0319
1345.00,0.0305
1342.00,0.0271
1339.00,0.0237
1336.00,0.0226
1333.00,0.0243
1330.00,0.0261
1327.00,0.0267
1324.00,0.0268
1321.00,0.0275
1318.00,0.0274
1315.00,0.0259
1312.00,0.0249
1309.00,0.0263
1306.00,0.0312
1303.00,0.0398
1300.00,0.0454
1297.00,0.0465
1294.00,0.0500
1291.00,0.0534
1288.00,0.0575
1285.00,0.0622
1282.00,0.0617
1279.00,0.0553
1276.00,0.0501
1273.00,0.0477
1270.00,0.0452
1267.00,0.0420
1264.00,0.0380
1261.00,0.0339
1258.00,0.0306
1255.00,0.0285
1252.00,0.0281
1249.00,0.0300
1246.00,0.0344
1243.00,0.0379
1240.00,0.0403
1237.00,0.0455
1234.00,0.0503
1231.00,0.0482
1228.00,0.0424
1225.00,0.0379
1222.00,0.0357
1219.00,0.0365
1216.00,0.0392
1213.00,0.0393
1210.00,0.0346
1207.00,0.0302
1204.00,0.0303
1201.00,0.0352
1198.00,0.0431
1195.00,0.0494
1192.00,0.0461
1189.00,0.0373
1186.00,0.0292
1183.00,0.0243
1180.00,0.0220
1177.00,0.0211
1174.00,0.0207
1171.00,0.0204
1168.00,0.0196
1165.00,0.0192
1162.00,0.0209
1159.00,0.0287
1156.00,0.0422
1153.00,0.0424
1150.00,0.0277
1147.00,0.0189
1144.00,0.0165
1141.00,0.0159
1138.00,0.0170
1135.00,0.0220
1132.00,0.0357
1129.00,0.0495
1126.00,0.0473
1123.00,0.0359
1120.00,0.0258
1117.00,0.0219
1114.00,0.0211
1111.00,0.0191
1108.00,0.0175
1105.00,0.0197
1102.00,0.0275
1099.00,0.0324
1096.00,0.0256
1093.00,0.0178
1090.00,0.0145
1087.00,0.0135
1084.00,0.0131
1081.00,0.0134
1078.00,0.0141
1075.00,0.0148
1072.00,0.0156
1069.00,0.0169
1066.00,0.0188
1063.00,0.0229
1060.00,0.0330
1057.00,0.0517
1054.00,0.0680
1051.00,0.0737
1048.00,0.0711
1045.00,0.0576
1042.00,0.0424
1039.00,0.0342
1036.00,0.0338
1033.00,0.0369
1030.00,0.0490
1027.00,0.0639
1024.00,0.0556
1021.00,0.0385
1018.00,0.0285
1015.00,0.0231
1012.00,0.0207
1009.00,0.0222
1006.00,0.0274
1003.00,0.0305
1000.00,0.0280
997.00,0.0247
994.00,0.0225
991.00,0.0196
988.00,0.0164
985.00,0.0145
982.00,0.0136
979.00,0.0133
976.00,0.0133
973.00,0.0131
970.00,0.0127
967.00,0.0125
964.00,0.0126
961.00,0.0116
958.00,0.0074
955.00,0.0041
952.00,0.0029
949.00,0.0044
946.00,0.0062
943.00,0.0085
940.00,0.0115
937.00,0.0137
934.00,0.0152
931.00,0.0153
928.00,0.0144
925.00,0.0155
922.00,0.0174
919.00,0.0155
916.00,0.0124
913.00,0.0110
910.00,0.0107
907.00,0.0112
904.00,0.0134
901.00,0.0178
898.00,0.0192
895.00,0.0167
892.00,0.0182
889.00,0.0196
886.00,0.0147
883.00,0.0133
880.00,0.0146
877.00,0.0197
874.00,0.0303
871.00,0.0416
868.00,0.0407
865.00,0.0322
862.00,0.0254
859.00,0.0220
856.00,0.0255
853.00,0.0319
850.00,0.0378
847.00,0.0365
844.00,0.0305
841.00,0.0277
838.00,0.0311
835.00,0.0382
832.00,0.0382
829.00,0.0302
826.00,0.0227
823.00,0.0282
820.00,0.0440
817.00,0.0495
814.00,0.0417
811.00,0.0218
808.00,0.0159
805.00,0.0147
802.00,0.0143
799.00,0.0141
796.00,0.0140
793.00,0.0141
790.00,0.0143
787.00,0.0146
784.00,0.0149
781.00,0.0153
778.00,0.0167
775.00,0.0201
772.00,0.0197
769.00,0.0181
766.00,0.0185
763.00,0.0199
760.00,0.0219
757.00,0.0223
754.00,0.0222
751.00,0.0228
748.00,0.0238
745.00,0.0251
742.00,0.0271
739.00,0.0316
736.00,0.0400
733.00,0.0418
730.00,0.0404
727.00,0.0387
724.00,0.0325
721.00,0.0297
718.00,0.0311
715.00,0.0337
712.00,0.0329
709.00,0.0313
706.00,0.0314
703.00,0.0328
700.00,0.0348
697.00,0.0357
694.00,0.0345
691.00,0.0356
688.00,0.0386
685.00,0.0375
682.00,0.0370
679.00,0.0383
676.00,0.0411
673.00,0.0448
670.00,0.0466
667.00,0.0465
664.00,0.0469
661.00,0.0488
658.00,0.0478
655.00,0.0467
652.00,0.0473
649.00,0.0480
646.00,0.0485
643.00,0.0482
640.00,0.0477
637.00,0.0470
634.00,0.0466
631.00,0.0464
628.00,0.0466
625.00,0.0479
622.00,0.0498
619.00,0.0505
616.00,0.0484
613.00,0.0461
610.00,0.0465
607.00,0.0511
604.00,0.0570
601.00,0.0591
598.00,0.0590
595.00,0.0590
592.00,0.0583
589.00,0.0580
586.00,0.0576
583.00,0.0588
580.00,0.0617
577.00,0.0665
574.00,0.0661
571.00,0.0623
568.00,0.0602
565.00,0.0613
562.00,0.0642
559.00,0.0657
556.00,0.0624
553.00,0.0603
550.00,0.0618
547.00,0.0653
544.00,0.0650
541.00,0.0612
538.00,0.0587
535.00,0.0595
532.00,0.0624
529.00,0.0618
526.00,0.0584
523.00,0.0556
520.00,0.0545
517.00,0.0533
514.00,0.0528
511.00,0.0530
508.00,0.0536
505.00,0.0540
502.00,0.0532
499.00,0.0523
496.00,0.0524
493.00,0.0527
490.00,0.0522
487.00,0.0511
484.00,0.0501
481.00,0.0501
478.00,0.0501
475.00,0.0499
472.00,0.0502
469.00,0.0504
466.00,0.0506
463.00,0.0504
460.00,0.0506
457.00,0.0496
454.00,0.0501
451.00,0.0496
448.00,0.0488
445.00,0.0486
442.00,0.0495
439.00,0.0501
436.00,0.0497
433.00,0.0480
430.00,0.0474
427.00,0.0480
424.00,0.0484
421.00,0.0481
418.00,0.0493
415.00,0.0493
412.00,0.0499
409.00,0.0493
406.00,0.0456
403.00,0.0449
400.00,0.0457