File: FTIR/Olivia/2025_08_15_1CBG_3PVP29_silicone_scan2.csv
Created as New Dataset,Sample 119 By YargerLab Date Friday, August 15 2025
cm-1,A
4000.00,0.0020
3997.00,0.0020
3994.00,0.0020
3991.00,0.0020
3988.00,0.0020
3985.00,0.0020
3982.00,0.0020
3979.00,0.0019
3976.00,0.0019
3973.00,0.0019
3970.00,0.0019
3967.00,0.0019
3964.00,0.0019
3961.00,0.0020
3958.00,0.0020
3955.00,0.0020
3952.00,0.0019
3949.00,0.0019
3946.00,0.0019
3943.00,0.0019
3940.00,0.0019
3937.00,0.0019
3934.00,0.0019
3931.00,0.0018
3928.00,0.0018
3925.00,0.0018
3922.00,0.0017
3919.00,0.0018
3916.00,0.0018
3913.00,0.0018
3910.00,0.0018
3907.00,0.0018
3904.00,0.0018
3901.00,0.0016
3898.00,0.0016
3895.00,0.0018
3892.00,0.0018
3889.00,0.0017
3886.00,0.0018
3883.00,0.0017
3880.00,0.0017
3877.00,0.0017
3874.00,0.0017
3871.00,0.0017
3868.00,0.0016
3865.00,0.0016
3862.00,0.0016
3859.00,0.0017
3856.00,0.0016
3853.00,0.0015
3850.00,0.0016
3847.00,0.0017
3844.00,0.0018
3841.00,0.0017
3838.00,0.0016
3835.00,0.0017
3832.00,0.0018
3829.00,0.0018
3826.00,0.0018
3823.00,0.0017
3820.00,0.0017
3817.00,0.0016
3814.00,0.0017
3811.00,0.0018
3808.00,0.0018
3805.00,0.0017
3802.00,0.0016
3799.00,0.0016
3796.00,0.0017
3793.00,0.0018
3790.00,0.0018
3787.00,0.0018
3784.00,0.0018
3781.00,0.0018
3778.00,0.0019
3775.00,0.0019
3772.00,0.0018
3769.00,0.0018
3766.00,0.0018
3763.00,0.0018
3760.00,0.0018
3757.00,0.0017
3754.00,0.0016
3751.00,0.0015
3748.00,0.0014
3745.00,0.0015
3742.00,0.0015
3739.00,0.0016
3736.00,0.0016
3733.00,0.0015
3730.00,0.0016
3727.00,0.0016
3724.00,0.0017
3721.00,0.0018
3718.00,0.0018
3715.00,0.0017
3712.00,0.0017
3709.00,0.0016
3706.00,0.0018
3703.00,0.0018
3700.00,0.0019
3697.00,0.0019
3694.00,0.0019
3691.00,0.0020
3688.00,0.0020
3685.00,0.0023
3682.00,0.0025
3679.00,0.0025
3676.00,0.0026
3673.00,0.0025
3670.00,0.0026
3667.00,0.0028
3664.00,0.0030
3661.00,0.0031
3658.00,0.0032
3655.00,0.0033
3652.00,0.0033
3649.00,0.0036
3646.00,0.0037
3643.00,0.0040
3640.00,0.0043
3637.00,0.0045
3634.00,0.0046
3631.00,0.0047
3628.00,0.0051
3625.00,0.0054
3622.00,0.0056
3619.00,0.0059
3616.00,0.0061
3613.00,0.0065
3610.00,0.0068
3607.00,0.0071
3604.00,0.0075
3601.00,0.0079
3598.00,0.0082
3595.00,0.0087
3592.00,0.0090
3589.00,0.0093
3586.00,0.0098
3583.00,0.0103
3580.00,0.0107
3577.00,0.0112
3574.00,0.0116
3571.00,0.0119
3568.00,0.0123
3565.00,0.0129
3562.00,0.0134
3559.00,0.0138
3556.00,0.0143
3553.00,0.0146
3550.00,0.0150
3547.00,0.0154
3544.00,0.0158
3541.00,0.0161
3538.00,0.0165
3535.00,0.0170
3532.00,0.0172
3529.00,0.0176
3526.00,0.0180
3523.00,0.0184
3520.00,0.0187
3517.00,0.0191
3514.00,0.0195
3511.00,0.0198
3508.00,0.0202
3505.00,0.0206
3502.00,0.0210
3499.00,0.0213
3496.00,0.0217
3493.00,0.0220
3490.00,0.0223
3487.00,0.0227
3484.00,0.0230
3481.00,0.0234
3478.00,0.0238
3475.00,0.0241
3472.00,0.0244
3469.00,0.0247
3466.00,0.0250
3463.00,0.0252
3460.00,0.0255
3457.00,0.0257
3454.00,0.0259
3451.00,0.0262
3448.00,0.0264
3445.00,0.0267
3442.00,0.0269
3439.00,0.0271
3436.00,0.0274
3433.00,0.0276
3430.00,0.0278
3427.00,0.0280
3424.00,0.0282
3421.00,0.0284
3418.00,0.0286
3415.00,0.0289
3412.00,0.0290
3409.00,0.0293
3406.00,0.0295
3403.00,0.0297
3400.00,0.0299
3397.00,0.0301
3394.00,0.0303
3391.00,0.0306
3388.00,0.0309
3385.00,0.0311
3382.00,0.0313
3379.00,0.0314
3376.00,0.0316
3373.00,0.0319
3370.00,0.0318
3367.00,0.0321
3364.00,0.0325
3361.00,0.0326
3358.00,0.0329
3355.00,0.0331
3352.00,0.0330
3349.00,0.0332
3346.00,0.0335
3343.00,0.0334
3340.00,0.0335
3337.00,0.0338
3334.00,0.0342
3331.00,0.0344
3328.00,0.0343
3325.00,0.0342
3322.00,0.0347
3319.00,0.0350
3316.00,0.0351
3313.00,0.0350
3310.00,0.0347
3307.00,0.0344
3304.00,0.0349
3301.00,0.0354
3298.00,0.0353
3295.00,0.0351
3292.00,0.0353
3289.00,0.0357
3286.00,0.0359
3283.00,0.0359
3280.00,0.0359
3277.00,0.0356
3274.00,0.0354
3271.00,0.0353
3268.00,0.0354
3265.00,0.0355
3262.00,0.0354
3259.00,0.0353
3256.00,0.0352
3253.00,0.0350
3250.00,0.0349
3247.00,0.0347
3244.00,0.0347
3241.00,0.0346
3238.00,0.0344
3235.00,0.0342
3232.00,0.0340
3229.00,0.0339
3226.00,0.0337
3223.00,0.0335
3220.00,0.0334
3217.00,0.0331
3214.00,0.0329
3211.00,0.0328
3208.00,0.0327
3205.00,0.0325
3202.00,0.0324
3199.00,0.0321
3196.00,0.0319
3193.00,0.0316
3190.00,0.0313
3187.00,0.0311
3184.00,0.0308
3181.00,0.0305
3178.00,0.0301
3175.00,0.0298
3172.00,0.0295
3169.00,0.0291
3166.00,0.0288
3163.00,0.0284
3160.00,0.0279
3157.00,0.0276
3154.00,0.0272
3151.00,0.0268
3148.00,0.0265
3145.00,0.0262
3142.00,0.0258
3139.00,0.0255
3136.00,0.0253
3133.00,0.0250
3130.00,0.0248
3127.00,0.0245
3124.00,0.0242
3121.00,0.0239
3118.00,0.0236
3115.00,0.0232
3112.00,0.0228
3109.00,0.0224
3106.00,0.0220
3103.00,0.0217
3100.00,0.0213
3097.00,0.0209
3094.00,0.0204
3091.00,0.0201
3088.00,0.0197
3085.00,0.0194
3082.00,0.0191
3079.00,0.0188
3076.00,0.0185
3073.00,0.0182
3070.00,0.0180
3067.00,0.0178
3064.00,0.0176
3061.00,0.0174
3058.00,0.0172
3055.00,0.0171
3052.00,0.0169
3049.00,0.0167
3046.00,0.0165
3043.00,0.0163
3040.00,0.0161
3037.00,0.0161
3034.00,0.0161
3031.00,0.0161
3028.00,0.0161
3025.00,0.0161
3022.00,0.0161
3019.00,0.0162
3016.00,0.0164
3013.00,0.0168
3010.00,0.0174
3007.00,0.0183
3004.00,0.0195
3001.00,0.0210
2998.00,0.0228
2995.00,0.0249
2992.00,0.0273
2989.00,0.0298
2986.00,0.0322
2983.00,0.0343
2980.00,0.0361
2977.00,0.0378
2974.00,0.0395
2971.00,0.0416
2968.00,0.0440
2965.00,0.0466
2962.00,0.0491
2959.00,0.0511
2956.00,0.0522
2953.00,0.0524
2950.00,0.0518
2947.00,0.0510
2944.00,0.0506
2941.00,0.0511
2938.00,0.0527
2935.00,0.0550
2932.00,0.0574
2929.00,0.0596
2926.00,0.0611
2923.00,0.0617
2920.00,0.0614
2917.00,0.0600
2914.00,0.0579
2911.00,0.0553
2908.00,0.0526
2905.00,0.0500
2902.00,0.0482
2899.00,0.0470
2896.00,0.0461
2893.00,0.0454
2890.00,0.0446
2887.00,0.0438
2884.00,0.0432
2881.00,0.0427
2878.00,0.0425
2875.00,0.0424
2872.00,0.0424
2869.00,0.0422
2866.00,0.0418
2863.00,0.0419
2860.00,0.0425
2857.00,0.0426
2854.00,0.0413
2851.00,0.0385
2848.00,0.0351
2845.00,0.0319
2842.00,0.0289
2839.00,0.0263
2836.00,0.0245
2833.00,0.0230
2830.00,0.0217
2827.00,0.0204
2824.00,0.0191
2821.00,0.0178
2818.00,0.0167
2815.00,0.0156
2812.00,0.0146
2809.00,0.0138
2806.00,0.0131
2803.00,0.0124
2800.00,0.0119
2797.00,0.0114
2794.00,0.0111
2791.00,0.0108
2788.00,0.0105
2785.00,0.0103
2782.00,0.0101
2779.00,0.0099
2776.00,0.0096
2773.00,0.0094
2770.00,0.0093
2767.00,0.0092
2764.00,0.0090
2761.00,0.0090
2758.00,0.0089
2755.00,0.0089
2752.00,0.0089
2749.00,0.0089
2746.00,0.0089
2743.00,0.0090
2740.00,0.0090
2737.00,0.0091
2734.00,0.0091
2731.00,0.0092
2728.00,0.0091
2725.00,0.0091
2722.00,0.0090
2719.00,0.0089
2716.00,0.0089
2713.00,0.0088
2710.00,0.0087
2707.00,0.0086
2704.00,0.0086
2701.00,0.0085
2698.00,0.0084
2695.00,0.0084
2692.00,0.0083
2689.00,0.0082
2686.00,0.0081
2683.00,0.0081
2680.00,0.0080
2677.00,0.0079
2674.00,0.0078
2671.00,0.0078
2668.00,0.0077
2665.00,0.0077
2662.00,0.0078
2659.00,0.0077
2656.00,0.0077
2653.00,0.0076
2650.00,0.0075
2647.00,0.0074
2644.00,0.0073
2641.00,0.0072
2638.00,0.0071
2635.00,0.0070
2632.00,0.0069
2629.00,0.0068
2626.00,0.0067
2623.00,0.0065
2620.00,0.0064
2617.00,0.0064
2614.00,0.0063
2611.00,0.0062
2608.00,0.0061
2605.00,0.0061
2602.00,0.0061
2599.00,0.0061
2596.00,0.0061
2593.00,0.0060
2590.00,0.0060
2587.00,0.0061
2584.00,0.0060
2581.00,0.0060
2578.00,0.0059
2575.00,0.0059
2572.00,0.0057
2569.00,0.0056
2566.00,0.0056
2563.00,0.0056
2560.00,0.0055
2557.00,0.0054
2554.00,0.0054
2551.00,0.0053
2548.00,0.0052
2545.00,0.0052
2542.00,0.0052
2539.00,0.0052
2536.00,0.0051
2533.00,0.0051
2530.00,0.0051
2527.00,0.0050
2524.00,0.0049
2521.00,0.0049
2518.00,0.0048
2515.00,0.0048
2512.00,0.0047
2509.00,0.0046
2506.00,0.0046
2503.00,0.0046
2500.00,0.0045
2497.00,0.0045
2494.00,0.0045
2491.00,0.0044
2488.00,0.0044
2485.00,0.0043
2482.00,0.0042
2479.00,0.0041
2476.00,0.0041
2473.00,0.0041
2470.00,0.0040
2467.00,0.0040
2464.00,0.0040
2461.00,0.0040
2458.00,0.0040
2455.00,0.0040
2452.00,0.0040
2449.00,0.0039
2446.00,0.0039
2443.00,0.0039
2440.00,0.0039
2437.00,0.0038
2434.00,0.0038
2431.00,0.0038
2428.00,0.0037
2425.00,0.0036
2422.00,0.0037
2419.00,0.0037
2416.00,0.0037
2413.00,0.0038
2410.00,0.0038
2407.00,0.0037
2404.00,0.0038
2401.00,0.0038
2398.00,0.0038
2395.00,0.0037
2392.00,0.0037
2389.00,0.0036
2386.00,0.0035
2383.00,0.0034
2380.00,0.0032
2377.00,0.0032
2374.00,0.0033
2371.00,0.0034
2368.00,0.0034
2365.00,0.0033
2362.00,0.0034
2359.00,0.0035
2356.00,0.0035
2353.00,0.0034
2350.00,0.0035
2347.00,0.0036
2344.00,0.0037
2341.00,0.0037
2338.00,0.0038
2335.00,0.0038
2332.00,0.0037
2329.00,0.0038
2326.00,0.0047
2323.00,0.0046
2320.00,0.0043
2317.00,0.0041
2314.00,0.0040
2311.00,0.0038
2308.00,0.0039
2305.00,0.0039
2302.00,0.0039
2299.00,0.0040
2296.00,0.0041
2293.00,0.0041
2290.00,0.0043
2287.00,0.0044
2284.00,0.0043
2281.00,0.0041
2278.00,0.0041
2275.00,0.0040
2272.00,0.0040
2269.00,0.0038
2266.00,0.0037
2263.00,0.0038
2260.00,0.0039
2257.00,0.0035
2254.00,0.0033
2251.00,0.0036
2248.00,0.0037
2245.00,0.0037
2242.00,0.0038
2239.00,0.0039
2236.00,0.0039
2233.00,0.0038
2230.00,0.0036
2227.00,0.0035
2224.00,0.0037
2221.00,0.0039
2218.00,0.0037
2215.00,0.0038
2212.00,0.0040
2209.00,0.0038
2206.00,0.0036
2203.00,0.0037
2200.00,0.0036
2197.00,0.0039
2194.00,0.0041
2191.00,0.0040
2188.00,0.0039
2185.00,0.0036
2182.00,0.0030
2179.00,0.0034
2176.00,0.0031
2173.00,0.0033
2170.00,0.0040
2167.00,0.0043
2164.00,0.0046
2161.00,0.0031
2158.00,0.0005
2155.00,0.0012
2152.00,0.0018
2149.00,0.0019
2146.00,0.0018
2143.00,0.0021
2140.00,0.0023
2137.00,0.0021
2134.00,0.0017
2131.00,0.0022
2128.00,0.0026
2125.00,0.0028
2122.00,0.0029
2119.00,0.0032
2116.00,0.0034
2113.00,0.0035
2110.00,0.0034
2107.00,0.0031
2104.00,0.0031
2101.00,0.0029
2098.00,0.0029
2095.00,0.0026
2092.00,0.0027
2089.00,0.0027
2086.00,0.0028
2083.00,0.0029
2080.00,0.0031
2077.00,0.0029
2074.00,0.0028
2071.00,0.0029
2068.00,0.0029
2065.00,0.0027
2062.00,0.0026
2059.00,0.0027
2056.00,0.0027
2053.00,0.0034
2050.00,0.0035
2047.00,0.0028
2044.00,0.0029
2041.00,0.0026
2038.00,0.0028
2035.00,0.0025
2032.00,0.0020
2029.00,0.0018
2026.00,0.0020
2023.00,0.0020
2020.00,0.0022
2017.00,0.0020
2014.00,0.0018
2011.00,0.0021
2008.00,0.0016
2005.00,0.0013
2002.00,0.0017
1999.00,0.0019
1996.00,0.0023
1993.00,0.0024
1990.00,0.0024
1987.00,0.0028
1984.00,0.0031
1981.00,0.0034
1978.00,0.0017
1975.00,0.0010
1972.00,0.0013
1969.00,0.0019
1966.00,0.0016
1963.00,0.0015
1960.00,0.0012
1957.00,0.0016
1954.00,0.0019
1951.00,0.0019
1948.00,0.0020
1945.00,0.0020
1942.00,0.0018
1939.00,0.0020
1936.00,0.0020
1933.00,0.0021
1930.00,0.0022
1927.00,0.0021
1924.00,0.0024
1921.00,0.0026
1918.00,0.0026
1915.00,0.0026
1912.00,0.0027
1909.00,0.0027
1906.00,0.0026
1903.00,0.0026
1900.00,0.0026
1897.00,0.0026
1894.00,0.0026
1891.00,0.0028
1888.00,0.0026
1885.00,0.0026
1882.00,0.0026
1879.00,0.0027
1876.00,0.0028
1873.00,0.0027
1870.00,0.0028
1867.00,0.0029
1864.00,0.0028
1861.00,0.0029
1858.00,0.0028
1855.00,0.0028
1852.00,0.0029
1849.00,0.0031
1846.00,0.0029
1843.00,0.0030
1840.00,0.0031
1837.00,0.0032
1834.00,0.0031
1831.00,0.0033
1828.00,0.0032
1825.00,0.0032
1822.00,0.0033
1819.00,0.0032
1816.00,0.0031
1813.00,0.0033
1810.00,0.0033
1807.00,0.0034
1804.00,0.0035
1801.00,0.0035
1798.00,0.0036
1795.00,0.0036
1792.00,0.0036
1789.00,0.0037
1786.00,0.0039
1783.00,0.0041
1780.00,0.0043
1777.00,0.0043
1774.00,0.0044
1771.00,0.0046
1768.00,0.0049
1765.00,0.0049
1762.00,0.0050
1759.00,0.0053
1756.00,0.0056
1753.00,0.0057
1750.00,0.0063
1747.00,0.0067
1744.00,0.0071
1741.00,0.0072
1738.00,0.0077
1735.00,0.0081
1732.00,0.0093
1729.00,0.0100
1726.00,0.0110
1723.00,0.0122
1720.00,0.0131
1717.00,0.0151
1714.00,0.0175
1711.00,0.0205
1708.00,0.0242
1705.00,0.0302
1702.00,0.0361
1699.00,0.0511
1696.00,0.0671
1693.00,0.0876
1690.00,0.1087
1687.00,0.1296
1684.00,0.1545
1681.00,0.1734
1678.00,0.1859
1675.00,0.1993
1672.00,0.2106
1669.00,0.2261
1666.00,0.2407
1663.00,0.2564
1660.00,0.2716
1657.00,0.2805
1654.00,0.2854
1651.00,0.2836
1648.00,0.2719
1645.00,0.2462
1642.00,0.2193
1639.00,0.1901
1636.00,0.1598
1633.00,0.1340
1630.00,0.1167
1627.00,0.1031
1624.00,0.0947
1621.00,0.0893
1618.00,0.0839
1615.00,0.0766
1612.00,0.0696
1609.00,0.0639
1606.00,0.0628
1603.00,0.0667
1600.00,0.0715
1597.00,0.0712
1594.00,0.0650
1591.00,0.0573
1588.00,0.0508
1585.00,0.0454
1582.00,0.0403
1579.00,0.0358
1576.00,0.0317
1573.00,0.0288
1570.00,0.0266
1567.00,0.0250
1564.00,0.0237
1561.00,0.0221
1558.00,0.0212
1555.00,0.0212
1552.00,0.0211
1549.00,0.0209
1546.00,0.0209
1543.00,0.0209
1540.00,0.0208
1537.00,0.0209
1534.00,0.0204
1531.00,0.0201
1528.00,0.0199
1525.00,0.0199
1522.00,0.0201
1519.00,0.0206
1516.00,0.0210
1513.00,0.0215
1510.00,0.0227
1507.00,0.0250
1504.00,0.0307
1501.00,0.0369
1498.00,0.0460
1495.00,0.0542
1492.00,0.0547
1489.00,0.0479
1486.00,0.0389
1483.00,0.0333
1480.00,0.0309
1477.00,0.0319
1474.00,0.0369
1471.00,0.0503
1468.00,0.0666
1465.00,0.0897
1462.00,0.1082
1459.00,0.1101
1456.00,0.0963
1453.00,0.0876
1450.00,0.0876
1447.00,0.0993
1444.00,0.1163
1441.00,0.1339
1438.00,0.1470
1435.00,0.1610
1432.00,0.1712
1429.00,0.1819
1426.00,0.1895
1423.00,0.1942
1420.00,0.1827
1417.00,0.1474
1414.00,0.1147
1411.00,0.0900
1408.00,0.0752
1405.00,0.0669
1402.00,0.0622
1399.00,0.0600
1396.00,0.0591
1393.00,0.0594
1390.00,0.0610
1387.00,0.0647
1384.00,0.0699
1381.00,0.0752
1378.00,0.0795
1375.00,0.0807
1372.00,0.0770
1369.00,0.0715
1366.00,0.0653
1363.00,0.0590
1360.00,0.0539
1357.00,0.0514
1354.00,0.0499
1351.00,0.0484
1348.00,0.0463
1345.00,0.0443
1342.00,0.0434
1339.00,0.0436
1336.00,0.0447
1333.00,0.0470
1330.00,0.0507
1327.00,0.0562
1324.00,0.0633
1321.00,0.0700
1318.00,0.0734
1315.00,0.0720
1312.00,0.0673
1309.00,0.0631
1306.00,0.0620
1303.00,0.0665
1300.00,0.0797
1297.00,0.1051
1294.00,0.1411
1291.00,0.1752
1288.00,0.1943
1285.00,0.1937
1282.00,0.1791
1279.00,0.1667
1276.00,0.1656
1273.00,0.1681
1270.00,0.1627
1267.00,0.1471
1264.00,0.1276
1261.00,0.1097
1258.00,0.0949
1255.00,0.0831
1252.00,0.0739
1249.00,0.0671
1246.00,0.0629
1243.00,0.0615
1240.00,0.0630
1237.00,0.0677
1234.00,0.0749
1231.00,0.0823
1228.00,0.0863
1225.00,0.0865
1222.00,0.0849
1219.00,0.0819
1216.00,0.0768
1213.00,0.0705
1210.00,0.0646
1207.00,0.0600
1204.00,0.0566
1201.00,0.0536
1198.00,0.0508
1195.00,0.0484
1192.00,0.0467
1189.00,0.0458
1186.00,0.0454
1183.00,0.0457
1180.00,0.0471
1177.00,0.0505
1174.00,0.0559
1171.00,0.0623
1168.00,0.0673
1165.00,0.0685
1162.00,0.0651
1159.00,0.0590
1156.00,0.0533
1153.00,0.0480
1150.00,0.0432
1147.00,0.0388
1144.00,0.0351
1141.00,0.0324
1138.00,0.0304
1135.00,0.0288
1132.00,0.0279
1129.00,0.0278
1126.00,0.0282
1123.00,0.0289
1120.00,0.0300
1117.00,0.0315
1114.00,0.0336
1111.00,0.0360
1108.00,0.0376
1105.00,0.0380
1102.00,0.0381
1099.00,0.0392
1096.00,0.0408
1093.00,0.0419
1090.00,0.0425
1087.00,0.0443
1084.00,0.0467
1081.00,0.0474
1078.00,0.0462
1075.00,0.0446
1072.00,0.0427
1069.00,0.0407
1066.00,0.0396
1063.00,0.0402
1060.00,0.0437
1057.00,0.0522
1054.00,0.0678
1051.00,0.0845
1048.00,0.0901
1045.00,0.0856
1042.00,0.0811
1039.00,0.0800
1036.00,0.0794
1033.00,0.0772
1030.00,0.0735
1027.00,0.0693
1024.00,0.0656
1021.00,0.0630
1018.00,0.0602
1015.00,0.0545
1012.00,0.0466
1009.00,0.0411
1006.00,0.0407
1003.00,0.0429
1000.00,0.0417
997.00,0.0380
994.00,0.0351
991.00,0.0338
988.00,0.0336
985.00,0.0331
982.00,0.0315
979.00,0.0294
976.00,0.0278
973.00,0.0264
970.00,0.0249
967.00,0.0234
964.00,0.0221
961.00,0.0210
958.00,0.0198
955.00,0.0189
952.00,0.0181
949.00,0.0178
946.00,0.0178
943.00,0.0183
940.00,0.0198
937.00,0.0228
934.00,0.0260
931.00,0.0259
928.00,0.0239
925.00,0.0234
922.00,0.0233
919.00,0.0239
916.00,0.0247
913.00,0.0256
910.00,0.0267
907.00,0.0276
904.00,0.0280
901.00,0.0285
898.00,0.0293
895.00,0.0296
892.00,0.0289
889.00,0.0279
886.00,0.0272
883.00,0.0272
880.00,0.0274
877.00,0.0281
874.00,0.0288
871.00,0.0298
868.00,0.0312
865.00,0.0335
862.00,0.0368
859.00,0.0410
856.00,0.0458
853.00,0.0512
850.00,0.0563
847.00,0.0603
844.00,0.0629
841.00,0.0643
838.00,0.0650
835.00,0.0656
832.00,0.0656
829.00,0.0646
826.00,0.0615
823.00,0.0566
820.00,0.0515
817.00,0.0474
814.00,0.0446
811.00,0.0429
808.00,0.0418
805.00,0.0413
802.00,0.0411
799.00,0.0416
796.00,0.0421
793.00,0.0425
790.00,0.0425
787.00,0.0426
784.00,0.0430
781.00,0.0439
778.00,0.0445
775.00,0.0449
772.00,0.0452
769.00,0.0458
766.00,0.0468
763.00,0.0486
760.00,0.0514
757.00,0.0547
754.00,0.0581
751.00,0.0616
748.00,0.0652
745.00,0.0685
742.00,0.0712
739.00,0.0737
736.00,0.0754
733.00,0.0748
730.00,0.0714
727.00,0.0667
724.00,0.0624
721.00,0.0596
718.00,0.0578
715.00,0.0569
712.00,0.0567
709.00,0.0570
706.00,0.0574
703.00,0.0579
700.00,0.0588
697.00,0.0599
694.00,0.0612
691.00,0.0629
688.00,0.0651
685.00,0.0678
682.00,0.0701
679.00,0.0722
676.00,0.0744
673.00,0.0770
670.00,0.0793
667.00,0.0840
664.00,0.0877
661.00,0.0923
658.00,0.0978
655.00,0.1037
652.00,0.1087
649.00,0.1115
646.00,0.1107
643.00,0.1068
640.00,0.1011
637.00,0.0956
634.00,0.0910
631.00,0.0872
628.00,0.0842
625.00,0.0817
622.00,0.0800
619.00,0.0794
616.00,0.0793
613.00,0.0794
610.00,0.0801
607.00,0.0808
604.00,0.0825
601.00,0.0842
598.00,0.0855
595.00,0.0872
592.00,0.0898
589.00,0.0930
586.00,0.0975
583.00,0.1032
580.00,0.1085
577.00,0.1121
574.00,0.1133
571.00,0.1127
568.00,0.1107
565.00,0.1072
562.00,0.1028
559.00,0.0979
556.00,0.0937
553.00,0.0903
550.00,0.0880
547.00,0.0860
544.00,0.0848
541.00,0.0835
538.00,0.0824
535.00,0.0816
532.00,0.0813
529.00,0.0811
526.00,0.0804
523.00,0.0793
520.00,0.0787
517.00,0.0783
514.00,0.0775
511.00,0.0768
508.00,0.0760
505.00,0.0757
502.00,0.0756
499.00,0.0759
496.00,0.0763
493.00,0.0764
490.00,0.0773
487.00,0.0777
484.00,0.0778
481.00,0.0788
478.00,0.0789
475.00,0.0792
472.00,0.0801
469.00,0.0794
466.00,0.0779
463.00,0.0766
460.00,0.0766
457.00,0.0768
454.00,0.0764
451.00,0.0765
448.00,0.0750
445.00,0.0735
442.00,0.0720
439.00,0.0702
436.00,0.0699
433.00,0.0685
430.00,0.0675
427.00,0.0665
424.00,0.0673
421.00,0.0676
418.00,0.0661
415.00,0.0659
412.00,0.0652
409.00,0.0665
406.00,0.0680
403.00,0.0700
400.00,0.0687