File: FTIR/Olivia/2025_07_29_CBN_PVP90kDa_MC_1to3_Powder_scan1.csv
Created as New Dataset,Sample 954 By YargerLab Date Tuesday, July 29 2025
cm-1,A
4000.00,0.0059
3997.00,0.0058
3994.00,0.0058
3991.00,0.0058
3988.00,0.0058
3985.00,0.0058
3982.00,0.0059
3979.00,0.0058
3976.00,0.0059
3973.00,0.0059
3970.00,0.0060
3967.00,0.0059
3964.00,0.0059
3961.00,0.0059
3958.00,0.0058
3955.00,0.0058
3952.00,0.0058
3949.00,0.0058
3946.00,0.0058
3943.00,0.0058
3940.00,0.0059
3937.00,0.0059
3934.00,0.0058
3931.00,0.0058
3928.00,0.0058
3925.00,0.0058
3922.00,0.0058
3919.00,0.0058
3916.00,0.0058
3913.00,0.0058
3910.00,0.0059
3907.00,0.0058
3904.00,0.0058
3901.00,0.0058
3898.00,0.0058
3895.00,0.0058
3892.00,0.0057
3889.00,0.0058
3886.00,0.0058
3883.00,0.0058
3880.00,0.0058
3877.00,0.0058
3874.00,0.0058
3871.00,0.0057
3868.00,0.0057
3865.00,0.0057
3862.00,0.0057
3859.00,0.0058
3856.00,0.0059
3853.00,0.0058
3850.00,0.0058
3847.00,0.0057
3844.00,0.0057
3841.00,0.0056
3838.00,0.0057
3835.00,0.0057
3832.00,0.0057
3829.00,0.0057
3826.00,0.0057
3823.00,0.0057
3820.00,0.0057
3817.00,0.0057
3814.00,0.0057
3811.00,0.0057
3808.00,0.0058
3805.00,0.0057
3802.00,0.0056
3799.00,0.0056
3796.00,0.0056
3793.00,0.0057
3790.00,0.0057
3787.00,0.0057
3784.00,0.0057
3781.00,0.0057
3778.00,0.0056
3775.00,0.0057
3772.00,0.0057
3769.00,0.0057
3766.00,0.0057
3763.00,0.0058
3760.00,0.0058
3757.00,0.0057
3754.00,0.0057
3751.00,0.0057
3748.00,0.0057
3745.00,0.0057
3742.00,0.0057
3739.00,0.0056
3736.00,0.0055
3733.00,0.0055
3730.00,0.0056
3727.00,0.0056
3724.00,0.0055
3721.00,0.0055
3718.00,0.0055
3715.00,0.0055
3712.00,0.0055
3709.00,0.0055
3706.00,0.0055
3703.00,0.0054
3700.00,0.0054
3697.00,0.0054
3694.00,0.0054
3691.00,0.0054
3688.00,0.0055
3685.00,0.0055
3682.00,0.0054
3679.00,0.0054
3676.00,0.0054
3673.00,0.0055
3670.00,0.0055
3667.00,0.0055
3664.00,0.0055
3661.00,0.0055
3658.00,0.0055
3655.00,0.0054
3652.00,0.0055
3649.00,0.0054
3646.00,0.0055
3643.00,0.0055
3640.00,0.0054
3637.00,0.0055
3634.00,0.0055
3631.00,0.0056
3628.00,0.0056
3625.00,0.0056
3622.00,0.0056
3619.00,0.0056
3616.00,0.0056
3613.00,0.0057
3610.00,0.0058
3607.00,0.0058
3604.00,0.0058
3601.00,0.0059
3598.00,0.0059
3595.00,0.0059
3592.00,0.0059
3589.00,0.0059
3586.00,0.0060
3583.00,0.0061
3580.00,0.0062
3577.00,0.0063
3574.00,0.0063
3571.00,0.0064
3568.00,0.0064
3565.00,0.0064
3562.00,0.0066
3559.00,0.0067
3556.00,0.0068
3553.00,0.0069
3550.00,0.0070
3547.00,0.0071
3544.00,0.0072
3541.00,0.0074
3538.00,0.0075
3535.00,0.0077
3532.00,0.0078
3529.00,0.0079
3526.00,0.0081
3523.00,0.0082
3520.00,0.0083
3517.00,0.0085
3514.00,0.0086
3511.00,0.0087
3508.00,0.0088
3505.00,0.0089
3502.00,0.0091
3499.00,0.0092
3496.00,0.0094
3493.00,0.0096
3490.00,0.0098
3487.00,0.0101
3484.00,0.0104
3481.00,0.0107
3478.00,0.0110
3475.00,0.0113
3472.00,0.0116
3469.00,0.0120
3466.00,0.0123
3463.00,0.0127
3460.00,0.0131
3457.00,0.0135
3454.00,0.0140
3451.00,0.0143
3448.00,0.0148
3445.00,0.0153
3442.00,0.0158
3439.00,0.0163
3436.00,0.0169
3433.00,0.0176
3430.00,0.0182
3427.00,0.0189
3424.00,0.0197
3421.00,0.0204
3418.00,0.0213
3415.00,0.0220
3412.00,0.0226
3409.00,0.0232
3406.00,0.0237
3403.00,0.0241
3400.00,0.0243
3397.00,0.0243
3394.00,0.0242
3391.00,0.0240
3388.00,0.0237
3385.00,0.0234
3382.00,0.0230
3379.00,0.0225
3376.00,0.0219
3373.00,0.0215
3370.00,0.0212
3367.00,0.0208
3364.00,0.0204
3361.00,0.0200
3358.00,0.0197
3355.00,0.0194
3352.00,0.0192
3349.00,0.0190
3346.00,0.0188
3343.00,0.0186
3340.00,0.0185
3337.00,0.0184
3334.00,0.0184
3331.00,0.0184
3328.00,0.0183
3325.00,0.0183
3322.00,0.0184
3319.00,0.0185
3316.00,0.0187
3313.00,0.0188
3310.00,0.0189
3307.00,0.0191
3304.00,0.0193
3301.00,0.0196
3298.00,0.0198
3295.00,0.0200
3292.00,0.0203
3289.00,0.0206
3286.00,0.0209
3283.00,0.0212
3280.00,0.0214
3277.00,0.0218
3274.00,0.0221
3271.00,0.0224
3268.00,0.0226
3265.00,0.0229
3262.00,0.0233
3259.00,0.0236
3256.00,0.0239
3253.00,0.0243
3250.00,0.0245
3247.00,0.0247
3244.00,0.0250
3241.00,0.0253
3238.00,0.0254
3235.00,0.0253
3232.00,0.0253
3229.00,0.0255
3226.00,0.0255
3223.00,0.0255
3220.00,0.0254
3217.00,0.0252
3214.00,0.0250
3211.00,0.0248
3208.00,0.0245
3205.00,0.0241
3202.00,0.0238
3199.00,0.0234
3196.00,0.0230
3193.00,0.0226
3190.00,0.0222
3187.00,0.0218
3184.00,0.0214
3181.00,0.0209
3178.00,0.0205
3175.00,0.0201
3172.00,0.0197
3169.00,0.0192
3166.00,0.0188
3163.00,0.0183
3160.00,0.0178
3157.00,0.0173
3154.00,0.0168
3151.00,0.0164
3148.00,0.0160
3145.00,0.0156
3142.00,0.0152
3139.00,0.0148
3136.00,0.0145
3133.00,0.0142
3130.00,0.0139
3127.00,0.0137
3124.00,0.0134
3121.00,0.0131
3118.00,0.0129
3115.00,0.0126
3112.00,0.0123
3109.00,0.0120
3106.00,0.0118
3103.00,0.0116
3100.00,0.0113
3097.00,0.0112
3094.00,0.0112
3091.00,0.0113
3088.00,0.0114
3085.00,0.0114
3082.00,0.0114
3079.00,0.0113
3076.00,0.0111
3073.00,0.0110
3070.00,0.0109
3067.00,0.0109
3064.00,0.0108
3061.00,0.0108
3058.00,0.0109
3055.00,0.0110
3052.00,0.0110
3049.00,0.0109
3046.00,0.0108
3043.00,0.0108
3040.00,0.0110
3037.00,0.0113
3034.00,0.0116
3031.00,0.0116
3028.00,0.0114
3025.00,0.0110
3022.00,0.0106
3019.00,0.0102
3016.00,0.0101
3013.00,0.0101
3010.00,0.0102
3007.00,0.0105
3004.00,0.0111
3001.00,0.0120
2998.00,0.0133
2995.00,0.0147
2992.00,0.0158
2989.00,0.0167
2986.00,0.0179
2983.00,0.0199
2980.00,0.0227
2977.00,0.0241
2974.00,0.0256
2971.00,0.0289
2968.00,0.0310
2965.00,0.0323
2962.00,0.0341
2959.00,0.0345
2956.00,0.0323
2953.00,0.0292
2950.00,0.0271
2947.00,0.0267
2944.00,0.0281
2941.00,0.0306
2938.00,0.0345
2935.00,0.0402
2932.00,0.0469
2929.00,0.0527
2926.00,0.0548
2923.00,0.0528
2920.00,0.0486
2917.00,0.0439
2914.00,0.0395
2911.00,0.0359
2908.00,0.0331
2905.00,0.0307
2902.00,0.0287
2899.00,0.0268
2896.00,0.0253
2893.00,0.0240
2890.00,0.0230
2887.00,0.0221
2884.00,0.0215
2881.00,0.0218
2878.00,0.0231
2875.00,0.0254
2872.00,0.0269
2869.00,0.0267
2866.00,0.0268
2863.00,0.0294
2860.00,0.0345
2857.00,0.0389
2854.00,0.0399
2851.00,0.0380
2848.00,0.0329
2845.00,0.0273
2842.00,0.0229
2839.00,0.0198
2836.00,0.0179
2833.00,0.0165
2830.00,0.0155
2827.00,0.0147
2824.00,0.0139
2821.00,0.0133
2818.00,0.0129
2815.00,0.0125
2812.00,0.0122
2809.00,0.0119
2806.00,0.0117
2803.00,0.0116
2800.00,0.0113
2797.00,0.0111
2794.00,0.0109
2791.00,0.0106
2788.00,0.0105
2785.00,0.0104
2782.00,0.0102
2779.00,0.0101
2776.00,0.0099
2773.00,0.0099
2770.00,0.0098
2767.00,0.0097
2764.00,0.0097
2761.00,0.0097
2758.00,0.0097
2755.00,0.0097
2752.00,0.0097
2749.00,0.0097
2746.00,0.0098
2743.00,0.0099
2740.00,0.0100
2737.00,0.0101
2734.00,0.0103
2731.00,0.0105
2728.00,0.0105
2725.00,0.0104
2722.00,0.0103
2719.00,0.0102
2716.00,0.0100
2713.00,0.0099
2710.00,0.0099
2707.00,0.0099
2704.00,0.0098
2701.00,0.0098
2698.00,0.0097
2695.00,0.0096
2692.00,0.0096
2689.00,0.0094
2686.00,0.0094
2683.00,0.0093
2680.00,0.0092
2677.00,0.0093
2674.00,0.0093
2671.00,0.0093
2668.00,0.0095
2665.00,0.0096
2662.00,0.0098
2659.00,0.0099
2656.00,0.0100
2653.00,0.0100
2650.00,0.0100
2647.00,0.0100
2644.00,0.0100
2641.00,0.0099
2638.00,0.0098
2635.00,0.0097
2632.00,0.0095
2629.00,0.0094
2626.00,0.0093
2623.00,0.0092
2620.00,0.0092
2617.00,0.0091
2614.00,0.0091
2611.00,0.0091
2608.00,0.0091
2605.00,0.0091
2602.00,0.0092
2599.00,0.0093
2596.00,0.0092
2593.00,0.0092
2590.00,0.0093
2587.00,0.0094
2584.00,0.0094
2581.00,0.0092
2578.00,0.0092
2575.00,0.0092
2572.00,0.0091
2569.00,0.0091
2566.00,0.0091
2563.00,0.0090
2560.00,0.0089
2557.00,0.0087
2554.00,0.0086
2551.00,0.0085
2548.00,0.0086
2545.00,0.0086
2542.00,0.0086
2539.00,0.0086
2536.00,0.0086
2533.00,0.0086
2530.00,0.0086
2527.00,0.0085
2524.00,0.0084
2521.00,0.0083
2518.00,0.0083
2515.00,0.0082
2512.00,0.0081
2509.00,0.0081
2506.00,0.0080
2503.00,0.0080
2500.00,0.0080
2497.00,0.0079
2494.00,0.0078
2491.00,0.0078
2488.00,0.0078
2485.00,0.0078
2482.00,0.0078
2479.00,0.0077
2476.00,0.0076
2473.00,0.0076
2470.00,0.0076
2467.00,0.0075
2464.00,0.0075
2461.00,0.0076
2458.00,0.0076
2455.00,0.0077
2452.00,0.0077
2449.00,0.0077
2446.00,0.0076
2443.00,0.0075
2440.00,0.0074
2437.00,0.0074
2434.00,0.0073
2431.00,0.0073
2428.00,0.0073
2425.00,0.0073
2422.00,0.0072
2419.00,0.0072
2416.00,0.0072
2413.00,0.0072
2410.00,0.0072
2407.00,0.0071
2404.00,0.0071
2401.00,0.0071
2398.00,0.0071
2395.00,0.0071
2392.00,0.0070
2389.00,0.0070
2386.00,0.0070
2383.00,0.0069
2380.00,0.0067
2377.00,0.0067
2374.00,0.0068
2371.00,0.0068
2368.00,0.0068
2365.00,0.0068
2362.00,0.0068
2359.00,0.0068
2356.00,0.0068
2353.00,0.0069
2350.00,0.0068
2347.00,0.0070
2344.00,0.0072
2341.00,0.0071
2338.00,0.0070
2335.00,0.0069
2332.00,0.0069
2329.00,0.0071
2326.00,0.0080
2323.00,0.0079
2320.00,0.0075
2317.00,0.0072
2314.00,0.0072
2311.00,0.0070
2308.00,0.0069
2305.00,0.0070
2302.00,0.0071
2299.00,0.0072
2296.00,0.0074
2293.00,0.0077
2290.00,0.0079
2287.00,0.0080
2284.00,0.0079
2281.00,0.0077
2278.00,0.0075
2275.00,0.0074
2272.00,0.0073
2269.00,0.0072
2266.00,0.0070
2263.00,0.0069
2260.00,0.0069
2257.00,0.0068
2254.00,0.0066
2251.00,0.0066
2248.00,0.0067
2245.00,0.0067
2242.00,0.0067
2239.00,0.0066
2236.00,0.0069
2233.00,0.0070
2230.00,0.0068
2227.00,0.0067
2224.00,0.0068
2221.00,0.0067
2218.00,0.0067
2215.00,0.0067
2212.00,0.0067
2209.00,0.0068
2206.00,0.0068
2203.00,0.0070
2200.00,0.0065
2197.00,0.0065
2194.00,0.0066
2191.00,0.0066
2188.00,0.0068
2185.00,0.0068
2182.00,0.0061
2179.00,0.0064
2176.00,0.0061
2173.00,0.0063
2170.00,0.0067
2167.00,0.0074
2164.00,0.0076
2161.00,0.0059
2158.00,0.0031
2155.00,0.0038
2152.00,0.0048
2149.00,0.0047
2146.00,0.0045
2143.00,0.0047
2140.00,0.0049
2137.00,0.0045
2134.00,0.0042
2131.00,0.0046
2128.00,0.0051
2125.00,0.0054
2122.00,0.0055
2119.00,0.0057
2116.00,0.0058
2113.00,0.0059
2110.00,0.0059
2107.00,0.0058
2104.00,0.0058
2101.00,0.0058
2098.00,0.0054
2095.00,0.0051
2092.00,0.0055
2089.00,0.0058
2086.00,0.0057
2083.00,0.0059
2080.00,0.0061
2077.00,0.0061
2074.00,0.0060
2071.00,0.0059
2068.00,0.0056
2065.00,0.0057
2062.00,0.0057
2059.00,0.0056
2056.00,0.0055
2053.00,0.0061
2050.00,0.0059
2047.00,0.0055
2044.00,0.0055
2041.00,0.0056
2038.00,0.0058
2035.00,0.0055
2032.00,0.0050
2029.00,0.0048
2026.00,0.0052
2023.00,0.0053
2020.00,0.0048
2017.00,0.0046
2014.00,0.0045
2011.00,0.0049
2008.00,0.0046
2005.00,0.0044
2002.00,0.0046
1999.00,0.0048
1996.00,0.0054
1993.00,0.0053
1990.00,0.0055
1987.00,0.0057
1984.00,0.0061
1981.00,0.0068
1978.00,0.0057
1975.00,0.0047
1972.00,0.0045
1969.00,0.0047
1966.00,0.0048
1963.00,0.0048
1960.00,0.0045
1957.00,0.0047
1954.00,0.0050
1951.00,0.0050
1948.00,0.0050
1945.00,0.0050
1942.00,0.0047
1939.00,0.0048
1936.00,0.0051
1933.00,0.0052
1930.00,0.0053
1927.00,0.0054
1924.00,0.0055
1921.00,0.0055
1918.00,0.0055
1915.00,0.0057
1912.00,0.0062
1909.00,0.0072
1906.00,0.0070
1903.00,0.0063
1900.00,0.0061
1897.00,0.0062
1894.00,0.0065
1891.00,0.0064
1888.00,0.0059
1885.00,0.0058
1882.00,0.0059
1879.00,0.0058
1876.00,0.0057
1873.00,0.0057
1870.00,0.0056
1867.00,0.0057
1864.00,0.0058
1861.00,0.0058
1858.00,0.0059
1855.00,0.0059
1852.00,0.0061
1849.00,0.0063
1846.00,0.0065
1843.00,0.0061
1840.00,0.0060
1837.00,0.0059
1834.00,0.0059
1831.00,0.0058
1828.00,0.0057
1825.00,0.0057
1822.00,0.0057
1819.00,0.0057
1816.00,0.0057
1813.00,0.0058
1810.00,0.0058
1807.00,0.0059
1804.00,0.0059
1801.00,0.0060
1798.00,0.0060
1795.00,0.0062
1792.00,0.0060
1789.00,0.0060
1786.00,0.0061
1783.00,0.0061
1780.00,0.0062
1777.00,0.0064
1774.00,0.0066
1771.00,0.0063
1768.00,0.0063
1765.00,0.0063
1762.00,0.0064
1759.00,0.0066
1756.00,0.0065
1753.00,0.0064
1750.00,0.0062
1747.00,0.0062
1744.00,0.0064
1741.00,0.0063
1738.00,0.0063
1735.00,0.0062
1732.00,0.0063
1729.00,0.0070
1726.00,0.0073
1723.00,0.0076
1720.00,0.0075
1717.00,0.0075
1714.00,0.0079
1711.00,0.0085
1708.00,0.0089
1705.00,0.0091
1702.00,0.0093
1699.00,0.0099
1696.00,0.0116
1693.00,0.0129
1690.00,0.0145
1687.00,0.0155
1684.00,0.0166
1681.00,0.0177
1678.00,0.0188
1675.00,0.0195
1672.00,0.0202
1669.00,0.0213
1666.00,0.0221
1663.00,0.0228
1660.00,0.0234
1657.00,0.0234
1654.00,0.0228
1651.00,0.0228
1648.00,0.0225
1645.00,0.0225
1642.00,0.0226
1639.00,0.0223
1636.00,0.0223
1633.00,0.0252
1630.00,0.0333
1627.00,0.0485
1624.00,0.0619
1621.00,0.0684
1618.00,0.0642
1615.00,0.0538
1612.00,0.0538
1609.00,0.0535
1606.00,0.0459
1603.00,0.0367
1600.00,0.0299
1597.00,0.0265
1594.00,0.0275
1591.00,0.0341
1588.00,0.0454
1585.00,0.0544
1582.00,0.0561
1579.00,0.0523
1576.00,0.0448
1573.00,0.0386
1570.00,0.0355
1567.00,0.0323
1564.00,0.0275
1561.00,0.0228
1558.00,0.0173
1555.00,0.0160
1552.00,0.0154
1549.00,0.0149
1546.00,0.0143
1543.00,0.0135
1540.00,0.0124
1537.00,0.0122
1534.00,0.0122
1531.00,0.0119
1528.00,0.0121
1525.00,0.0124
1522.00,0.0128
1519.00,0.0139
1516.00,0.0159
1513.00,0.0179
1510.00,0.0191
1507.00,0.0193
1504.00,0.0198
1501.00,0.0236
1498.00,0.0331
1495.00,0.0392
1492.00,0.0330
1489.00,0.0246
1486.00,0.0198
1483.00,0.0176
1480.00,0.0165
1477.00,0.0165
1474.00,0.0178
1471.00,0.0238
1468.00,0.0341
1465.00,0.0405
1462.00,0.0396
1459.00,0.0397
1456.00,0.0375
1453.00,0.0354
1450.00,0.0360
1447.00,0.0381
1444.00,0.0422
1441.00,0.0471
1438.00,0.0503
1435.00,0.0542
1432.00,0.0592
1429.00,0.0619
1426.00,0.0606
1423.00,0.0572
1420.00,0.0532
1417.00,0.0478
1414.00,0.0442
1411.00,0.0438
1408.00,0.0483
1405.00,0.0574
1402.00,0.0665
1399.00,0.0687
1396.00,0.0620
1393.00,0.0511
1390.00,0.0453
1387.00,0.0479
1384.00,0.0457
1381.00,0.0435
1378.00,0.0438
1375.00,0.0397
1372.00,0.0337
1369.00,0.0360
1366.00,0.0450
1363.00,0.0497
1360.00,0.0571
1357.00,0.0524
1354.00,0.0450
1351.00,0.0430
1348.00,0.0438
1345.00,0.0430
1342.00,0.0393
1339.00,0.0344
1336.00,0.0319
1333.00,0.0334
1330.00,0.0352
1327.00,0.0349
1324.00,0.0331
1321.00,0.0320
1318.00,0.0308
1315.00,0.0287
1312.00,0.0278
1309.00,0.0303
1306.00,0.0367
1303.00,0.0474
1300.00,0.0537
1297.00,0.0509
1294.00,0.0497
1291.00,0.0485
1288.00,0.0498
1285.00,0.0557
1282.00,0.0576
1279.00,0.0506
1276.00,0.0421
1273.00,0.0372
1270.00,0.0340
1267.00,0.0317
1264.00,0.0297
1261.00,0.0273
1258.00,0.0252
1255.00,0.0243
1252.00,0.0249
1249.00,0.0282
1246.00,0.0344
1243.00,0.0400
1240.00,0.0437
1237.00,0.0501
1234.00,0.0566
1231.00,0.0546
1228.00,0.0470
1225.00,0.0407
1222.00,0.0375
1219.00,0.0382
1216.00,0.0417
1213.00,0.0428
1210.00,0.0374
1207.00,0.0321
1204.00,0.0322
1201.00,0.0387
1198.00,0.0494
1195.00,0.0596
1192.00,0.0589
1189.00,0.0492
1186.00,0.0380
1183.00,0.0303
1180.00,0.0261
1177.00,0.0239
1174.00,0.0227
1171.00,0.0222
1168.00,0.0221
1165.00,0.0231
1162.00,0.0268
1159.00,0.0374
1156.00,0.0550
1153.00,0.0581
1150.00,0.0407
1147.00,0.0279
1144.00,0.0237
1141.00,0.0229
1138.00,0.0249
1135.00,0.0322
1132.00,0.0500
1129.00,0.0691
1126.00,0.0698
1123.00,0.0569
1120.00,0.0423
1117.00,0.0352
1114.00,0.0335
1111.00,0.0309
1108.00,0.0284
1105.00,0.0305
1102.00,0.0412
1099.00,0.0497
1096.00,0.0415
1093.00,0.0295
1090.00,0.0233
1087.00,0.0207
1084.00,0.0195
1081.00,0.0192
1078.00,0.0193
1075.00,0.0200
1072.00,0.0213
1069.00,0.0236
1066.00,0.0268
1063.00,0.0327
1060.00,0.0455
1057.00,0.0677
1054.00,0.0878
1051.00,0.0951
1048.00,0.0938
1045.00,0.0813
1042.00,0.0634
1039.00,0.0512
1036.00,0.0489
1033.00,0.0521
1030.00,0.0657
1027.00,0.0851
1024.00,0.0801
1021.00,0.0595
1018.00,0.0443
1015.00,0.0357
1012.00,0.0316
1009.00,0.0331
1006.00,0.0406
1003.00,0.0462
1000.00,0.0437
997.00,0.0397
994.00,0.0370
991.00,0.0330
988.00,0.0279
985.00,0.0245
982.00,0.0227
979.00,0.0221
976.00,0.0222
973.00,0.0220
970.00,0.0216
967.00,0.0216
964.00,0.0226
961.00,0.0232
958.00,0.0202
955.00,0.0176
952.00,0.0164
949.00,0.0174
946.00,0.0177
943.00,0.0180
940.00,0.0204
937.00,0.0221
934.00,0.0238
931.00,0.0244
928.00,0.0228
925.00,0.0239
922.00,0.0276
919.00,0.0254
916.00,0.0198
913.00,0.0168
910.00,0.0157
907.00,0.0161
904.00,0.0190
901.00,0.0258
898.00,0.0289
895.00,0.0242
892.00,0.0257
889.00,0.0290
886.00,0.0211
883.00,0.0183
880.00,0.0203
877.00,0.0278
874.00,0.0433
871.00,0.0608
868.00,0.0628
865.00,0.0515
862.00,0.0399
859.00,0.0323
856.00,0.0354
853.00,0.0443
850.00,0.0539
847.00,0.0539
844.00,0.0435
841.00,0.0380
838.00,0.0422
835.00,0.0542
832.00,0.0575
829.00,0.0469
826.00,0.0340
823.00,0.0406
820.00,0.0666
817.00,0.0771
814.00,0.0743
811.00,0.0432
808.00,0.0286
805.00,0.0229
802.00,0.0203
799.00,0.0190
796.00,0.0181
793.00,0.0175
790.00,0.0170
787.00,0.0167
784.00,0.0167
781.00,0.0169
778.00,0.0189
775.00,0.0249
772.00,0.0237
769.00,0.0197
766.00,0.0188
763.00,0.0201
760.00,0.0229
757.00,0.0226
754.00,0.0207
751.00,0.0202
748.00,0.0207
745.00,0.0215
742.00,0.0238
739.00,0.0302
736.00,0.0439
733.00,0.0473
730.00,0.0451
727.00,0.0445
724.00,0.0344
721.00,0.0290
718.00,0.0314
715.00,0.0369
712.00,0.0355
709.00,0.0315
706.00,0.0304
703.00,0.0322
700.00,0.0356
697.00,0.0370
694.00,0.0345
691.00,0.0357
688.00,0.0410
685.00,0.0382
682.00,0.0354
679.00,0.0363
676.00,0.0403
673.00,0.0460
670.00,0.0488
667.00,0.0460
664.00,0.0460
661.00,0.0480
658.00,0.0446
655.00,0.0400
652.00,0.0380
649.00,0.0368
646.00,0.0362
643.00,0.0354
640.00,0.0346
637.00,0.0341
634.00,0.0340
631.00,0.0340
628.00,0.0347
625.00,0.0373
622.00,0.0418
619.00,0.0444
616.00,0.0402
613.00,0.0348
610.00,0.0347
607.00,0.0429
604.00,0.0538
601.00,0.0584
598.00,0.0583
595.00,0.0572
592.00,0.0554
589.00,0.0532
586.00,0.0510
583.00,0.0509
580.00,0.0536
577.00,0.0617
574.00,0.0600
571.00,0.0509
568.00,0.0459
565.00,0.0474
562.00,0.0542
559.00,0.0594
556.00,0.0550
553.00,0.0507
550.00,0.0540
547.00,0.0620
544.00,0.0623
541.00,0.0561
538.00,0.0514
535.00,0.0526
532.00,0.0592
529.00,0.0584
526.00,0.0499
523.00,0.0434
520.00,0.0401
517.00,0.0384
514.00,0.0367
511.00,0.0368
508.00,0.0385
505.00,0.0395
502.00,0.0372
499.00,0.0348
496.00,0.0350
493.00,0.0377
490.00,0.0382
487.00,0.0353
484.00,0.0334
481.00,0.0322
478.00,0.0308
475.00,0.0302
472.00,0.0296
469.00,0.0299
466.00,0.0297
463.00,0.0292
460.00,0.0290
457.00,0.0288
454.00,0.0288
451.00,0.0282
448.00,0.0279
445.00,0.0281
442.00,0.0278
439.00,0.0278
436.00,0.0276
433.00,0.0268
430.00,0.0265
427.00,0.0249
424.00,0.0242
421.00,0.0245
418.00,0.0236
415.00,0.0264
412.00,0.0297
409.00,0.0333
406.00,0.0305
403.00,0.0265
400.00,0.0262