File: FTIR/Olivia/2025_08_04_1CBN_3PVP10kDa_MC_powder_scan3.csv
Created as New Dataset,Sample 1044 By YargerLab Date Monday, August 04 2025
cm-1,A
4000.00,0.0069
3997.00,0.0069
3994.00,0.0069
3991.00,0.0069
3988.00,0.0069
3985.00,0.0069
3982.00,0.0070
3979.00,0.0069
3976.00,0.0068
3973.00,0.0069
3970.00,0.0069
3967.00,0.0069
3964.00,0.0069
3961.00,0.0069
3958.00,0.0069
3955.00,0.0069
3952.00,0.0069
3949.00,0.0069
3946.00,0.0069
3943.00,0.0069
3940.00,0.0069
3937.00,0.0069
3934.00,0.0069
3931.00,0.0069
3928.00,0.0069
3925.00,0.0069
3922.00,0.0069
3919.00,0.0068
3916.00,0.0069
3913.00,0.0069
3910.00,0.0069
3907.00,0.0070
3904.00,0.0070
3901.00,0.0069
3898.00,0.0069
3895.00,0.0069
3892.00,0.0069
3889.00,0.0069
3886.00,0.0069
3883.00,0.0069
3880.00,0.0069
3877.00,0.0069
3874.00,0.0069
3871.00,0.0069
3868.00,0.0068
3865.00,0.0069
3862.00,0.0068
3859.00,0.0068
3856.00,0.0069
3853.00,0.0070
3850.00,0.0069
3847.00,0.0069
3844.00,0.0069
3841.00,0.0069
3838.00,0.0069
3835.00,0.0069
3832.00,0.0069
3829.00,0.0069
3826.00,0.0069
3823.00,0.0068
3820.00,0.0069
3817.00,0.0069
3814.00,0.0069
3811.00,0.0069
3808.00,0.0069
3805.00,0.0070
3802.00,0.0069
3799.00,0.0069
3796.00,0.0068
3793.00,0.0068
3790.00,0.0069
3787.00,0.0068
3784.00,0.0068
3781.00,0.0069
3778.00,0.0069
3775.00,0.0069
3772.00,0.0069
3769.00,0.0069
3766.00,0.0068
3763.00,0.0069
3760.00,0.0069
3757.00,0.0069
3754.00,0.0069
3751.00,0.0069
3748.00,0.0069
3745.00,0.0068
3742.00,0.0068
3739.00,0.0068
3736.00,0.0068
3733.00,0.0068
3730.00,0.0068
3727.00,0.0068
3724.00,0.0067
3721.00,0.0067
3718.00,0.0068
3715.00,0.0068
3712.00,0.0068
3709.00,0.0067
3706.00,0.0067
3703.00,0.0067
3700.00,0.0067
3697.00,0.0067
3694.00,0.0067
3691.00,0.0068
3688.00,0.0068
3685.00,0.0068
3682.00,0.0068
3679.00,0.0068
3676.00,0.0069
3673.00,0.0068
3670.00,0.0068
3667.00,0.0069
3664.00,0.0070
3661.00,0.0070
3658.00,0.0070
3655.00,0.0070
3652.00,0.0071
3649.00,0.0072
3646.00,0.0073
3643.00,0.0073
3640.00,0.0073
3637.00,0.0075
3634.00,0.0075
3631.00,0.0076
3628.00,0.0078
3625.00,0.0079
3622.00,0.0079
3619.00,0.0081
3616.00,0.0082
3613.00,0.0083
3610.00,0.0085
3607.00,0.0086
3604.00,0.0087
3601.00,0.0088
3598.00,0.0089
3595.00,0.0091
3592.00,0.0093
3589.00,0.0095
3586.00,0.0097
3583.00,0.0099
3580.00,0.0100
3577.00,0.0102
3574.00,0.0105
3571.00,0.0107
3568.00,0.0109
3565.00,0.0111
3562.00,0.0114
3559.00,0.0116
3556.00,0.0118
3553.00,0.0120
3550.00,0.0122
3547.00,0.0124
3544.00,0.0127
3541.00,0.0128
3538.00,0.0130
3535.00,0.0132
3532.00,0.0134
3529.00,0.0136
3526.00,0.0138
3523.00,0.0140
3520.00,0.0141
3517.00,0.0142
3514.00,0.0144
3511.00,0.0145
3508.00,0.0146
3505.00,0.0148
3502.00,0.0149
3499.00,0.0151
3496.00,0.0151
3493.00,0.0153
3490.00,0.0154
3487.00,0.0156
3484.00,0.0157
3481.00,0.0159
3478.00,0.0160
3475.00,0.0162
3472.00,0.0164
3469.00,0.0166
3466.00,0.0168
3463.00,0.0170
3460.00,0.0173
3457.00,0.0174
3454.00,0.0176
3451.00,0.0178
3448.00,0.0180
3445.00,0.0182
3442.00,0.0184
3439.00,0.0187
3436.00,0.0189
3433.00,0.0192
3430.00,0.0195
3427.00,0.0197
3424.00,0.0200
3421.00,0.0203
3418.00,0.0206
3415.00,0.0209
3412.00,0.0211
3409.00,0.0213
3406.00,0.0214
3403.00,0.0215
3400.00,0.0216
3397.00,0.0215
3394.00,0.0214
3391.00,0.0213
3388.00,0.0211
3385.00,0.0210
3382.00,0.0207
3379.00,0.0205
3376.00,0.0202
3373.00,0.0200
3370.00,0.0198
3367.00,0.0196
3364.00,0.0195
3361.00,0.0193
3358.00,0.0191
3355.00,0.0189
3352.00,0.0187
3349.00,0.0187
3346.00,0.0186
3343.00,0.0184
3340.00,0.0183
3337.00,0.0183
3334.00,0.0183
3331.00,0.0183
3328.00,0.0182
3325.00,0.0182
3322.00,0.0182
3319.00,0.0183
3316.00,0.0183
3313.00,0.0183
3310.00,0.0181
3307.00,0.0180
3304.00,0.0183
3301.00,0.0185
3298.00,0.0185
3295.00,0.0184
3292.00,0.0185
3289.00,0.0188
3286.00,0.0188
3283.00,0.0189
3280.00,0.0189
3277.00,0.0189
3274.00,0.0189
3271.00,0.0189
3268.00,0.0190
3265.00,0.0191
3262.00,0.0192
3259.00,0.0192
3256.00,0.0192
3253.00,0.0192
3250.00,0.0192
3247.00,0.0192
3244.00,0.0192
3241.00,0.0192
3238.00,0.0191
3235.00,0.0189
3232.00,0.0189
3229.00,0.0188
3226.00,0.0187
3223.00,0.0186
3220.00,0.0184
3217.00,0.0183
3214.00,0.0181
3211.00,0.0179
3208.00,0.0177
3205.00,0.0174
3202.00,0.0172
3199.00,0.0170
3196.00,0.0167
3193.00,0.0165
3190.00,0.0162
3187.00,0.0160
3184.00,0.0158
3181.00,0.0155
3178.00,0.0153
3175.00,0.0151
3172.00,0.0148
3169.00,0.0147
3166.00,0.0144
3163.00,0.0141
3160.00,0.0139
3157.00,0.0136
3154.00,0.0134
3151.00,0.0133
3148.00,0.0130
3145.00,0.0129
3142.00,0.0126
3139.00,0.0124
3136.00,0.0123
3133.00,0.0122
3130.00,0.0120
3127.00,0.0119
3124.00,0.0118
3121.00,0.0117
3118.00,0.0115
3115.00,0.0114
3112.00,0.0113
3109.00,0.0112
3106.00,0.0111
3103.00,0.0109
3100.00,0.0108
3097.00,0.0107
3094.00,0.0107
3091.00,0.0107
3088.00,0.0107
3085.00,0.0108
3082.00,0.0107
3079.00,0.0107
3076.00,0.0106
3073.00,0.0106
3070.00,0.0105
3067.00,0.0104
3064.00,0.0103
3061.00,0.0103
3058.00,0.0103
3055.00,0.0103
3052.00,0.0103
3049.00,0.0103
3046.00,0.0102
3043.00,0.0102
3040.00,0.0103
3037.00,0.0104
3034.00,0.0105
3031.00,0.0105
3028.00,0.0104
3025.00,0.0102
3022.00,0.0101
3019.00,0.0100
3016.00,0.0100
3013.00,0.0101
3010.00,0.0102
3007.00,0.0105
3004.00,0.0109
3001.00,0.0115
2998.00,0.0122
2995.00,0.0132
2992.00,0.0140
2989.00,0.0148
2986.00,0.0158
2983.00,0.0167
2980.00,0.0180
2977.00,0.0190
2974.00,0.0198
2971.00,0.0213
2968.00,0.0224
2965.00,0.0233
2962.00,0.0243
2959.00,0.0247
2956.00,0.0242
2953.00,0.0231
2950.00,0.0224
2947.00,0.0222
2944.00,0.0227
2941.00,0.0238
2938.00,0.0253
2935.00,0.0275
2932.00,0.0301
2929.00,0.0322
2926.00,0.0324
2923.00,0.0308
2920.00,0.0283
2917.00,0.0258
2914.00,0.0240
2911.00,0.0229
2908.00,0.0220
2905.00,0.0210
2902.00,0.0203
2899.00,0.0197
2896.00,0.0192
2893.00,0.0189
2890.00,0.0186
2887.00,0.0184
2884.00,0.0182
2881.00,0.0183
2878.00,0.0190
2875.00,0.0198
2872.00,0.0204
2869.00,0.0203
2866.00,0.0203
2863.00,0.0211
2860.00,0.0227
2857.00,0.0238
2854.00,0.0234
2851.00,0.0214
2848.00,0.0188
2845.00,0.0169
2842.00,0.0155
2839.00,0.0143
2836.00,0.0136
2833.00,0.0130
2830.00,0.0126
2827.00,0.0121
2824.00,0.0117
2821.00,0.0113
2818.00,0.0111
2815.00,0.0108
2812.00,0.0107
2809.00,0.0105
2806.00,0.0104
2803.00,0.0103
2800.00,0.0102
2797.00,0.0101
2794.00,0.0100
2791.00,0.0099
2788.00,0.0098
2785.00,0.0097
2782.00,0.0097
2779.00,0.0096
2776.00,0.0095
2773.00,0.0094
2770.00,0.0094
2767.00,0.0094
2764.00,0.0093
2761.00,0.0093
2758.00,0.0093
2755.00,0.0094
2752.00,0.0093
2749.00,0.0093
2746.00,0.0093
2743.00,0.0094
2740.00,0.0094
2737.00,0.0094
2734.00,0.0095
2731.00,0.0096
2728.00,0.0096
2725.00,0.0095
2722.00,0.0094
2719.00,0.0094
2716.00,0.0094
2713.00,0.0093
2710.00,0.0093
2707.00,0.0092
2704.00,0.0092
2701.00,0.0092
2698.00,0.0091
2695.00,0.0091
2692.00,0.0091
2689.00,0.0090
2686.00,0.0090
2683.00,0.0090
2680.00,0.0089
2677.00,0.0089
2674.00,0.0089
2671.00,0.0090
2668.00,0.0090
2665.00,0.0092
2662.00,0.0093
2659.00,0.0093
2656.00,0.0094
2653.00,0.0094
2650.00,0.0094
2647.00,0.0094
2644.00,0.0094
2641.00,0.0094
2638.00,0.0093
2635.00,0.0093
2632.00,0.0093
2629.00,0.0092
2626.00,0.0091
2623.00,0.0091
2620.00,0.0090
2617.00,0.0090
2614.00,0.0089
2611.00,0.0089
2608.00,0.0090
2605.00,0.0089
2602.00,0.0090
2599.00,0.0090
2596.00,0.0090
2593.00,0.0090
2590.00,0.0090
2587.00,0.0090
2584.00,0.0090
2581.00,0.0090
2578.00,0.0090
2575.00,0.0090
2572.00,0.0089
2569.00,0.0089
2566.00,0.0089
2563.00,0.0088
2560.00,0.0088
2557.00,0.0087
2554.00,0.0087
2551.00,0.0087
2548.00,0.0086
2545.00,0.0086
2542.00,0.0086
2539.00,0.0085
2536.00,0.0086
2533.00,0.0086
2530.00,0.0085
2527.00,0.0085
2524.00,0.0085
2521.00,0.0084
2518.00,0.0083
2515.00,0.0083
2512.00,0.0083
2509.00,0.0083
2506.00,0.0082
2503.00,0.0082
2500.00,0.0082
2497.00,0.0081
2494.00,0.0081
2491.00,0.0082
2488.00,0.0081
2485.00,0.0081
2482.00,0.0081
2479.00,0.0080
2476.00,0.0080
2473.00,0.0081
2470.00,0.0081
2467.00,0.0081
2464.00,0.0081
2461.00,0.0081
2458.00,0.0082
2455.00,0.0082
2452.00,0.0082
2449.00,0.0082
2446.00,0.0081
2443.00,0.0081
2440.00,0.0081
2437.00,0.0080
2434.00,0.0080
2431.00,0.0080
2428.00,0.0080
2425.00,0.0079
2422.00,0.0079
2419.00,0.0079
2416.00,0.0079
2413.00,0.0079
2410.00,0.0079
2407.00,0.0078
2404.00,0.0078
2401.00,0.0078
2398.00,0.0078
2395.00,0.0078
2392.00,0.0078
2389.00,0.0077
2386.00,0.0075
2383.00,0.0074
2380.00,0.0072
2377.00,0.0072
2374.00,0.0073
2371.00,0.0072
2368.00,0.0070
2365.00,0.0071
2362.00,0.0072
2359.00,0.0072
2356.00,0.0072
2353.00,0.0072
2350.00,0.0072
2347.00,0.0076
2344.00,0.0077
2341.00,0.0076
2338.00,0.0075
2335.00,0.0076
2332.00,0.0076
2329.00,0.0077
2326.00,0.0085
2323.00,0.0084
2320.00,0.0079
2317.00,0.0078
2314.00,0.0077
2311.00,0.0075
2308.00,0.0076
2305.00,0.0078
2302.00,0.0078
2299.00,0.0080
2296.00,0.0082
2293.00,0.0084
2290.00,0.0087
2287.00,0.0089
2284.00,0.0088
2281.00,0.0086
2278.00,0.0086
2275.00,0.0085
2272.00,0.0083
2269.00,0.0082
2266.00,0.0081
2263.00,0.0081
2260.00,0.0083
2257.00,0.0082
2254.00,0.0080
2251.00,0.0080
2248.00,0.0080
2245.00,0.0081
2242.00,0.0081
2239.00,0.0081
2236.00,0.0082
2233.00,0.0081
2230.00,0.0080
2227.00,0.0079
2224.00,0.0081
2221.00,0.0081
2218.00,0.0079
2215.00,0.0079
2212.00,0.0081
2209.00,0.0081
2206.00,0.0080
2203.00,0.0080
2200.00,0.0079
2197.00,0.0081
2194.00,0.0083
2191.00,0.0083
2188.00,0.0084
2185.00,0.0084
2182.00,0.0076
2179.00,0.0080
2176.00,0.0076
2173.00,0.0076
2170.00,0.0083
2167.00,0.0087
2164.00,0.0092
2161.00,0.0077
2158.00,0.0049
2155.00,0.0055
2152.00,0.0064
2149.00,0.0067
2146.00,0.0064
2143.00,0.0065
2140.00,0.0066
2137.00,0.0065
2134.00,0.0063
2131.00,0.0064
2128.00,0.0067
2125.00,0.0070
2122.00,0.0073
2119.00,0.0076
2116.00,0.0078
2113.00,0.0079
2110.00,0.0077
2107.00,0.0077
2104.00,0.0077
2101.00,0.0076
2098.00,0.0074
2095.00,0.0072
2092.00,0.0074
2089.00,0.0075
2086.00,0.0076
2083.00,0.0078
2080.00,0.0079
2077.00,0.0077
2074.00,0.0077
2071.00,0.0077
2068.00,0.0077
2065.00,0.0076
2062.00,0.0075
2059.00,0.0074
2056.00,0.0074
2053.00,0.0080
2050.00,0.0084
2047.00,0.0076
2044.00,0.0075
2041.00,0.0077
2038.00,0.0077
2035.00,0.0072
2032.00,0.0069
2029.00,0.0068
2026.00,0.0068
2023.00,0.0066
2020.00,0.0067
2017.00,0.0070
2014.00,0.0068
2011.00,0.0066
2008.00,0.0062
2005.00,0.0059
2002.00,0.0063
1999.00,0.0070
1996.00,0.0070
1993.00,0.0073
1990.00,0.0075
1987.00,0.0072
1984.00,0.0073
1981.00,0.0078
1978.00,0.0064
1975.00,0.0062
1972.00,0.0064
1969.00,0.0060
1966.00,0.0060
1963.00,0.0062
1960.00,0.0058
1957.00,0.0059
1954.00,0.0064
1951.00,0.0065
1948.00,0.0066
1945.00,0.0064
1942.00,0.0066
1939.00,0.0065
1936.00,0.0063
1933.00,0.0063
1930.00,0.0065
1927.00,0.0066
1924.00,0.0066
1921.00,0.0067
1918.00,0.0067
1915.00,0.0069
1912.00,0.0070
1909.00,0.0073
1906.00,0.0071
1903.00,0.0069
1900.00,0.0069
1897.00,0.0070
1894.00,0.0072
1891.00,0.0070
1888.00,0.0069
1885.00,0.0068
1882.00,0.0068
1879.00,0.0069
1876.00,0.0068
1873.00,0.0068
1870.00,0.0069
1867.00,0.0069
1864.00,0.0068
1861.00,0.0069
1858.00,0.0069
1855.00,0.0069
1852.00,0.0069
1849.00,0.0070
1846.00,0.0071
1843.00,0.0070
1840.00,0.0069
1837.00,0.0069
1834.00,0.0069
1831.00,0.0069
1828.00,0.0069
1825.00,0.0068
1822.00,0.0068
1819.00,0.0066
1816.00,0.0066
1813.00,0.0067
1810.00,0.0068
1807.00,0.0068
1804.00,0.0068
1801.00,0.0069
1798.00,0.0068
1795.00,0.0070
1792.00,0.0069
1789.00,0.0068
1786.00,0.0069
1783.00,0.0069
1780.00,0.0069
1777.00,0.0070
1774.00,0.0070
1771.00,0.0070
1768.00,0.0070
1765.00,0.0070
1762.00,0.0071
1759.00,0.0071
1756.00,0.0072
1753.00,0.0072
1750.00,0.0073
1747.00,0.0074
1744.00,0.0075
1741.00,0.0074
1738.00,0.0073
1735.00,0.0075
1732.00,0.0076
1729.00,0.0079
1726.00,0.0081
1723.00,0.0084
1720.00,0.0086
1717.00,0.0090
1714.00,0.0094
1711.00,0.0101
1708.00,0.0110
1705.00,0.0123
1702.00,0.0136
1699.00,0.0165
1696.00,0.0207
1693.00,0.0253
1690.00,0.0306
1687.00,0.0359
1684.00,0.0429
1681.00,0.0493
1678.00,0.0545
1675.00,0.0602
1672.00,0.0652
1669.00,0.0709
1666.00,0.0754
1663.00,0.0790
1660.00,0.0828
1657.00,0.0841
1654.00,0.0840
1651.00,0.0858
1648.00,0.0824
1645.00,0.0792
1642.00,0.0742
1639.00,0.0684
1636.00,0.0622
1633.00,0.0577
1630.00,0.0556
1627.00,0.0575
1624.00,0.0597
1621.00,0.0596
1618.00,0.0546
1615.00,0.0484
1612.00,0.0460
1609.00,0.0433
1606.00,0.0381
1603.00,0.0328
1600.00,0.0289
1597.00,0.0268
1594.00,0.0265
1591.00,0.0287
1588.00,0.0328
1585.00,0.0353
1582.00,0.0344
1579.00,0.0315
1576.00,0.0280
1573.00,0.0252
1570.00,0.0236
1567.00,0.0223
1564.00,0.0204
1561.00,0.0184
1558.00,0.0166
1555.00,0.0160
1552.00,0.0157
1549.00,0.0154
1546.00,0.0149
1543.00,0.0144
1540.00,0.0137
1537.00,0.0136
1534.00,0.0137
1531.00,0.0135
1528.00,0.0136
1525.00,0.0137
1522.00,0.0138
1519.00,0.0142
1516.00,0.0151
1513.00,0.0158
1510.00,0.0166
1507.00,0.0178
1504.00,0.0192
1501.00,0.0223
1498.00,0.0275
1495.00,0.0311
1492.00,0.0288
1489.00,0.0248
1486.00,0.0211
1483.00,0.0187
1480.00,0.0176
1477.00,0.0177
1474.00,0.0192
1471.00,0.0245
1468.00,0.0317
1465.00,0.0390
1462.00,0.0429
1459.00,0.0426
1456.00,0.0385
1453.00,0.0351
1450.00,0.0346
1447.00,0.0376
1444.00,0.0428
1441.00,0.0484
1438.00,0.0520
1435.00,0.0553
1432.00,0.0569
1429.00,0.0592
1426.00,0.0621
1423.00,0.0646
1420.00,0.0619
1417.00,0.0546
1414.00,0.0465
1411.00,0.0408
1408.00,0.0388
1405.00,0.0400
1402.00,0.0415
1399.00,0.0402
1396.00,0.0361
1393.00,0.0314
1390.00,0.0293
1387.00,0.0310
1384.00,0.0314
1381.00,0.0320
1378.00,0.0331
1375.00,0.0323
1372.00,0.0307
1369.00,0.0310
1366.00,0.0332
1363.00,0.0340
1360.00,0.0352
1357.00,0.0317
1354.00,0.0283
1351.00,0.0270
1348.00,0.0266
1345.00,0.0259
1342.00,0.0246
1339.00,0.0235
1336.00,0.0231
1333.00,0.0239
1330.00,0.0252
1327.00,0.0265
1324.00,0.0280
1321.00,0.0299
1318.00,0.0310
1315.00,0.0304
1312.00,0.0292
1309.00,0.0287
1306.00,0.0302
1303.00,0.0343
1300.00,0.0390
1297.00,0.0444
1294.00,0.0530
1291.00,0.0615
1288.00,0.0673
1285.00,0.0698
1282.00,0.0677
1279.00,0.0635
1276.00,0.0615
1273.00,0.0612
1270.00,0.0596
1267.00,0.0556
1264.00,0.0502
1261.00,0.0447
1258.00,0.0400
1255.00,0.0365
1252.00,0.0344
1249.00,0.0340
1246.00,0.0354
1243.00,0.0371
1240.00,0.0386
1237.00,0.0414
1234.00,0.0441
1231.00,0.0441
1228.00,0.0420
1225.00,0.0401
1222.00,0.0390
1219.00,0.0391
1216.00,0.0398
1213.00,0.0392
1210.00,0.0362
1207.00,0.0335
1204.00,0.0327
1201.00,0.0343
1198.00,0.0376
1195.00,0.0404
1192.00,0.0391
1189.00,0.0349
1186.00,0.0310
1183.00,0.0285
1180.00,0.0274
1177.00,0.0272
1174.00,0.0276
1171.00,0.0281
1168.00,0.0282
1165.00,0.0283
1162.00,0.0291
1159.00,0.0326
1156.00,0.0382
1153.00,0.0377
1150.00,0.0306
1147.00,0.0258
1144.00,0.0239
1141.00,0.0232
1138.00,0.0235
1135.00,0.0261
1132.00,0.0328
1129.00,0.0392
1126.00,0.0378
1123.00,0.0322
1120.00,0.0273
1117.00,0.0254
1114.00,0.0250
1111.00,0.0243
1108.00,0.0238
1105.00,0.0247
1102.00,0.0282
1099.00,0.0305
1096.00,0.0276
1093.00,0.0239
1090.00,0.0221
1087.00,0.0213
1084.00,0.0210
1081.00,0.0211
1078.00,0.0215
1075.00,0.0219
1072.00,0.0224
1069.00,0.0231
1066.00,0.0245
1063.00,0.0271
1060.00,0.0325
1057.00,0.0412
1054.00,0.0477
1051.00,0.0487
1048.00,0.0464
1045.00,0.0400
1042.00,0.0333
1039.00,0.0296
1036.00,0.0291
1033.00,0.0307
1030.00,0.0362
1027.00,0.0427
1024.00,0.0394
1021.00,0.0329
1018.00,0.0291
1015.00,0.0266
1012.00,0.0247
1009.00,0.0247
1006.00,0.0270
1003.00,0.0291
1000.00,0.0282
997.00,0.0264
994.00,0.0251
991.00,0.0235
988.00,0.0218
985.00,0.0207
982.00,0.0200
979.00,0.0197
976.00,0.0195
973.00,0.0192
970.00,0.0190
967.00,0.0188
964.00,0.0190
961.00,0.0190
958.00,0.0181
955.00,0.0173
952.00,0.0169
949.00,0.0171
946.00,0.0172
943.00,0.0177
940.00,0.0190
937.00,0.0205
934.00,0.0217
931.00,0.0217
928.00,0.0210
925.00,0.0211
922.00,0.0216
919.00,0.0206
916.00,0.0191
913.00,0.0183
910.00,0.0181
907.00,0.0182
904.00,0.0193
901.00,0.0217
898.00,0.0228
895.00,0.0217
892.00,0.0220
889.00,0.0222
886.00,0.0196
883.00,0.0188
880.00,0.0194
877.00,0.0217
874.00,0.0266
871.00,0.0319
868.00,0.0320
865.00,0.0285
862.00,0.0257
859.00,0.0245
856.00,0.0265
853.00,0.0301
850.00,0.0334
847.00,0.0338
844.00,0.0316
841.00,0.0302
838.00,0.0310
835.00,0.0335
832.00,0.0335
829.00,0.0297
826.00,0.0258
823.00,0.0277
820.00,0.0349
817.00,0.0376
814.00,0.0352
811.00,0.0266
808.00,0.0228
805.00,0.0209
802.00,0.0201
799.00,0.0199
796.00,0.0199
793.00,0.0199
790.00,0.0200
787.00,0.0201
784.00,0.0203
781.00,0.0206
778.00,0.0214
775.00,0.0230
772.00,0.0231
769.00,0.0225
766.00,0.0227
763.00,0.0236
760.00,0.0250
757.00,0.0258
754.00,0.0262
751.00,0.0271
748.00,0.0281
745.00,0.0292
742.00,0.0308
739.00,0.0335
736.00,0.0379
733.00,0.0388
730.00,0.0373
727.00,0.0360
724.00,0.0327
721.00,0.0307
718.00,0.0309
715.00,0.0320
712.00,0.0317
709.00,0.0310
706.00,0.0309
703.00,0.0316
700.00,0.0327
697.00,0.0336
694.00,0.0337
691.00,0.0346
688.00,0.0363
685.00,0.0363
682.00,0.0365
679.00,0.0375
676.00,0.0392
673.00,0.0414
670.00,0.0425
667.00,0.0437
664.00,0.0454
661.00,0.0473
658.00,0.0482
655.00,0.0493
652.00,0.0504
649.00,0.0515
646.00,0.0517
643.00,0.0509
640.00,0.0497
637.00,0.0485
634.00,0.0476
631.00,0.0471
628.00,0.0467
625.00,0.0470
622.00,0.0477
619.00,0.0481
616.00,0.0473
613.00,0.0462
610.00,0.0462
607.00,0.0483
604.00,0.0512
601.00,0.0525
598.00,0.0531
595.00,0.0534
592.00,0.0539
589.00,0.0545
586.00,0.0556
583.00,0.0575
580.00,0.0599
577.00,0.0626
574.00,0.0629
571.00,0.0615
568.00,0.0603
565.00,0.0600
562.00,0.0606
559.00,0.0611
556.00,0.0595
553.00,0.0577
550.00,0.0579
547.00,0.0593
544.00,0.0590
541.00,0.0571
538.00,0.0561
535.00,0.0562
532.00,0.0578
529.00,0.0576
526.00,0.0560
523.00,0.0550
520.00,0.0542
517.00,0.0535
514.00,0.0529
511.00,0.0530
508.00,0.0536
505.00,0.0541
502.00,0.0539
499.00,0.0529
496.00,0.0529
493.00,0.0538
490.00,0.0538
487.00,0.0535
484.00,0.0540
481.00,0.0533
478.00,0.0533
475.00,0.0535
472.00,0.0532
469.00,0.0531
466.00,0.0534
463.00,0.0526
460.00,0.0523
457.00,0.0515
454.00,0.0520
451.00,0.0519
448.00,0.0511
445.00,0.0507
442.00,0.0500
439.00,0.0501
436.00,0.0491
433.00,0.0485
430.00,0.0481
427.00,0.0480
424.00,0.0479
421.00,0.0479
418.00,0.0485
415.00,0.0470
412.00,0.0468
409.00,0.0481
406.00,0.0463
403.00,0.0466
400.00,0.0480