File: FTIR/Olivia/2025_08_06_1CBN_3PVP90_MP_Powder_Scan3.csv
Created as New Dataset,Sample 004 By YargerLab Date Wednesday, August 06 2025
cm-1,A
4000.00,0.0039
3997.00,0.0038
3994.00,0.0039
3991.00,0.0039
3988.00,0.0039
3985.00,0.0039
3982.00,0.0039
3979.00,0.0039
3976.00,0.0039
3973.00,0.0040
3970.00,0.0040
3967.00,0.0039
3964.00,0.0039
3961.00,0.0039
3958.00,0.0039
3955.00,0.0039
3952.00,0.0038
3949.00,0.0038
3946.00,0.0039
3943.00,0.0039
3940.00,0.0038
3937.00,0.0039
3934.00,0.0039
3931.00,0.0039
3928.00,0.0039
3925.00,0.0039
3922.00,0.0039
3919.00,0.0039
3916.00,0.0038
3913.00,0.0039
3910.00,0.0039
3907.00,0.0039
3904.00,0.0038
3901.00,0.0038
3898.00,0.0038
3895.00,0.0038
3892.00,0.0038
3889.00,0.0038
3886.00,0.0037
3883.00,0.0037
3880.00,0.0038
3877.00,0.0038
3874.00,0.0038
3871.00,0.0038
3868.00,0.0037
3865.00,0.0037
3862.00,0.0037
3859.00,0.0038
3856.00,0.0037
3853.00,0.0037
3850.00,0.0038
3847.00,0.0038
3844.00,0.0038
3841.00,0.0037
3838.00,0.0037
3835.00,0.0037
3832.00,0.0038
3829.00,0.0038
3826.00,0.0038
3823.00,0.0038
3820.00,0.0038
3817.00,0.0038
3814.00,0.0038
3811.00,0.0038
3808.00,0.0037
3805.00,0.0037
3802.00,0.0037
3799.00,0.0037
3796.00,0.0038
3793.00,0.0038
3790.00,0.0038
3787.00,0.0037
3784.00,0.0037
3781.00,0.0038
3778.00,0.0038
3775.00,0.0038
3772.00,0.0037
3769.00,0.0038
3766.00,0.0038
3763.00,0.0038
3760.00,0.0038
3757.00,0.0038
3754.00,0.0037
3751.00,0.0037
3748.00,0.0036
3745.00,0.0036
3742.00,0.0037
3739.00,0.0036
3736.00,0.0036
3733.00,0.0035
3730.00,0.0036
3727.00,0.0035
3724.00,0.0035
3721.00,0.0036
3718.00,0.0036
3715.00,0.0035
3712.00,0.0035
3709.00,0.0035
3706.00,0.0035
3703.00,0.0035
3700.00,0.0035
3697.00,0.0035
3694.00,0.0035
3691.00,0.0034
3688.00,0.0034
3685.00,0.0035
3682.00,0.0034
3679.00,0.0034
3676.00,0.0033
3673.00,0.0033
3670.00,0.0033
3667.00,0.0033
3664.00,0.0033
3661.00,0.0034
3658.00,0.0034
3655.00,0.0034
3652.00,0.0033
3649.00,0.0032
3646.00,0.0033
3643.00,0.0032
3640.00,0.0032
3637.00,0.0032
3634.00,0.0033
3631.00,0.0032
3628.00,0.0031
3625.00,0.0032
3622.00,0.0031
3619.00,0.0031
3616.00,0.0031
3613.00,0.0032
3610.00,0.0032
3607.00,0.0032
3604.00,0.0031
3601.00,0.0031
3598.00,0.0031
3595.00,0.0030
3592.00,0.0031
3589.00,0.0030
3586.00,0.0029
3583.00,0.0030
3580.00,0.0030
3577.00,0.0030
3574.00,0.0030
3571.00,0.0029
3568.00,0.0030
3565.00,0.0029
3562.00,0.0030
3559.00,0.0031
3556.00,0.0031
3553.00,0.0031
3550.00,0.0032
3547.00,0.0033
3544.00,0.0033
3541.00,0.0034
3538.00,0.0035
3535.00,0.0035
3532.00,0.0036
3529.00,0.0037
3526.00,0.0037
3523.00,0.0038
3520.00,0.0039
3517.00,0.0039
3514.00,0.0040
3511.00,0.0041
3508.00,0.0041
3505.00,0.0042
3502.00,0.0043
3499.00,0.0044
3496.00,0.0046
3493.00,0.0047
3490.00,0.0049
3487.00,0.0049
3484.00,0.0051
3481.00,0.0053
3478.00,0.0055
3475.00,0.0057
3472.00,0.0059
3469.00,0.0062
3466.00,0.0065
3463.00,0.0067
3460.00,0.0070
3457.00,0.0072
3454.00,0.0076
3451.00,0.0079
3448.00,0.0082
3445.00,0.0085
3442.00,0.0089
3439.00,0.0093
3436.00,0.0097
3433.00,0.0101
3430.00,0.0106
3427.00,0.0111
3424.00,0.0117
3421.00,0.0123
3418.00,0.0128
3415.00,0.0133
3412.00,0.0138
3409.00,0.0143
3406.00,0.0148
3403.00,0.0151
3400.00,0.0153
3397.00,0.0154
3394.00,0.0154
3391.00,0.0153
3388.00,0.0151
3385.00,0.0149
3382.00,0.0146
3379.00,0.0143
3376.00,0.0139
3373.00,0.0136
3370.00,0.0134
3367.00,0.0131
3364.00,0.0127
3361.00,0.0125
3358.00,0.0124
3355.00,0.0122
3352.00,0.0119
3349.00,0.0117
3346.00,0.0116
3343.00,0.0115
3340.00,0.0114
3337.00,0.0114
3334.00,0.0113
3331.00,0.0113
3328.00,0.0113
3325.00,0.0113
3322.00,0.0113
3319.00,0.0114
3316.00,0.0115
3313.00,0.0116
3310.00,0.0117
3307.00,0.0119
3304.00,0.0120
3301.00,0.0121
3298.00,0.0123
3295.00,0.0125
3292.00,0.0127
3289.00,0.0129
3286.00,0.0131
3283.00,0.0134
3280.00,0.0136
3277.00,0.0138
3274.00,0.0141
3271.00,0.0143
3268.00,0.0146
3265.00,0.0148
3262.00,0.0151
3259.00,0.0153
3256.00,0.0155
3253.00,0.0158
3250.00,0.0160
3247.00,0.0162
3244.00,0.0165
3241.00,0.0167
3238.00,0.0168
3235.00,0.0169
3232.00,0.0170
3229.00,0.0171
3226.00,0.0172
3223.00,0.0172
3220.00,0.0171
3217.00,0.0170
3214.00,0.0169
3211.00,0.0168
3208.00,0.0166
3205.00,0.0164
3202.00,0.0162
3199.00,0.0160
3196.00,0.0157
3193.00,0.0153
3190.00,0.0150
3187.00,0.0148
3184.00,0.0146
3181.00,0.0143
3178.00,0.0140
3175.00,0.0137
3172.00,0.0134
3169.00,0.0130
3166.00,0.0127
3163.00,0.0124
3160.00,0.0120
3157.00,0.0117
3154.00,0.0113
3151.00,0.0110
3148.00,0.0108
3145.00,0.0105
3142.00,0.0102
3139.00,0.0100
3136.00,0.0098
3133.00,0.0095
3130.00,0.0093
3127.00,0.0092
3124.00,0.0090
3121.00,0.0088
3118.00,0.0087
3115.00,0.0085
3112.00,0.0082
3109.00,0.0080
3106.00,0.0079
3103.00,0.0077
3100.00,0.0076
3097.00,0.0075
3094.00,0.0075
3091.00,0.0076
3088.00,0.0077
3085.00,0.0077
3082.00,0.0077
3079.00,0.0076
3076.00,0.0075
3073.00,0.0074
3070.00,0.0073
3067.00,0.0073
3064.00,0.0073
3061.00,0.0073
3058.00,0.0074
3055.00,0.0074
3052.00,0.0074
3049.00,0.0073
3046.00,0.0073
3043.00,0.0073
3040.00,0.0074
3037.00,0.0076
3034.00,0.0077
3031.00,0.0077
3028.00,0.0076
3025.00,0.0073
3022.00,0.0070
3019.00,0.0068
3016.00,0.0067
3013.00,0.0067
3010.00,0.0068
3007.00,0.0071
3004.00,0.0075
3001.00,0.0081
2998.00,0.0090
2995.00,0.0099
2992.00,0.0105
2989.00,0.0110
2986.00,0.0118
2983.00,0.0132
2980.00,0.0151
2977.00,0.0162
2974.00,0.0175
2971.00,0.0197
2968.00,0.0212
2965.00,0.0222
2962.00,0.0234
2959.00,0.0234
2956.00,0.0218
2953.00,0.0197
2950.00,0.0183
2947.00,0.0183
2944.00,0.0195
2941.00,0.0215
2938.00,0.0245
2935.00,0.0289
2932.00,0.0340
2929.00,0.0383
2926.00,0.0398
2923.00,0.0382
2920.00,0.0349
2917.00,0.0312
2914.00,0.0279
2911.00,0.0253
2908.00,0.0231
2905.00,0.0213
2902.00,0.0197
2899.00,0.0184
2896.00,0.0173
2893.00,0.0163
2890.00,0.0155
2887.00,0.0149
2884.00,0.0145
2881.00,0.0147
2878.00,0.0158
2875.00,0.0175
2872.00,0.0185
2869.00,0.0185
2866.00,0.0188
2863.00,0.0209
2860.00,0.0247
2857.00,0.0278
2854.00,0.0285
2851.00,0.0270
2848.00,0.0233
2845.00,0.0191
2842.00,0.0158
2839.00,0.0135
2836.00,0.0121
2833.00,0.0111
2830.00,0.0104
2827.00,0.0098
2824.00,0.0093
2821.00,0.0089
2818.00,0.0086
2815.00,0.0083
2812.00,0.0081
2809.00,0.0079
2806.00,0.0077
2803.00,0.0076
2800.00,0.0075
2797.00,0.0074
2794.00,0.0072
2791.00,0.0071
2788.00,0.0069
2785.00,0.0068
2782.00,0.0067
2779.00,0.0066
2776.00,0.0065
2773.00,0.0065
2770.00,0.0064
2767.00,0.0064
2764.00,0.0064
2761.00,0.0064
2758.00,0.0064
2755.00,0.0064
2752.00,0.0064
2749.00,0.0064
2746.00,0.0064
2743.00,0.0065
2740.00,0.0066
2737.00,0.0067
2734.00,0.0069
2731.00,0.0069
2728.00,0.0070
2725.00,0.0069
2722.00,0.0068
2719.00,0.0067
2716.00,0.0066
2713.00,0.0065
2710.00,0.0065
2707.00,0.0065
2704.00,0.0065
2701.00,0.0064
2698.00,0.0063
2695.00,0.0063
2692.00,0.0062
2689.00,0.0062
2686.00,0.0061
2683.00,0.0061
2680.00,0.0060
2677.00,0.0060
2674.00,0.0060
2671.00,0.0061
2668.00,0.0062
2665.00,0.0064
2662.00,0.0066
2659.00,0.0067
2656.00,0.0067
2653.00,0.0067
2650.00,0.0067
2647.00,0.0067
2644.00,0.0067
2641.00,0.0066
2638.00,0.0066
2635.00,0.0065
2632.00,0.0064
2629.00,0.0063
2626.00,0.0062
2623.00,0.0062
2620.00,0.0061
2617.00,0.0060
2614.00,0.0060
2611.00,0.0060
2608.00,0.0060
2605.00,0.0060
2602.00,0.0060
2599.00,0.0061
2596.00,0.0061
2593.00,0.0061
2590.00,0.0060
2587.00,0.0061
2584.00,0.0061
2581.00,0.0060
2578.00,0.0059
2575.00,0.0059
2572.00,0.0059
2569.00,0.0058
2566.00,0.0058
2563.00,0.0058
2560.00,0.0057
2557.00,0.0056
2554.00,0.0055
2551.00,0.0055
2548.00,0.0055
2545.00,0.0055
2542.00,0.0055
2539.00,0.0055
2536.00,0.0055
2533.00,0.0055
2530.00,0.0055
2527.00,0.0055
2524.00,0.0054
2521.00,0.0053
2518.00,0.0052
2515.00,0.0051
2512.00,0.0052
2509.00,0.0051
2506.00,0.0051
2503.00,0.0051
2500.00,0.0050
2497.00,0.0050
2494.00,0.0049
2491.00,0.0049
2488.00,0.0049
2485.00,0.0049
2482.00,0.0048
2479.00,0.0048
2476.00,0.0048
2473.00,0.0048
2470.00,0.0048
2467.00,0.0048
2464.00,0.0048
2461.00,0.0049
2458.00,0.0050
2455.00,0.0049
2452.00,0.0048
2449.00,0.0048
2446.00,0.0048
2443.00,0.0047
2440.00,0.0047
2437.00,0.0047
2434.00,0.0047
2431.00,0.0046
2428.00,0.0045
2425.00,0.0045
2422.00,0.0046
2419.00,0.0045
2416.00,0.0045
2413.00,0.0045
2410.00,0.0045
2407.00,0.0043
2404.00,0.0043
2401.00,0.0043
2398.00,0.0043
2395.00,0.0043
2392.00,0.0043
2389.00,0.0042
2386.00,0.0041
2383.00,0.0039
2380.00,0.0037
2377.00,0.0036
2374.00,0.0037
2371.00,0.0037
2368.00,0.0036
2365.00,0.0037
2362.00,0.0037
2359.00,0.0036
2356.00,0.0037
2353.00,0.0039
2350.00,0.0038
2347.00,0.0040
2344.00,0.0039
2341.00,0.0039
2338.00,0.0042
2335.00,0.0042
2332.00,0.0042
2329.00,0.0044
2326.00,0.0054
2323.00,0.0051
2320.00,0.0047
2317.00,0.0045
2314.00,0.0044
2311.00,0.0042
2308.00,0.0040
2305.00,0.0041
2302.00,0.0043
2299.00,0.0044
2296.00,0.0046
2293.00,0.0049
2290.00,0.0052
2287.00,0.0053
2284.00,0.0052
2281.00,0.0050
2278.00,0.0049
2275.00,0.0048
2272.00,0.0047
2269.00,0.0047
2266.00,0.0045
2263.00,0.0044
2260.00,0.0044
2257.00,0.0042
2254.00,0.0039
2251.00,0.0041
2248.00,0.0043
2245.00,0.0043
2242.00,0.0043
2239.00,0.0043
2236.00,0.0042
2233.00,0.0043
2230.00,0.0043
2227.00,0.0044
2224.00,0.0045
2221.00,0.0043
2218.00,0.0044
2215.00,0.0043
2212.00,0.0042
2209.00,0.0044
2206.00,0.0043
2203.00,0.0043
2200.00,0.0041
2197.00,0.0042
2194.00,0.0042
2191.00,0.0041
2188.00,0.0045
2185.00,0.0045
2182.00,0.0040
2179.00,0.0042
2176.00,0.0037
2173.00,0.0041
2170.00,0.0050
2167.00,0.0052
2164.00,0.0054
2161.00,0.0035
2158.00,0.0005
2155.00,0.0016
2152.00,0.0022
2149.00,0.0023
2146.00,0.0020
2143.00,0.0021
2140.00,0.0023
2137.00,0.0020
2134.00,0.0017
2131.00,0.0021
2128.00,0.0025
2125.00,0.0028
2122.00,0.0031
2119.00,0.0034
2116.00,0.0038
2113.00,0.0037
2110.00,0.0036
2107.00,0.0037
2104.00,0.0036
2101.00,0.0035
2098.00,0.0033
2095.00,0.0030
2092.00,0.0032
2089.00,0.0036
2086.00,0.0037
2083.00,0.0039
2080.00,0.0042
2077.00,0.0041
2074.00,0.0038
2071.00,0.0039
2068.00,0.0037
2065.00,0.0034
2062.00,0.0036
2059.00,0.0035
2056.00,0.0034
2053.00,0.0041
2050.00,0.0045
2047.00,0.0037
2044.00,0.0034
2041.00,0.0037
2038.00,0.0040
2035.00,0.0035
2032.00,0.0030
2029.00,0.0031
2026.00,0.0031
2023.00,0.0031
2020.00,0.0034
2017.00,0.0031
2014.00,0.0031
2011.00,0.0033
2008.00,0.0026
2005.00,0.0022
2002.00,0.0026
1999.00,0.0030
1996.00,0.0034
1993.00,0.0036
1990.00,0.0034
1987.00,0.0039
1984.00,0.0044
1981.00,0.0049
1978.00,0.0034
1975.00,0.0027
1972.00,0.0026
1969.00,0.0026
1966.00,0.0026
1963.00,0.0026
1960.00,0.0022
1957.00,0.0023
1954.00,0.0028
1951.00,0.0028
1948.00,0.0027
1945.00,0.0028
1942.00,0.0028
1939.00,0.0031
1936.00,0.0030
1933.00,0.0030
1930.00,0.0031
1927.00,0.0030
1924.00,0.0031
1921.00,0.0032
1918.00,0.0033
1915.00,0.0035
1912.00,0.0039
1909.00,0.0043
1906.00,0.0044
1903.00,0.0039
1900.00,0.0037
1897.00,0.0038
1894.00,0.0040
1891.00,0.0038
1888.00,0.0036
1885.00,0.0035
1882.00,0.0035
1879.00,0.0035
1876.00,0.0035
1873.00,0.0034
1870.00,0.0034
1867.00,0.0035
1864.00,0.0035
1861.00,0.0036
1858.00,0.0035
1855.00,0.0036
1852.00,0.0037
1849.00,0.0038
1846.00,0.0039
1843.00,0.0039
1840.00,0.0036
1837.00,0.0035
1834.00,0.0035
1831.00,0.0034
1828.00,0.0034
1825.00,0.0035
1822.00,0.0035
1819.00,0.0033
1816.00,0.0033
1813.00,0.0035
1810.00,0.0035
1807.00,0.0035
1804.00,0.0036
1801.00,0.0036
1798.00,0.0037
1795.00,0.0037
1792.00,0.0038
1789.00,0.0038
1786.00,0.0038
1783.00,0.0037
1780.00,0.0037
1777.00,0.0039
1774.00,0.0040
1771.00,0.0041
1768.00,0.0039
1765.00,0.0040
1762.00,0.0040
1759.00,0.0041
1756.00,0.0039
1753.00,0.0038
1750.00,0.0037
1747.00,0.0036
1744.00,0.0037
1741.00,0.0037
1738.00,0.0039
1735.00,0.0039
1732.00,0.0041
1729.00,0.0041
1726.00,0.0043
1723.00,0.0044
1720.00,0.0044
1717.00,0.0045
1714.00,0.0048
1711.00,0.0051
1708.00,0.0054
1705.00,0.0057
1702.00,0.0063
1699.00,0.0075
1696.00,0.0084
1693.00,0.0098
1690.00,0.0108
1687.00,0.0117
1684.00,0.0121
1681.00,0.0120
1678.00,0.0121
1675.00,0.0117
1672.00,0.0112
1669.00,0.0102
1666.00,0.0099
1663.00,0.0096
1660.00,0.0090
1657.00,0.0090
1654.00,0.0088
1651.00,0.0072
1648.00,0.0071
1645.00,0.0062
1642.00,0.0067
1639.00,0.0072
1636.00,0.0081
1633.00,0.0113
1630.00,0.0183
1627.00,0.0310
1624.00,0.0422
1621.00,0.0477
1618.00,0.0450
1615.00,0.0375
1612.00,0.0378
1609.00,0.0374
1606.00,0.0314
1603.00,0.0244
1600.00,0.0194
1597.00,0.0174
1594.00,0.0185
1591.00,0.0239
1588.00,0.0326
1585.00,0.0393
1582.00,0.0405
1579.00,0.0377
1576.00,0.0322
1573.00,0.0274
1570.00,0.0251
1567.00,0.0227
1564.00,0.0190
1561.00,0.0158
1558.00,0.0125
1555.00,0.0112
1552.00,0.0103
1549.00,0.0097
1546.00,0.0094
1543.00,0.0089
1540.00,0.0086
1537.00,0.0086
1534.00,0.0081
1531.00,0.0080
1528.00,0.0079
1525.00,0.0082
1522.00,0.0087
1519.00,0.0096
1516.00,0.0107
1513.00,0.0120
1510.00,0.0125
1507.00,0.0126
1504.00,0.0135
1501.00,0.0155
1498.00,0.0222
1495.00,0.0260
1492.00,0.0217
1489.00,0.0158
1486.00,0.0128
1483.00,0.0113
1480.00,0.0106
1477.00,0.0105
1474.00,0.0113
1471.00,0.0153
1468.00,0.0220
1465.00,0.0259
1462.00,0.0251
1459.00,0.0258
1456.00,0.0249
1453.00,0.0236
1450.00,0.0237
1447.00,0.0247
1444.00,0.0272
1441.00,0.0305
1438.00,0.0332
1435.00,0.0367
1432.00,0.0406
1429.00,0.0424
1426.00,0.0411
1423.00,0.0383
1420.00,0.0361
1417.00,0.0325
1414.00,0.0306
1411.00,0.0309
1408.00,0.0346
1405.00,0.0420
1402.00,0.0492
1399.00,0.0508
1396.00,0.0453
1393.00,0.0364
1390.00,0.0319
1387.00,0.0334
1384.00,0.0316
1381.00,0.0298
1378.00,0.0299
1375.00,0.0271
1372.00,0.0227
1369.00,0.0245
1366.00,0.0313
1363.00,0.0353
1360.00,0.0412
1357.00,0.0374
1354.00,0.0316
1351.00,0.0300
1348.00,0.0304
1345.00,0.0296
1342.00,0.0266
1339.00,0.0228
1336.00,0.0213
1333.00,0.0223
1330.00,0.0234
1327.00,0.0227
1324.00,0.0212
1321.00,0.0204
1318.00,0.0195
1315.00,0.0182
1312.00,0.0180
1309.00,0.0202
1306.00,0.0250
1303.00,0.0325
1300.00,0.0362
1297.00,0.0334
1294.00,0.0319
1291.00,0.0309
1288.00,0.0325
1285.00,0.0378
1282.00,0.0392
1279.00,0.0333
1276.00,0.0266
1273.00,0.0229
1270.00,0.0209
1267.00,0.0198
1264.00,0.0189
1261.00,0.0175
1258.00,0.0163
1255.00,0.0159
1252.00,0.0165
1249.00,0.0193
1246.00,0.0240
1243.00,0.0281
1240.00,0.0309
1237.00,0.0357
1234.00,0.0403
1231.00,0.0386
1228.00,0.0330
1225.00,0.0283
1222.00,0.0260
1219.00,0.0264
1216.00,0.0291
1213.00,0.0298
1210.00,0.0258
1207.00,0.0220
1204.00,0.0225
1201.00,0.0278
1198.00,0.0364
1195.00,0.0442
1192.00,0.0431
1189.00,0.0351
1186.00,0.0266
1183.00,0.0208
1180.00,0.0177
1177.00,0.0160
1174.00,0.0150
1171.00,0.0146
1168.00,0.0146
1165.00,0.0155
1162.00,0.0185
1159.00,0.0269
1156.00,0.0406
1153.00,0.0426
1150.00,0.0289
1147.00,0.0192
1144.00,0.0162
1141.00,0.0157
1138.00,0.0172
1135.00,0.0230
1132.00,0.0371
1129.00,0.0521
1126.00,0.0518
1123.00,0.0407
1120.00,0.0292
1117.00,0.0242
1114.00,0.0230
1111.00,0.0212
1108.00,0.0194
1105.00,0.0214
1102.00,0.0295
1099.00,0.0355
1096.00,0.0289
1093.00,0.0199
1090.00,0.0153
1087.00,0.0135
1084.00,0.0127
1081.00,0.0125
1078.00,0.0128
1075.00,0.0133
1072.00,0.0144
1069.00,0.0164
1066.00,0.0189
1063.00,0.0237
1060.00,0.0339
1057.00,0.0517
1054.00,0.0679
1051.00,0.0741
1048.00,0.0731
1045.00,0.0616
1042.00,0.0467
1039.00,0.0371
1036.00,0.0355
1033.00,0.0381
1030.00,0.0490
1027.00,0.0647
1024.00,0.0595
1021.00,0.0424
1018.00,0.0307
1015.00,0.0244
1012.00,0.0217
1009.00,0.0232
1006.00,0.0286
1003.00,0.0322
1000.00,0.0302
997.00,0.0274
994.00,0.0254
991.00,0.0225
988.00,0.0188
985.00,0.0164
982.00,0.0151
979.00,0.0147
976.00,0.0149
973.00,0.0148
970.00,0.0144
967.00,0.0144
964.00,0.0152
961.00,0.0154
958.00,0.0132
955.00,0.0111
952.00,0.0101
949.00,0.0108
946.00,0.0111
943.00,0.0116
940.00,0.0133
937.00,0.0146
934.00,0.0158
931.00,0.0163
928.00,0.0155
925.00,0.0165
922.00,0.0186
919.00,0.0168
916.00,0.0131
913.00,0.0111
910.00,0.0105
907.00,0.0108
904.00,0.0130
901.00,0.0177
898.00,0.0195
895.00,0.0162
892.00,0.0173
889.00,0.0195
886.00,0.0142
883.00,0.0124
880.00,0.0139
877.00,0.0194
874.00,0.0304
871.00,0.0430
868.00,0.0436
865.00,0.0349
862.00,0.0268
859.00,0.0218
856.00,0.0242
853.00,0.0302
850.00,0.0368
847.00,0.0361
844.00,0.0290
841.00,0.0256
838.00,0.0290
835.00,0.0375
832.00,0.0394
829.00,0.0318
826.00,0.0232
823.00,0.0281
820.00,0.0472
817.00,0.0560
814.00,0.0519
811.00,0.0287
808.00,0.0187
805.00,0.0147
802.00,0.0128
799.00,0.0119
796.00,0.0113
793.00,0.0110
790.00,0.0107
787.00,0.0105
784.00,0.0103
781.00,0.0105
778.00,0.0118
775.00,0.0157
772.00,0.0149
769.00,0.0120
766.00,0.0115
763.00,0.0124
760.00,0.0142
757.00,0.0138
754.00,0.0125
751.00,0.0120
748.00,0.0124
745.00,0.0130
742.00,0.0146
739.00,0.0190
736.00,0.0285
733.00,0.0308
730.00,0.0297
727.00,0.0284
724.00,0.0212
721.00,0.0178
718.00,0.0194
715.00,0.0228
712.00,0.0217
709.00,0.0192
706.00,0.0185
703.00,0.0197
700.00,0.0219
697.00,0.0228
694.00,0.0209
691.00,0.0218
688.00,0.0251
685.00,0.0232
682.00,0.0214
679.00,0.0221
676.00,0.0247
673.00,0.0287
670.00,0.0305
667.00,0.0291
664.00,0.0285
661.00,0.0296
658.00,0.0270
655.00,0.0239
652.00,0.0224
649.00,0.0219
646.00,0.0216
643.00,0.0211
640.00,0.0207
637.00,0.0203
634.00,0.0200
631.00,0.0202
628.00,0.0209
625.00,0.0227
622.00,0.0254
619.00,0.0266
616.00,0.0237
613.00,0.0206
610.00,0.0205
607.00,0.0259
604.00,0.0331
601.00,0.0363
598.00,0.0361
595.00,0.0354
592.00,0.0339
589.00,0.0318
586.00,0.0306
583.00,0.0308
580.00,0.0330
577.00,0.0386
574.00,0.0371
571.00,0.0312
568.00,0.0281
565.00,0.0294
562.00,0.0342
559.00,0.0373
556.00,0.0341
553.00,0.0314
550.00,0.0339
547.00,0.0390
544.00,0.0391
541.00,0.0348
538.00,0.0318
535.00,0.0325
532.00,0.0371
529.00,0.0371
526.00,0.0312
523.00,0.0269
520.00,0.0245
517.00,0.0229
514.00,0.0226
511.00,0.0229
508.00,0.0241
505.00,0.0244
502.00,0.0233
499.00,0.0214
496.00,0.0221
493.00,0.0237
490.00,0.0238
487.00,0.0222
484.00,0.0213
481.00,0.0207
478.00,0.0196
475.00,0.0187
472.00,0.0190
469.00,0.0193
466.00,0.0190
463.00,0.0184
460.00,0.0184
457.00,0.0187
454.00,0.0184
451.00,0.0187
448.00,0.0178
445.00,0.0184
442.00,0.0180
439.00,0.0182
436.00,0.0183
433.00,0.0189
430.00,0.0181
427.00,0.0156
424.00,0.0167
421.00,0.0159
418.00,0.0165
415.00,0.0169
412.00,0.0203
409.00,0.0227
406.00,0.0195
403.00,0.0178
400.00,0.0148