File: FTIR/Olivia/2025_08_04_Polystyrene_film_scan2.csv
Created as New Dataset,Sample 1030 By YargerLab Date Monday, August 04 2025
cm-1,A
4000.00,0.0003
3997.00,0.0003
3994.00,0.0002
3991.00,0.0003
3988.00,0.0003
3985.00,0.0003
3982.00,0.0003
3979.00,0.0003
3976.00,0.0003
3973.00,0.0003
3970.00,0.0003
3967.00,0.0003
3964.00,0.0003
3961.00,0.0003
3958.00,0.0003
3955.00,0.0002
3952.00,0.0002
3949.00,0.0002
3946.00,0.0002
3943.00,0.0002
3940.00,0.0003
3937.00,0.0003
3934.00,0.0003
3931.00,0.0002
3928.00,0.0002
3925.00,0.0003
3922.00,0.0003
3919.00,0.0002
3916.00,0.0003
3913.00,0.0003
3910.00,0.0003
3907.00,0.0002
3904.00,0.0002
3901.00,0.0001
3898.00,0.0001
3895.00,0.0001
3892.00,0.0002
3889.00,0.0002
3886.00,0.0002
3883.00,0.0002
3880.00,0.0002
3877.00,0.0002
3874.00,0.0001
3871.00,0.0002
3868.00,0.0001
3865.00,0.0001
3862.00,0.0001
3859.00,0.0001
3856.00,0.0002
3853.00,0.0002
3850.00,0.0001
3847.00,0.0001
3844.00,0.0002
3841.00,0.0001
3838.00,0.0001
3835.00,0.0002
3832.00,0.0002
3829.00,0.0002
3826.00,0.0002
3823.00,0.0002
3820.00,0.0001
3817.00,0.0001
3814.00,0.0002
3811.00,0.0002
3808.00,0.0002
3805.00,0.0002
3802.00,0.0002
3799.00,0.0001
3796.00,0.0002
3793.00,0.0003
3790.00,0.0003
3787.00,0.0003
3784.00,0.0002
3781.00,0.0002
3778.00,0.0003
3775.00,0.0003
3772.00,0.0003
3769.00,0.0003
3766.00,0.0003
3763.00,0.0003
3760.00,0.0002
3757.00,0.0002
3754.00,0.0002
3751.00,0.0002
3748.00,0.0001
3745.00,0.0000
3742.00,-0.0000
3739.00,0.0000
3736.00,0.0000
3733.00,0.0001
3730.00,0.0001
3727.00,0.0001
3724.00,0.0001
3721.00,0.0001
3718.00,0.0002
3715.00,0.0002
3712.00,0.0002
3709.00,0.0001
3706.00,0.0001
3703.00,0.0001
3700.00,0.0002
3697.00,0.0002
3694.00,0.0002
3691.00,0.0001
3688.00,0.0001
3685.00,0.0001
3682.00,0.0002
3679.00,0.0002
3676.00,0.0001
3673.00,-0.0000
3670.00,0.0000
3667.00,0.0001
3664.00,0.0002
3661.00,0.0002
3658.00,0.0002
3655.00,0.0001
3652.00,-0.0000
3649.00,-0.0001
3646.00,0.0000
3643.00,0.0001
3640.00,0.0002
3637.00,0.0001
3634.00,0.0001
3631.00,0.0001
3628.00,0.0001
3625.00,0.0001
3622.00,0.0000
3619.00,0.0001
3616.00,0.0001
3613.00,0.0001
3610.00,0.0001
3607.00,0.0001
3604.00,0.0002
3601.00,0.0001
3598.00,0.0002
3595.00,0.0002
3592.00,0.0002
3589.00,0.0001
3586.00,0.0001
3583.00,0.0002
3580.00,0.0002
3577.00,0.0003
3574.00,0.0002
3571.00,0.0002
3568.00,0.0001
3565.00,0.0001
3562.00,0.0002
3559.00,0.0003
3556.00,0.0004
3553.00,0.0003
3550.00,0.0003
3547.00,0.0003
3544.00,0.0003
3541.00,0.0004
3538.00,0.0004
3535.00,0.0004
3532.00,0.0004
3529.00,0.0004
3526.00,0.0004
3523.00,0.0004
3520.00,0.0005
3517.00,0.0005
3514.00,0.0005
3511.00,0.0005
3508.00,0.0005
3505.00,0.0005
3502.00,0.0005
3499.00,0.0005
3496.00,0.0005
3493.00,0.0006
3490.00,0.0006
3487.00,0.0006
3484.00,0.0006
3481.00,0.0006
3478.00,0.0006
3475.00,0.0006
3472.00,0.0006
3469.00,0.0006
3466.00,0.0006
3463.00,0.0006
3460.00,0.0007
3457.00,0.0007
3454.00,0.0007
3451.00,0.0007
3448.00,0.0006
3445.00,0.0007
3442.00,0.0007
3439.00,0.0007
3436.00,0.0007
3433.00,0.0007
3430.00,0.0007
3427.00,0.0007
3424.00,0.0007
3421.00,0.0007
3418.00,0.0008
3415.00,0.0008
3412.00,0.0008
3409.00,0.0007
3406.00,0.0008
3403.00,0.0007
3400.00,0.0007
3397.00,0.0007
3394.00,0.0007
3391.00,0.0008
3388.00,0.0007
3385.00,0.0007
3382.00,0.0007
3379.00,0.0007
3376.00,0.0007
3373.00,0.0007
3370.00,0.0007
3367.00,0.0007
3364.00,0.0007
3361.00,0.0007
3358.00,0.0007
3355.00,0.0007
3352.00,0.0007
3349.00,0.0007
3346.00,0.0007
3343.00,0.0007
3340.00,0.0007
3337.00,0.0007
3334.00,0.0007
3331.00,0.0007
3328.00,0.0007
3325.00,0.0007
3322.00,0.0007
3319.00,0.0006
3316.00,0.0007
3313.00,0.0007
3310.00,0.0007
3307.00,0.0007
3304.00,0.0006
3301.00,0.0006
3298.00,0.0007
3295.00,0.0006
3292.00,0.0006
3289.00,0.0007
3286.00,0.0007
3283.00,0.0006
3280.00,0.0007
3277.00,0.0007
3274.00,0.0006
3271.00,0.0006
3268.00,0.0006
3265.00,0.0006
3262.00,0.0006
3259.00,0.0006
3256.00,0.0006
3253.00,0.0006
3250.00,0.0006
3247.00,0.0006
3244.00,0.0006
3241.00,0.0006
3238.00,0.0005
3235.00,0.0006
3232.00,0.0005
3229.00,0.0005
3226.00,0.0005
3223.00,0.0005
3220.00,0.0005
3217.00,0.0005
3214.00,0.0005
3211.00,0.0005
3208.00,0.0005
3205.00,0.0005
3202.00,0.0005
3199.00,0.0006
3196.00,0.0005
3193.00,0.0005
3190.00,0.0005
3187.00,0.0005
3184.00,0.0004
3181.00,0.0005
3178.00,0.0004
3175.00,0.0004
3172.00,0.0004
3169.00,0.0005
3166.00,0.0005
3163.00,0.0005
3160.00,0.0005
3157.00,0.0005
3154.00,0.0005
3151.00,0.0005
3148.00,0.0004
3145.00,0.0004
3142.00,0.0004
3139.00,0.0004
3136.00,0.0004
3133.00,0.0004
3130.00,0.0004
3127.00,0.0004
3124.00,0.0005
3121.00,0.0004
3118.00,0.0005
3115.00,0.0006
3112.00,0.0007
3109.00,0.0009
3106.00,0.0012
3103.00,0.0013
3100.00,0.0013
3097.00,0.0012
3094.00,0.0013
3091.00,0.0016
3088.00,0.0022
3085.00,0.0030
3082.00,0.0035
3079.00,0.0032
3076.00,0.0027
3073.00,0.0025
3070.00,0.0026
3067.00,0.0031
3064.00,0.0039
3061.00,0.0047
3058.00,0.0047
3055.00,0.0041
3052.00,0.0033
3049.00,0.0027
3046.00,0.0024
3043.00,0.0025
3040.00,0.0028
3037.00,0.0034
3034.00,0.0045
3031.00,0.0062
3028.00,0.0083
3025.00,0.0094
3022.00,0.0084
3019.00,0.0061
3016.00,0.0040
3013.00,0.0027
3010.00,0.0022
3007.00,0.0022
3004.00,0.0023
3001.00,0.0024
2998.00,0.0021
2995.00,0.0016
2992.00,0.0013
2989.00,0.0011
2986.00,0.0011
2983.00,0.0010
2980.00,0.0011
2977.00,0.0013
2974.00,0.0015
2971.00,0.0018
2968.00,0.0021
2965.00,0.0025
2962.00,0.0029
2959.00,0.0033
2956.00,0.0036
2953.00,0.0039
2950.00,0.0043
2947.00,0.0048
2944.00,0.0056
2941.00,0.0066
2938.00,0.0080
2935.00,0.0096
2932.00,0.0113
2929.00,0.0130
2926.00,0.0144
2923.00,0.0155
2920.00,0.0159
2917.00,0.0156
2914.00,0.0142
2911.00,0.0123
2908.00,0.0109
2905.00,0.0096
2902.00,0.0085
2899.00,0.0075
2896.00,0.0065
2893.00,0.0058
2890.00,0.0052
2887.00,0.0047
2884.00,0.0043
2881.00,0.0040
2878.00,0.0038
2875.00,0.0037
2872.00,0.0036
2869.00,0.0036
2866.00,0.0037
2863.00,0.0041
2860.00,0.0048
2857.00,0.0057
2854.00,0.0068
2851.00,0.0077
2848.00,0.0076
2845.00,0.0062
2842.00,0.0047
2839.00,0.0034
2836.00,0.0024
2833.00,0.0018
2830.00,0.0014
2827.00,0.0013
2824.00,0.0011
2821.00,0.0011
2818.00,0.0010
2815.00,0.0009
2812.00,0.0009
2809.00,0.0009
2806.00,0.0009
2803.00,0.0008
2800.00,0.0008
2797.00,0.0008
2794.00,0.0007
2791.00,0.0007
2788.00,0.0007
2785.00,0.0006
2782.00,0.0006
2779.00,0.0006
2776.00,0.0006
2773.00,0.0006
2770.00,0.0006
2767.00,0.0006
2764.00,0.0006
2761.00,0.0005
2758.00,0.0005
2755.00,0.0005
2752.00,0.0005
2749.00,0.0005
2746.00,0.0005
2743.00,0.0005
2740.00,0.0005
2737.00,0.0005
2734.00,0.0005
2731.00,0.0005
2728.00,0.0005
2725.00,0.0005
2722.00,0.0005
2719.00,0.0005
2716.00,0.0005
2713.00,0.0005
2710.00,0.0005
2707.00,0.0005
2704.00,0.0005
2701.00,0.0005
2698.00,0.0005
2695.00,0.0005
2692.00,0.0005
2689.00,0.0005
2686.00,0.0005
2683.00,0.0005
2680.00,0.0005
2677.00,0.0005
2674.00,0.0005
2671.00,0.0005
2668.00,0.0006
2665.00,0.0007
2662.00,0.0008
2659.00,0.0009
2656.00,0.0010
2653.00,0.0010
2650.00,0.0010
2647.00,0.0010
2644.00,0.0010
2641.00,0.0010
2638.00,0.0010
2635.00,0.0010
2632.00,0.0010
2629.00,0.0010
2626.00,0.0009
2623.00,0.0008
2620.00,0.0008
2617.00,0.0008
2614.00,0.0008
2611.00,0.0007
2608.00,0.0007
2605.00,0.0008
2602.00,0.0008
2599.00,0.0008
2596.00,0.0007
2593.00,0.0007
2590.00,0.0006
2587.00,0.0007
2584.00,0.0006
2581.00,0.0006
2578.00,0.0006
2575.00,0.0005
2572.00,0.0005
2569.00,0.0005
2566.00,0.0005
2563.00,0.0004
2560.00,0.0004
2557.00,0.0004
2554.00,0.0004
2551.00,0.0004
2548.00,0.0004
2545.00,0.0004
2542.00,0.0003
2539.00,0.0003
2536.00,0.0004
2533.00,0.0004
2530.00,0.0004
2527.00,0.0003
2524.00,0.0003
2521.00,0.0003
2518.00,0.0004
2515.00,0.0004
2512.00,0.0003
2509.00,0.0003
2506.00,0.0002
2503.00,0.0002
2500.00,0.0002
2497.00,0.0003
2494.00,0.0003
2491.00,0.0003
2488.00,0.0002
2485.00,0.0002
2482.00,0.0002
2479.00,0.0002
2476.00,0.0003
2473.00,0.0002
2470.00,0.0002
2467.00,0.0002
2464.00,0.0002
2461.00,0.0002
2458.00,0.0004
2455.00,0.0004
2452.00,0.0003
2449.00,0.0003
2446.00,0.0002
2443.00,0.0002
2440.00,0.0002
2437.00,0.0001
2434.00,0.0001
2431.00,0.0001
2428.00,0.0001
2425.00,0.0001
2422.00,0.0000
2419.00,-0.0000
2416.00,0.0000
2413.00,0.0000
2410.00,0.0000
2407.00,-0.0001
2404.00,-0.0001
2401.00,-0.0001
2398.00,-0.0001
2395.00,-0.0001
2392.00,-0.0001
2389.00,-0.0001
2386.00,-0.0002
2383.00,-0.0001
2380.00,-0.0002
2377.00,-0.0001
2374.00,-0.0001
2371.00,-0.0002
2368.00,-0.0002
2365.00,-0.0001
2362.00,-0.0000
2359.00,0.0001
2356.00,0.0001
2353.00,-0.0001
2350.00,0.0001
2347.00,0.0003
2344.00,0.0003
2341.00,0.0005
2338.00,0.0005
2335.00,0.0004
2332.00,0.0003
2329.00,0.0005
2326.00,0.0014
2323.00,0.0013
2320.00,0.0008
2317.00,0.0008
2314.00,0.0008
2311.00,0.0007
2308.00,0.0007
2305.00,0.0006
2302.00,0.0007
2299.00,0.0007
2296.00,0.0008
2293.00,0.0009
2290.00,0.0011
2287.00,0.0012
2284.00,0.0011
2281.00,0.0009
2278.00,0.0009
2275.00,0.0007
2272.00,0.0007
2269.00,0.0006
2266.00,0.0005
2263.00,0.0005
2260.00,0.0006
2257.00,0.0005
2254.00,0.0002
2251.00,0.0002
2248.00,0.0004
2245.00,0.0003
2242.00,0.0003
2239.00,0.0005
2236.00,0.0005
2233.00,0.0005
2230.00,0.0004
2227.00,0.0002
2224.00,0.0002
2221.00,0.0002
2218.00,0.0002
2215.00,0.0003
2212.00,0.0003
2209.00,0.0002
2206.00,0.0001
2203.00,0.0003
2200.00,0.0003
2197.00,0.0001
2194.00,0.0001
2191.00,0.0006
2188.00,0.0005
2185.00,0.0003
2182.00,-0.0003
2179.00,0.0000
2176.00,-0.0002
2173.00,-0.0000
2170.00,0.0006
2167.00,0.0010
2164.00,0.0012
2161.00,-0.0002
2158.00,-0.0027
2155.00,-0.0023
2152.00,-0.0016
2149.00,-0.0014
2146.00,-0.0015
2143.00,-0.0014
2140.00,-0.0013
2137.00,-0.0015
2134.00,-0.0019
2131.00,-0.0015
2128.00,-0.0011
2125.00,-0.0007
2122.00,-0.0005
2119.00,-0.0004
2116.00,-0.0001
2113.00,0.0000
2110.00,0.0000
2107.00,-0.0002
2104.00,-0.0001
2101.00,-0.0001
2098.00,-0.0003
2095.00,-0.0005
2092.00,-0.0005
2089.00,-0.0002
2086.00,-0.0002
2083.00,0.0000
2080.00,0.0000
2077.00,0.0001
2074.00,-0.0001
2071.00,-0.0001
2068.00,-0.0002
2065.00,-0.0003
2062.00,-0.0002
2059.00,0.0000
2056.00,0.0000
2053.00,0.0005
2050.00,0.0007
2047.00,-0.0001
2044.00,-0.0001
2041.00,0.0000
2038.00,0.0001
2035.00,-0.0004
2032.00,-0.0005
2029.00,-0.0006
2026.00,-0.0005
2023.00,-0.0004
2020.00,-0.0005
2017.00,-0.0004
2014.00,-0.0006
2011.00,-0.0007
2008.00,-0.0007
2005.00,-0.0012
2002.00,-0.0010
1999.00,-0.0006
1996.00,-0.0004
1993.00,-0.0003
1990.00,0.0001
1987.00,0.0004
1984.00,0.0006
1981.00,0.0010
1978.00,0.0002
1975.00,-0.0007
1972.00,-0.0007
1969.00,-0.0005
1966.00,-0.0001
1963.00,-0.0002
1960.00,-0.0004
1957.00,-0.0003
1954.00,0.0000
1951.00,0.0000
1948.00,0.0003
1945.00,0.0005
1942.00,0.0006
1939.00,0.0004
1936.00,0.0003
1933.00,0.0001
1930.00,-0.0002
1927.00,-0.0003
1924.00,-0.0003
1921.00,-0.0003
1918.00,-0.0004
1915.00,-0.0005
1912.00,-0.0003
1909.00,-0.0003
1906.00,-0.0003
1903.00,-0.0002
1900.00,-0.0002
1897.00,-0.0000
1894.00,0.0000
1891.00,0.0001
1888.00,0.0003
1885.00,0.0005
1882.00,0.0006
1879.00,0.0007
1876.00,0.0007
1873.00,0.0007
1870.00,0.0008
1867.00,0.0007
1864.00,0.0006
1861.00,0.0005
1858.00,0.0002
1855.00,0.0001
1852.00,-0.0000
1849.00,-0.0001
1846.00,-0.0001
1843.00,-0.0001
1840.00,-0.0002
1837.00,-0.0001
1834.00,-0.0001
1831.00,-0.0000
1828.00,0.0001
1825.00,0.0003
1822.00,0.0004
1819.00,0.0003
1816.00,0.0004
1813.00,0.0007
1810.00,0.0009
1807.00,0.0011
1804.00,0.0012
1801.00,0.0013
1798.00,0.0011
1795.00,0.0010
1792.00,0.0008
1789.00,0.0006
1786.00,0.0005
1783.00,0.0005
1780.00,0.0005
1777.00,0.0005
1774.00,0.0005
1771.00,0.0006
1768.00,0.0007
1765.00,0.0007
1762.00,0.0009
1759.00,0.0010
1756.00,0.0012
1753.00,0.0014
1750.00,0.0016
1747.00,0.0016
1744.00,0.0018
1741.00,0.0019
1738.00,0.0018
1735.00,0.0018
1732.00,0.0016
1729.00,0.0016
1726.00,0.0015
1723.00,0.0013
1720.00,0.0013
1717.00,0.0012
1714.00,0.0011
1711.00,0.0010
1708.00,0.0010
1705.00,0.0010
1702.00,0.0008
1699.00,0.0006
1696.00,0.0004
1693.00,0.0002
1690.00,0.0002
1687.00,0.0002
1684.00,0.0004
1681.00,0.0006
1678.00,0.0009
1675.00,0.0012
1672.00,0.0015
1669.00,0.0018
1666.00,0.0020
1663.00,0.0022
1660.00,0.0022
1657.00,0.0021
1654.00,0.0021
1651.00,0.0018
1648.00,0.0017
1645.00,0.0016
1642.00,0.0015
1639.00,0.0014
1636.00,0.0013
1633.00,0.0012
1630.00,0.0012
1627.00,0.0013
1624.00,0.0013
1621.00,0.0013
1618.00,0.0014
1615.00,0.0015
1612.00,0.0020
1609.00,0.0032
1606.00,0.0060
1603.00,0.0097
1600.00,0.0106
1597.00,0.0077
1594.00,0.0049
1591.00,0.0035
1588.00,0.0031
1585.00,0.0041
1582.00,0.0045
1579.00,0.0031
1576.00,0.0021
1573.00,0.0016
1570.00,0.0012
1567.00,0.0010
1564.00,0.0010
1561.00,0.0010
1558.00,0.0010
1555.00,0.0010
1552.00,0.0012
1549.00,0.0015
1546.00,0.0017
1543.00,0.0019
1540.00,0.0018
1537.00,0.0017
1534.00,0.0015
1531.00,0.0012
1528.00,0.0011
1525.00,0.0010
1522.00,0.0009
1519.00,0.0010
1516.00,0.0010
1513.00,0.0012
1510.00,0.0014
1507.00,0.0016
1504.00,0.0023
1501.00,0.0036
1498.00,0.0081
1495.00,0.0207
1492.00,0.0286
1489.00,0.0178
1486.00,0.0090
1483.00,0.0055
1480.00,0.0039
1477.00,0.0034
1474.00,0.0034
1471.00,0.0035
1468.00,0.0038
1465.00,0.0043
1462.00,0.0049
1459.00,0.0066
1456.00,0.0157
1453.00,0.0273
1450.00,0.0280
1447.00,0.0213
1444.00,0.0166
1441.00,0.0129
1438.00,0.0101
1435.00,0.0069
1432.00,0.0051
1429.00,0.0038
1426.00,0.0031
1423.00,0.0027
1420.00,0.0025
1417.00,0.0024
1414.00,0.0023
1411.00,0.0023
1408.00,0.0022
1405.00,0.0022
1402.00,0.0022
1399.00,0.0022
1396.00,0.0024
1393.00,0.0027
1390.00,0.0033
1387.00,0.0040
1384.00,0.0046
1381.00,0.0053
1378.00,0.0059
1375.00,0.0064
1372.00,0.0065
1369.00,0.0065
1366.00,0.0064
1363.00,0.0062
1360.00,0.0059
1357.00,0.0057
1354.00,0.0055
1351.00,0.0055
1348.00,0.0055
1345.00,0.0052
1342.00,0.0049
1339.00,0.0047
1336.00,0.0049
1333.00,0.0053
1330.00,0.0057
1327.00,0.0057
1324.00,0.0056
1321.00,0.0054
1318.00,0.0053
1315.00,0.0055
1312.00,0.0056
1309.00,0.0055
1306.00,0.0053
1303.00,0.0050
1300.00,0.0047
1297.00,0.0047
1294.00,0.0046
1291.00,0.0043
1288.00,0.0040
1285.00,0.0038
1282.00,0.0039
1279.00,0.0038
1276.00,0.0036
1273.00,0.0033
1270.00,0.0031
1267.00,0.0029
1264.00,0.0029
1261.00,0.0029
1258.00,0.0029
1255.00,0.0029
1252.00,0.0030
1249.00,0.0031
1246.00,0.0031
1243.00,0.0031
1240.00,0.0031
1237.00,0.0030
1234.00,0.0030
1231.00,0.0031
1228.00,0.0031
1225.00,0.0032
1222.00,0.0033
1219.00,0.0033
1216.00,0.0033
1213.00,0.0035
1210.00,0.0037
1207.00,0.0040
1204.00,0.0043
1201.00,0.0047
1198.00,0.0050
1195.00,0.0051
1192.00,0.0052
1189.00,0.0054
1186.00,0.0059
1183.00,0.0069
1180.00,0.0070
1177.00,0.0059
1174.00,0.0048
1171.00,0.0043
1168.00,0.0042
1165.00,0.0042
1162.00,0.0046
1159.00,0.0056
1156.00,0.0069
1153.00,0.0069
1150.00,0.0054
1147.00,0.0041
1144.00,0.0036
1141.00,0.0032
1138.00,0.0030
1135.00,0.0029
1132.00,0.0030
1129.00,0.0031
1126.00,0.0031
1123.00,0.0032
1120.00,0.0034
1117.00,0.0038
1114.00,0.0042
1111.00,0.0043
1108.00,0.0042
1105.00,0.0041
1102.00,0.0042
1099.00,0.0044
1096.00,0.0046
1093.00,0.0048
1090.00,0.0050
1087.00,0.0053
1084.00,0.0059
1081.00,0.0066
1078.00,0.0073
1075.00,0.0083
1072.00,0.0095
1069.00,0.0102
1066.00,0.0098
1063.00,0.0087
1060.00,0.0076
1057.00,0.0069
1054.00,0.0063
1051.00,0.0057
1048.00,0.0054
1045.00,0.0053
1042.00,0.0053
1039.00,0.0058
1036.00,0.0077
1033.00,0.0119
1030.00,0.0164
1027.00,0.0174
1024.00,0.0143
1021.00,0.0113
1018.00,0.0093
1015.00,0.0080
1012.00,0.0074
1009.00,0.0071
1006.00,0.0072
1003.00,0.0077
1000.00,0.0067
997.00,0.0057
994.00,0.0053
991.00,0.0054
988.00,0.0056
985.00,0.0062
982.00,0.0067
979.00,0.0068
976.00,0.0064
973.00,0.0062
970.00,0.0064
967.00,0.0072
964.00,0.0076
961.00,0.0071
958.00,0.0062
955.00,0.0056
952.00,0.0055
949.00,0.0057
946.00,0.0060
943.00,0.0061
940.00,0.0059
937.00,0.0054
934.00,0.0046
931.00,0.0043
928.00,0.0042
925.00,0.0043
922.00,0.0046
919.00,0.0052
916.00,0.0063
913.00,0.0083
910.00,0.0108
907.00,0.0124
904.00,0.0117
901.00,0.0093
898.00,0.0066
895.00,0.0050
892.00,0.0043
889.00,0.0039
886.00,0.0036
883.00,0.0033
880.00,0.0032
877.00,0.0032
874.00,0.0030
871.00,0.0028
868.00,0.0026
865.00,0.0027
862.00,0.0027
859.00,0.0028
856.00,0.0030
853.00,0.0033
850.00,0.0040
847.00,0.0051
844.00,0.0060
841.00,0.0064
838.00,0.0057
835.00,0.0044
832.00,0.0035
829.00,0.0031
826.00,0.0028
823.00,0.0027
820.00,0.0028
817.00,0.0029
814.00,0.0029
811.00,0.0028
808.00,0.0030
805.00,0.0031
802.00,0.0033
799.00,0.0036
796.00,0.0042
793.00,0.0050
790.00,0.0060
787.00,0.0072
784.00,0.0087
781.00,0.0107
778.00,0.0137
775.00,0.0178
772.00,0.0233
769.00,0.0300
766.00,0.0367
763.00,0.0431
760.00,0.0498
757.00,0.0549
754.00,0.0562
751.00,0.0556
748.00,0.0553
745.00,0.0510
742.00,0.0404
739.00,0.0296
736.00,0.0211
733.00,0.0139
730.00,0.0093
727.00,0.0074
724.00,0.0067
721.00,0.0066
718.00,0.0071
715.00,0.0084
712.00,0.0125
709.00,0.0233
706.00,0.0456
703.00,0.0820
700.00,0.1284
697.00,0.1727
694.00,0.1814
691.00,0.1331
688.00,0.0852
685.00,0.0594
682.00,0.0454
679.00,0.0364
676.00,0.0307
673.00,0.0271
670.00,0.0246
667.00,0.0218
664.00,0.0195
661.00,0.0171
658.00,0.0151
655.00,0.0132
652.00,0.0116
649.00,0.0104
646.00,0.0095
643.00,0.0090
640.00,0.0089
637.00,0.0094
634.00,0.0102
631.00,0.0109
628.00,0.0116
625.00,0.0120
622.00,0.0126
619.00,0.0123
616.00,0.0113
613.00,0.0108
610.00,0.0103
607.00,0.0099
604.00,0.0098
601.00,0.0102
598.00,0.0104
595.00,0.0108
592.00,0.0115
589.00,0.0122
586.00,0.0129
583.00,0.0134
580.00,0.0146
577.00,0.0167
574.00,0.0192
571.00,0.0218
568.00,0.0242
565.00,0.0269
562.00,0.0292
559.00,0.0315
556.00,0.0344
553.00,0.0374
550.00,0.0410
547.00,0.0458
544.00,0.0518
541.00,0.0583
538.00,0.0610
535.00,0.0575
532.00,0.0496
529.00,0.0411
526.00,0.0331
523.00,0.0270
520.00,0.0235
517.00,0.0212
514.00,0.0192
511.00,0.0173
508.00,0.0158
505.00,0.0146
502.00,0.0132
499.00,0.0124
496.00,0.0119
493.00,0.0113
490.00,0.0109
487.00,0.0105
484.00,0.0101
481.00,0.0092
478.00,0.0087
475.00,0.0085
472.00,0.0089
469.00,0.0095
466.00,0.0086
463.00,0.0084
460.00,0.0084
457.00,0.0085
454.00,0.0084
451.00,0.0076
448.00,0.0074
445.00,0.0073
442.00,0.0071
439.00,0.0065
436.00,0.0063
433.00,0.0070
430.00,0.0069
427.00,0.0058
424.00,0.0059
421.00,0.0076
418.00,0.0053
415.00,0.0049
412.00,0.0064
409.00,0.0076
406.00,0.0090
403.00,0.0080
400.00,0.0060