File: FTIR/Olivia/2025_07_31_Polystyrene_Std_scan3.csv
Created as New Dataset,Sample 1003 By YargerLab Date Thursday, July 31 2025
cm-1,A
4000.00,0.0001
3997.00,0.0001
3994.00,0.0001
3991.00,-0.0000
3988.00,-0.0000
3985.00,-0.0000
3982.00,0.0000
3979.00,-0.0000
3976.00,-0.0001
3973.00,-0.0000
3970.00,0.0000
3967.00,-0.0000
3964.00,-0.0000
3961.00,-0.0000
3958.00,-0.0000
3955.00,-0.0000
3952.00,0.0000
3949.00,0.0000
3946.00,-0.0000
3943.00,0.0000
3940.00,0.0000
3937.00,-0.0000
3934.00,-0.0001
3931.00,-0.0001
3928.00,-0.0000
3925.00,-0.0000
3922.00,-0.0001
3919.00,-0.0001
3916.00,-0.0000
3913.00,0.0000
3910.00,0.0000
3907.00,-0.0000
3904.00,-0.0001
3901.00,-0.0002
3898.00,-0.0001
3895.00,-0.0001
3892.00,-0.0001
3889.00,-0.0001
3886.00,-0.0000
3883.00,-0.0002
3880.00,-0.0002
3877.00,-0.0001
3874.00,-0.0000
3871.00,-0.0001
3868.00,-0.0001
3865.00,-0.0002
3862.00,-0.0001
3859.00,-0.0000
3856.00,-0.0002
3853.00,-0.0002
3850.00,-0.0002
3847.00,-0.0000
3844.00,-0.0000
3841.00,-0.0001
3838.00,-0.0001
3835.00,-0.0001
3832.00,-0.0001
3829.00,-0.0001
3826.00,-0.0000
3823.00,-0.0001
3820.00,-0.0000
3817.00,-0.0001
3814.00,-0.0001
3811.00,-0.0000
3808.00,0.0000
3805.00,0.0001
3802.00,0.0000
3799.00,-0.0000
3796.00,0.0000
3793.00,0.0001
3790.00,0.0001
3787.00,0.0000
3784.00,0.0001
3781.00,0.0000
3778.00,0.0000
3775.00,0.0000
3772.00,0.0001
3769.00,0.0000
3766.00,0.0000
3763.00,0.0001
3760.00,0.0000
3757.00,-0.0000
3754.00,-0.0000
3751.00,-0.0001
3748.00,-0.0002
3745.00,-0.0002
3742.00,-0.0002
3739.00,-0.0002
3736.00,-0.0002
3733.00,-0.0002
3730.00,-0.0001
3727.00,-0.0001
3724.00,-0.0001
3721.00,-0.0001
3718.00,-0.0000
3715.00,-0.0001
3712.00,-0.0001
3709.00,-0.0002
3706.00,-0.0001
3703.00,-0.0000
3700.00,-0.0000
3697.00,-0.0000
3694.00,-0.0001
3691.00,-0.0001
3688.00,-0.0001
3685.00,-0.0001
3682.00,-0.0001
3679.00,-0.0001
3676.00,-0.0002
3673.00,-0.0002
3670.00,-0.0003
3667.00,-0.0002
3664.00,-0.0001
3661.00,-0.0001
3658.00,-0.0001
3655.00,-0.0002
3652.00,-0.0002
3649.00,-0.0002
3646.00,-0.0002
3643.00,-0.0001
3640.00,-0.0000
3637.00,-0.0001
3634.00,-0.0001
3631.00,-0.0003
3628.00,-0.0003
3625.00,-0.0002
3622.00,-0.0001
3619.00,-0.0001
3616.00,-0.0001
3613.00,-0.0001
3610.00,-0.0002
3607.00,-0.0002
3604.00,-0.0001
3601.00,-0.0001
3598.00,-0.0001
3595.00,-0.0001
3592.00,-0.0001
3589.00,-0.0002
3586.00,-0.0002
3583.00,-0.0001
3580.00,-0.0001
3577.00,0.0000
3574.00,-0.0000
3571.00,-0.0001
3568.00,-0.0002
3565.00,-0.0002
3562.00,-0.0001
3559.00,0.0001
3556.00,0.0000
3553.00,0.0000
3550.00,0.0001
3547.00,-0.0000
3544.00,-0.0000
3541.00,0.0001
3538.00,0.0001
3535.00,0.0001
3532.00,0.0001
3529.00,0.0001
3526.00,0.0001
3523.00,0.0001
3520.00,0.0001
3517.00,0.0002
3514.00,0.0002
3511.00,0.0002
3508.00,0.0001
3505.00,0.0002
3502.00,0.0002
3499.00,0.0002
3496.00,0.0003
3493.00,0.0002
3490.00,0.0002
3487.00,0.0002
3484.00,0.0002
3481.00,0.0002
3478.00,0.0002
3475.00,0.0002
3472.00,0.0002
3469.00,0.0003
3466.00,0.0003
3463.00,0.0003
3460.00,0.0003
3457.00,0.0003
3454.00,0.0002
3451.00,0.0002
3448.00,0.0002
3445.00,0.0002
3442.00,0.0003
3439.00,0.0002
3436.00,0.0002
3433.00,0.0003
3430.00,0.0002
3427.00,0.0002
3424.00,0.0002
3421.00,0.0002
3418.00,0.0002
3415.00,0.0002
3412.00,0.0002
3409.00,0.0002
3406.00,0.0002
3403.00,0.0002
3400.00,0.0002
3397.00,0.0002
3394.00,0.0002
3391.00,0.0002
3388.00,0.0002
3385.00,0.0002
3382.00,0.0002
3379.00,0.0002
3376.00,0.0002
3373.00,0.0002
3370.00,0.0003
3367.00,0.0002
3364.00,0.0002
3361.00,0.0002
3358.00,0.0002
3355.00,0.0002
3352.00,0.0001
3349.00,0.0002
3346.00,0.0002
3343.00,0.0002
3340.00,0.0001
3337.00,0.0001
3334.00,0.0001
3331.00,0.0002
3328.00,0.0002
3325.00,0.0001
3322.00,0.0001
3319.00,0.0002
3316.00,0.0002
3313.00,0.0002
3310.00,0.0002
3307.00,0.0002
3304.00,0.0002
3301.00,0.0002
3298.00,0.0002
3295.00,0.0002
3292.00,0.0002
3289.00,0.0002
3286.00,0.0002
3283.00,0.0001
3280.00,0.0001
3277.00,0.0001
3274.00,0.0002
3271.00,0.0002
3268.00,0.0001
3265.00,0.0001
3262.00,0.0001
3259.00,0.0001
3256.00,0.0001
3253.00,0.0001
3250.00,0.0001
3247.00,0.0000
3244.00,0.0001
3241.00,0.0001
3238.00,0.0001
3235.00,0.0001
3232.00,0.0001
3229.00,0.0001
3226.00,0.0001
3223.00,0.0001
3220.00,0.0001
3217.00,0.0000
3214.00,-0.0000
3211.00,0.0001
3208.00,0.0001
3205.00,0.0002
3202.00,0.0001
3199.00,0.0001
3196.00,0.0001
3193.00,0.0001
3190.00,0.0001
3187.00,0.0001
3184.00,0.0001
3181.00,0.0000
3178.00,0.0001
3175.00,0.0001
3172.00,0.0001
3169.00,0.0001
3166.00,0.0001
3163.00,0.0001
3160.00,0.0001
3157.00,0.0002
3154.00,0.0001
3151.00,0.0001
3148.00,0.0001
3145.00,0.0001
3142.00,0.0001
3139.00,0.0001
3136.00,0.0001
3133.00,0.0001
3130.00,0.0001
3127.00,0.0001
3124.00,0.0002
3121.00,0.0002
3118.00,0.0002
3115.00,0.0003
3112.00,0.0005
3109.00,0.0007
3106.00,0.0010
3103.00,0.0011
3100.00,0.0011
3097.00,0.0011
3094.00,0.0011
3091.00,0.0014
3088.00,0.0020
3085.00,0.0028
3082.00,0.0033
3079.00,0.0031
3076.00,0.0026
3073.00,0.0024
3070.00,0.0025
3067.00,0.0031
3064.00,0.0039
3061.00,0.0046
3058.00,0.0047
3055.00,0.0040
3052.00,0.0032
3049.00,0.0026
3046.00,0.0023
3043.00,0.0023
3040.00,0.0026
3037.00,0.0033
3034.00,0.0045
3031.00,0.0063
3028.00,0.0085
3025.00,0.0096
3022.00,0.0086
3019.00,0.0061
3016.00,0.0039
3013.00,0.0025
3010.00,0.0019
3007.00,0.0018
3004.00,0.0019
3001.00,0.0020
2998.00,0.0017
2995.00,0.0012
2992.00,0.0008
2989.00,0.0005
2986.00,0.0003
2983.00,0.0001
2980.00,0.0000
2977.00,0.0002
2974.00,0.0003
2971.00,0.0003
2968.00,0.0004
2965.00,0.0007
2962.00,0.0009
2959.00,0.0011
2956.00,0.0014
2953.00,0.0018
2950.00,0.0024
2947.00,0.0031
2944.00,0.0038
2941.00,0.0047
2938.00,0.0057
2935.00,0.0067
2932.00,0.0078
2929.00,0.0089
2926.00,0.0098
2923.00,0.0103
2920.00,0.0104
2917.00,0.0101
2914.00,0.0096
2911.00,0.0088
2908.00,0.0081
2905.00,0.0072
2902.00,0.0063
2899.00,0.0054
2896.00,0.0046
2893.00,0.0040
2890.00,0.0035
2887.00,0.0032
2884.00,0.0029
2881.00,0.0027
2878.00,0.0025
2875.00,0.0023
2872.00,0.0021
2869.00,0.0021
2866.00,0.0021
2863.00,0.0023
2860.00,0.0027
2857.00,0.0032
2854.00,0.0037
2851.00,0.0041
2848.00,0.0042
2845.00,0.0040
2842.00,0.0034
2839.00,0.0025
2836.00,0.0017
2833.00,0.0012
2830.00,0.0009
2827.00,0.0007
2824.00,0.0007
2821.00,0.0006
2818.00,0.0006
2815.00,0.0006
2812.00,0.0005
2809.00,0.0005
2806.00,0.0005
2803.00,0.0004
2800.00,0.0004
2797.00,0.0004
2794.00,0.0004
2791.00,0.0004
2788.00,0.0004
2785.00,0.0004
2782.00,0.0003
2779.00,0.0003
2776.00,0.0003
2773.00,0.0003
2770.00,0.0003
2767.00,0.0003
2764.00,0.0003
2761.00,0.0002
2758.00,0.0002
2755.00,0.0003
2752.00,0.0002
2749.00,0.0002
2746.00,0.0002
2743.00,0.0002
2740.00,0.0002
2737.00,0.0002
2734.00,0.0002
2731.00,0.0003
2728.00,0.0003
2725.00,0.0003
2722.00,0.0003
2719.00,0.0003
2716.00,0.0003
2713.00,0.0002
2710.00,0.0002
2707.00,0.0002
2704.00,0.0003
2701.00,0.0003
2698.00,0.0003
2695.00,0.0003
2692.00,0.0003
2689.00,0.0003
2686.00,0.0003
2683.00,0.0003
2680.00,0.0003
2677.00,0.0003
2674.00,0.0002
2671.00,0.0003
2668.00,0.0003
2665.00,0.0004
2662.00,0.0005
2659.00,0.0006
2656.00,0.0007
2653.00,0.0007
2650.00,0.0007
2647.00,0.0007
2644.00,0.0007
2641.00,0.0007
2638.00,0.0007
2635.00,0.0007
2632.00,0.0007
2629.00,0.0007
2626.00,0.0006
2623.00,0.0006
2620.00,0.0006
2617.00,0.0006
2614.00,0.0006
2611.00,0.0006
2608.00,0.0006
2605.00,0.0006
2602.00,0.0005
2599.00,0.0005
2596.00,0.0005
2593.00,0.0004
2590.00,0.0003
2587.00,0.0004
2584.00,0.0004
2581.00,0.0004
2578.00,0.0003
2575.00,0.0003
2572.00,0.0002
2569.00,0.0002
2566.00,0.0002
2563.00,0.0002
2560.00,0.0002
2557.00,0.0002
2554.00,0.0001
2551.00,0.0001
2548.00,0.0001
2545.00,0.0001
2542.00,0.0002
2539.00,0.0001
2536.00,0.0000
2533.00,0.0001
2530.00,0.0001
2527.00,0.0001
2524.00,0.0000
2521.00,-0.0000
2518.00,0.0000
2515.00,0.0001
2512.00,0.0001
2509.00,0.0001
2506.00,0.0000
2503.00,0.0001
2500.00,0.0001
2497.00,0.0001
2494.00,0.0001
2491.00,0.0001
2488.00,0.0000
2485.00,0.0001
2482.00,0.0000
2479.00,-0.0001
2476.00,-0.0000
2473.00,-0.0000
2470.00,-0.0001
2467.00,-0.0000
2464.00,0.0000
2461.00,0.0000
2458.00,0.0001
2455.00,0.0002
2452.00,0.0002
2449.00,0.0001
2446.00,0.0001
2443.00,-0.0000
2440.00,-0.0000
2437.00,-0.0000
2434.00,-0.0001
2431.00,-0.0000
2428.00,-0.0000
2425.00,-0.0001
2422.00,-0.0001
2419.00,-0.0001
2416.00,-0.0001
2413.00,-0.0001
2410.00,-0.0001
2407.00,-0.0003
2404.00,-0.0003
2401.00,-0.0003
2398.00,-0.0003
2395.00,-0.0003
2392.00,-0.0003
2389.00,-0.0003
2386.00,-0.0003
2383.00,-0.0003
2380.00,-0.0003
2377.00,-0.0003
2374.00,-0.0003
2371.00,-0.0003
2368.00,-0.0002
2365.00,-0.0002
2362.00,-0.0001
2359.00,-0.0000
2356.00,0.0000
2353.00,-0.0001
2350.00,0.0000
2347.00,0.0001
2344.00,0.0002
2341.00,0.0003
2338.00,0.0004
2335.00,0.0003
2332.00,0.0003
2329.00,0.0004
2326.00,0.0013
2323.00,0.0013
2320.00,0.0010
2317.00,0.0008
2314.00,0.0006
2311.00,0.0006
2308.00,0.0006
2305.00,0.0005
2302.00,0.0005
2299.00,0.0005
2296.00,0.0006
2293.00,0.0008
2290.00,0.0009
2287.00,0.0009
2284.00,0.0008
2281.00,0.0007
2278.00,0.0006
2275.00,0.0004
2272.00,0.0004
2269.00,0.0003
2266.00,0.0003
2263.00,0.0003
2260.00,0.0004
2257.00,0.0004
2254.00,0.0003
2251.00,0.0002
2248.00,0.0002
2245.00,0.0001
2242.00,-0.0000
2239.00,0.0001
2236.00,0.0002
2233.00,0.0001
2230.00,-0.0001
2227.00,-0.0003
2224.00,-0.0001
2221.00,0.0001
2218.00,0.0000
2215.00,0.0002
2212.00,0.0001
2209.00,-0.0000
2206.00,-0.0000
2203.00,0.0001
2200.00,0.0000
2197.00,0.0001
2194.00,0.0002
2191.00,0.0001
2188.00,0.0001
2185.00,0.0003
2182.00,0.0000
2179.00,-0.0001
2176.00,-0.0004
2173.00,-0.0001
2170.00,0.0006
2167.00,0.0008
2164.00,0.0009
2161.00,-0.0002
2158.00,-0.0028
2155.00,-0.0023
2152.00,-0.0020
2149.00,-0.0019
2146.00,-0.0019
2143.00,-0.0017
2140.00,-0.0015
2137.00,-0.0017
2134.00,-0.0021
2131.00,-0.0018
2128.00,-0.0014
2125.00,-0.0011
2122.00,-0.0008
2119.00,-0.0006
2116.00,-0.0003
2113.00,-0.0002
2110.00,-0.0003
2107.00,-0.0002
2104.00,-0.0002
2101.00,-0.0002
2098.00,-0.0004
2095.00,-0.0007
2092.00,-0.0004
2089.00,-0.0002
2086.00,-0.0002
2083.00,-0.0001
2080.00,-0.0000
2077.00,0.0001
2074.00,-0.0001
2071.00,-0.0002
2068.00,-0.0001
2065.00,-0.0001
2062.00,-0.0004
2059.00,-0.0004
2056.00,-0.0003
2053.00,0.0003
2050.00,0.0006
2047.00,0.0001
2044.00,0.0002
2041.00,0.0001
2038.00,-0.0000
2035.00,-0.0002
2032.00,-0.0004
2029.00,-0.0007
2026.00,-0.0007
2023.00,-0.0006
2020.00,-0.0008
2017.00,-0.0009
2014.00,-0.0009
2011.00,-0.0007
2008.00,-0.0009
2005.00,-0.0011
2002.00,-0.0007
1999.00,-0.0005
1996.00,-0.0004
1993.00,-0.0003
1990.00,-0.0001
1987.00,0.0002
1984.00,0.0005
1981.00,0.0008
1978.00,-0.0001
1975.00,-0.0006
1972.00,-0.0009
1969.00,-0.0008
1966.00,-0.0007
1963.00,-0.0006
1960.00,-0.0006
1957.00,-0.0002
1954.00,-0.0001
1951.00,0.0001
1948.00,0.0004
1945.00,0.0006
1942.00,0.0006
1939.00,0.0004
1936.00,0.0003
1933.00,0.0003
1930.00,-0.0002
1927.00,-0.0003
1924.00,-0.0004
1921.00,-0.0004
1918.00,-0.0002
1915.00,-0.0003
1912.00,-0.0005
1909.00,-0.0003
1906.00,-0.0003
1903.00,-0.0002
1900.00,-0.0003
1897.00,-0.0003
1894.00,-0.0001
1891.00,0.0002
1888.00,0.0003
1885.00,0.0003
1882.00,0.0005
1879.00,0.0005
1876.00,0.0006
1873.00,0.0008
1870.00,0.0008
1867.00,0.0007
1864.00,0.0006
1861.00,0.0004
1858.00,0.0002
1855.00,-0.0000
1852.00,-0.0001
1849.00,-0.0001
1846.00,-0.0002
1843.00,-0.0002
1840.00,-0.0003
1837.00,-0.0002
1834.00,-0.0001
1831.00,-0.0000
1828.00,0.0001
1825.00,0.0002
1822.00,0.0003
1819.00,0.0003
1816.00,0.0004
1813.00,0.0006
1810.00,0.0008
1807.00,0.0010
1804.00,0.0011
1801.00,0.0012
1798.00,0.0011
1795.00,0.0009
1792.00,0.0007
1789.00,0.0005
1786.00,0.0005
1783.00,0.0004
1780.00,0.0004
1777.00,0.0004
1774.00,0.0005
1771.00,0.0005
1768.00,0.0005
1765.00,0.0006
1762.00,0.0008
1759.00,0.0008
1756.00,0.0011
1753.00,0.0012
1750.00,0.0013
1747.00,0.0015
1744.00,0.0016
1741.00,0.0015
1738.00,0.0015
1735.00,0.0015
1732.00,0.0013
1729.00,0.0012
1726.00,0.0011
1723.00,0.0011
1720.00,0.0011
1717.00,0.0010
1714.00,0.0009
1711.00,0.0008
1708.00,0.0009
1705.00,0.0008
1702.00,0.0008
1699.00,0.0009
1696.00,0.0009
1693.00,0.0011
1690.00,0.0013
1687.00,0.0014
1684.00,0.0015
1681.00,0.0016
1678.00,0.0017
1675.00,0.0017
1672.00,0.0016
1669.00,0.0016
1666.00,0.0016
1663.00,0.0016
1660.00,0.0015
1657.00,0.0014
1654.00,0.0012
1651.00,0.0012
1648.00,0.0011
1645.00,0.0010
1642.00,0.0009
1639.00,0.0009
1636.00,0.0008
1633.00,0.0008
1630.00,0.0008
1627.00,0.0009
1624.00,0.0010
1621.00,0.0010
1618.00,0.0011
1615.00,0.0013
1612.00,0.0018
1609.00,0.0031
1606.00,0.0057
1603.00,0.0093
1600.00,0.0103
1597.00,0.0075
1594.00,0.0046
1591.00,0.0033
1588.00,0.0029
1585.00,0.0038
1582.00,0.0041
1579.00,0.0028
1576.00,0.0016
1573.00,0.0012
1570.00,0.0010
1567.00,0.0008
1564.00,0.0008
1561.00,0.0007
1558.00,0.0007
1555.00,0.0009
1552.00,0.0011
1549.00,0.0013
1546.00,0.0014
1543.00,0.0015
1540.00,0.0014
1537.00,0.0013
1534.00,0.0012
1531.00,0.0010
1528.00,0.0010
1525.00,0.0008
1522.00,0.0007
1519.00,0.0008
1516.00,0.0010
1513.00,0.0011
1510.00,0.0013
1507.00,0.0014
1504.00,0.0020
1501.00,0.0034
1498.00,0.0077
1495.00,0.0197
1492.00,0.0277
1489.00,0.0171
1486.00,0.0084
1483.00,0.0051
1480.00,0.0034
1477.00,0.0028
1474.00,0.0025
1471.00,0.0023
1468.00,0.0026
1465.00,0.0029
1462.00,0.0036
1459.00,0.0056
1456.00,0.0144
1453.00,0.0255
1450.00,0.0263
1447.00,0.0196
1444.00,0.0153
1441.00,0.0119
1438.00,0.0095
1435.00,0.0063
1432.00,0.0047
1429.00,0.0034
1426.00,0.0028
1423.00,0.0025
1420.00,0.0024
1417.00,0.0020
1414.00,0.0019
1411.00,0.0018
1408.00,0.0017
1405.00,0.0017
1402.00,0.0017
1399.00,0.0017
1396.00,0.0018
1393.00,0.0021
1390.00,0.0026
1387.00,0.0033
1384.00,0.0039
1381.00,0.0044
1378.00,0.0049
1375.00,0.0054
1372.00,0.0056
1369.00,0.0056
1366.00,0.0056
1363.00,0.0055
1360.00,0.0052
1357.00,0.0050
1354.00,0.0048
1351.00,0.0048
1348.00,0.0047
1345.00,0.0045
1342.00,0.0043
1339.00,0.0041
1336.00,0.0042
1333.00,0.0046
1330.00,0.0049
1327.00,0.0050
1324.00,0.0048
1321.00,0.0046
1318.00,0.0047
1315.00,0.0048
1312.00,0.0049
1309.00,0.0048
1306.00,0.0045
1303.00,0.0043
1300.00,0.0040
1297.00,0.0040
1294.00,0.0039
1291.00,0.0039
1288.00,0.0038
1285.00,0.0037
1282.00,0.0036
1279.00,0.0034
1276.00,0.0032
1273.00,0.0030
1270.00,0.0028
1267.00,0.0027
1264.00,0.0025
1261.00,0.0024
1258.00,0.0023
1255.00,0.0023
1252.00,0.0024
1249.00,0.0024
1246.00,0.0025
1243.00,0.0024
1240.00,0.0024
1237.00,0.0024
1234.00,0.0024
1231.00,0.0024
1228.00,0.0025
1225.00,0.0026
1222.00,0.0026
1219.00,0.0026
1216.00,0.0027
1213.00,0.0028
1210.00,0.0030
1207.00,0.0032
1204.00,0.0036
1201.00,0.0040
1198.00,0.0043
1195.00,0.0044
1192.00,0.0044
1189.00,0.0046
1186.00,0.0050
1183.00,0.0059
1180.00,0.0060
1177.00,0.0050
1174.00,0.0038
1171.00,0.0033
1168.00,0.0033
1165.00,0.0033
1162.00,0.0036
1159.00,0.0046
1156.00,0.0059
1153.00,0.0060
1150.00,0.0045
1147.00,0.0033
1144.00,0.0028
1141.00,0.0024
1138.00,0.0022
1135.00,0.0021
1132.00,0.0022
1129.00,0.0022
1126.00,0.0023
1123.00,0.0024
1120.00,0.0027
1117.00,0.0030
1114.00,0.0034
1111.00,0.0036
1108.00,0.0035
1105.00,0.0035
1102.00,0.0036
1099.00,0.0037
1096.00,0.0038
1093.00,0.0040
1090.00,0.0041
1087.00,0.0045
1084.00,0.0050
1081.00,0.0057
1078.00,0.0064
1075.00,0.0074
1072.00,0.0085
1069.00,0.0091
1066.00,0.0087
1063.00,0.0077
1060.00,0.0066
1057.00,0.0060
1054.00,0.0054
1051.00,0.0049
1048.00,0.0047
1045.00,0.0046
1042.00,0.0046
1039.00,0.0050
1036.00,0.0069
1033.00,0.0108
1030.00,0.0150
1027.00,0.0159
1024.00,0.0131
1021.00,0.0102
1018.00,0.0085
1015.00,0.0074
1012.00,0.0066
1009.00,0.0063
1006.00,0.0066
1003.00,0.0069
1000.00,0.0060
997.00,0.0050
994.00,0.0048
991.00,0.0049
988.00,0.0051
985.00,0.0057
982.00,0.0062
979.00,0.0061
976.00,0.0057
973.00,0.0056
970.00,0.0058
967.00,0.0064
964.00,0.0068
961.00,0.0062
958.00,0.0054
955.00,0.0048
952.00,0.0047
949.00,0.0048
946.00,0.0051
943.00,0.0052
940.00,0.0051
937.00,0.0047
934.00,0.0041
931.00,0.0037
928.00,0.0036
925.00,0.0038
922.00,0.0041
919.00,0.0046
916.00,0.0057
913.00,0.0075
910.00,0.0098
907.00,0.0112
904.00,0.0107
901.00,0.0085
898.00,0.0060
895.00,0.0045
892.00,0.0038
889.00,0.0036
886.00,0.0032
883.00,0.0030
880.00,0.0028
877.00,0.0027
874.00,0.0026
871.00,0.0025
868.00,0.0024
865.00,0.0024
862.00,0.0024
859.00,0.0025
856.00,0.0026
853.00,0.0030
850.00,0.0037
847.00,0.0046
844.00,0.0055
841.00,0.0058
838.00,0.0052
835.00,0.0040
832.00,0.0030
829.00,0.0026
826.00,0.0024
823.00,0.0023
820.00,0.0022
817.00,0.0024
814.00,0.0026
811.00,0.0025
808.00,0.0026
805.00,0.0028
802.00,0.0029
799.00,0.0031
796.00,0.0037
793.00,0.0046
790.00,0.0053
787.00,0.0065
784.00,0.0079
781.00,0.0098
778.00,0.0125
775.00,0.0162
772.00,0.0212
769.00,0.0271
766.00,0.0331
763.00,0.0389
760.00,0.0450
757.00,0.0495
754.00,0.0508
751.00,0.0502
748.00,0.0500
745.00,0.0461
742.00,0.0366
739.00,0.0269
736.00,0.0191
733.00,0.0126
730.00,0.0083
727.00,0.0065
724.00,0.0058
721.00,0.0057
718.00,0.0062
715.00,0.0075
712.00,0.0113
709.00,0.0210
706.00,0.0406
703.00,0.0721
700.00,0.1116
697.00,0.1491
694.00,0.1579
691.00,0.1177
688.00,0.0761
685.00,0.0532
682.00,0.0407
679.00,0.0328
676.00,0.0275
673.00,0.0243
670.00,0.0223
667.00,0.0195
664.00,0.0175
661.00,0.0155
658.00,0.0134
655.00,0.0117
652.00,0.0104
649.00,0.0093
646.00,0.0084
643.00,0.0079
640.00,0.0080
637.00,0.0084
634.00,0.0091
631.00,0.0096
628.00,0.0102
625.00,0.0106
622.00,0.0110
619.00,0.0110
616.00,0.0100
613.00,0.0094
610.00,0.0088
607.00,0.0085
604.00,0.0087
601.00,0.0089
598.00,0.0092
595.00,0.0095
592.00,0.0101
589.00,0.0106
586.00,0.0111
583.00,0.0118
580.00,0.0133
577.00,0.0150
574.00,0.0171
571.00,0.0196
568.00,0.0218
565.00,0.0241
562.00,0.0265
559.00,0.0285
556.00,0.0308
553.00,0.0337
550.00,0.0370
547.00,0.0412
544.00,0.0465
541.00,0.0520
538.00,0.0549
535.00,0.0522
532.00,0.0452
529.00,0.0376
526.00,0.0305
523.00,0.0249
520.00,0.0214
517.00,0.0195
514.00,0.0176
511.00,0.0159
508.00,0.0145
505.00,0.0132
502.00,0.0124
499.00,0.0110
496.00,0.0103
493.00,0.0100
490.00,0.0096
487.00,0.0093
484.00,0.0087
481.00,0.0084
478.00,0.0082
475.00,0.0082
472.00,0.0085
469.00,0.0081
466.00,0.0081
463.00,0.0071
460.00,0.0078
457.00,0.0080
454.00,0.0074
451.00,0.0071
448.00,0.0072
445.00,0.0071
442.00,0.0065
439.00,0.0061
436.00,0.0059
433.00,0.0061
430.00,0.0064
427.00,0.0055
424.00,0.0042
421.00,0.0052
418.00,0.0072
415.00,0.0067
412.00,0.0060
409.00,0.0075
406.00,0.0062
403.00,0.0071
400.00,0.0104