File: FTIR/Olivia/2025_07_29_Polystyrene_Std_scan1.csv
Created as New Dataset,Sample 951 By YargerLab Date Tuesday, July 29 2025
cm-1,A
4000.00,0.0009
3997.00,0.0009
3994.00,0.0009
3991.00,0.0008
3988.00,0.0008
3985.00,0.0008
3982.00,0.0008
3979.00,0.0009
3976.00,0.0008
3973.00,0.0008
3970.00,0.0009
3967.00,0.0009
3964.00,0.0009
3961.00,0.0008
3958.00,0.0008
3955.00,0.0009
3952.00,0.0009
3949.00,0.0008
3946.00,0.0008
3943.00,0.0008
3940.00,0.0008
3937.00,0.0009
3934.00,0.0008
3931.00,0.0008
3928.00,0.0008
3925.00,0.0008
3922.00,0.0008
3919.00,0.0008
3916.00,0.0008
3913.00,0.0008
3910.00,0.0008
3907.00,0.0008
3904.00,0.0008
3901.00,0.0008
3898.00,0.0008
3895.00,0.0008
3892.00,0.0008
3889.00,0.0008
3886.00,0.0009
3883.00,0.0009
3880.00,0.0008
3877.00,0.0008
3874.00,0.0008
3871.00,0.0008
3868.00,0.0008
3865.00,0.0008
3862.00,0.0008
3859.00,0.0008
3856.00,0.0009
3853.00,0.0008
3850.00,0.0009
3847.00,0.0008
3844.00,0.0008
3841.00,0.0008
3838.00,0.0009
3835.00,0.0008
3832.00,0.0008
3829.00,0.0009
3826.00,0.0009
3823.00,0.0009
3820.00,0.0009
3817.00,0.0009
3814.00,0.0009
3811.00,0.0009
3808.00,0.0009
3805.00,0.0009
3802.00,0.0009
3799.00,0.0008
3796.00,0.0009
3793.00,0.0009
3790.00,0.0009
3787.00,0.0009
3784.00,0.0009
3781.00,0.0009
3778.00,0.0009
3775.00,0.0009
3772.00,0.0009
3769.00,0.0009
3766.00,0.0009
3763.00,0.0009
3760.00,0.0009
3757.00,0.0009
3754.00,0.0009
3751.00,0.0008
3748.00,0.0008
3745.00,0.0008
3742.00,0.0008
3739.00,0.0008
3736.00,0.0008
3733.00,0.0008
3730.00,0.0008
3727.00,0.0008
3724.00,0.0009
3721.00,0.0009
3718.00,0.0009
3715.00,0.0008
3712.00,0.0007
3709.00,0.0008
3706.00,0.0009
3703.00,0.0009
3700.00,0.0009
3697.00,0.0009
3694.00,0.0008
3691.00,0.0008
3688.00,0.0008
3685.00,0.0008
3682.00,0.0009
3679.00,0.0009
3676.00,0.0009
3673.00,0.0009
3670.00,0.0009
3667.00,0.0009
3664.00,0.0009
3661.00,0.0009
3658.00,0.0009
3655.00,0.0009
3652.00,0.0009
3649.00,0.0009
3646.00,0.0009
3643.00,0.0009
3640.00,0.0010
3637.00,0.0010
3634.00,0.0009
3631.00,0.0009
3628.00,0.0009
3625.00,0.0009
3622.00,0.0010
3619.00,0.0010
3616.00,0.0010
3613.00,0.0010
3610.00,0.0010
3607.00,0.0009
3604.00,0.0010
3601.00,0.0010
3598.00,0.0010
3595.00,0.0010
3592.00,0.0010
3589.00,0.0010
3586.00,0.0010
3583.00,0.0011
3580.00,0.0011
3577.00,0.0012
3574.00,0.0012
3571.00,0.0012
3568.00,0.0011
3565.00,0.0011
3562.00,0.0012
3559.00,0.0012
3556.00,0.0012
3553.00,0.0013
3550.00,0.0014
3547.00,0.0014
3544.00,0.0014
3541.00,0.0014
3538.00,0.0014
3535.00,0.0015
3532.00,0.0015
3529.00,0.0015
3526.00,0.0015
3523.00,0.0015
3520.00,0.0016
3517.00,0.0017
3514.00,0.0016
3511.00,0.0016
3508.00,0.0017
3505.00,0.0017
3502.00,0.0017
3499.00,0.0017
3496.00,0.0017
3493.00,0.0018
3490.00,0.0018
3487.00,0.0018
3484.00,0.0018
3481.00,0.0018
3478.00,0.0018
3475.00,0.0018
3472.00,0.0018
3469.00,0.0019
3466.00,0.0019
3463.00,0.0019
3460.00,0.0019
3457.00,0.0019
3454.00,0.0019
3451.00,0.0018
3448.00,0.0019
3445.00,0.0020
3442.00,0.0019
3439.00,0.0019
3436.00,0.0019
3433.00,0.0019
3430.00,0.0020
3427.00,0.0019
3424.00,0.0019
3421.00,0.0019
3418.00,0.0019
3415.00,0.0019
3412.00,0.0020
3409.00,0.0020
3406.00,0.0020
3403.00,0.0019
3400.00,0.0019
3397.00,0.0019
3394.00,0.0019
3391.00,0.0019
3388.00,0.0019
3385.00,0.0019
3382.00,0.0019
3379.00,0.0019
3376.00,0.0019
3373.00,0.0019
3370.00,0.0019
3367.00,0.0018
3364.00,0.0019
3361.00,0.0019
3358.00,0.0019
3355.00,0.0018
3352.00,0.0018
3349.00,0.0018
3346.00,0.0018
3343.00,0.0018
3340.00,0.0018
3337.00,0.0018
3334.00,0.0018
3331.00,0.0018
3328.00,0.0018
3325.00,0.0017
3322.00,0.0017
3319.00,0.0018
3316.00,0.0018
3313.00,0.0018
3310.00,0.0017
3307.00,0.0017
3304.00,0.0017
3301.00,0.0017
3298.00,0.0016
3295.00,0.0017
3292.00,0.0017
3289.00,0.0017
3286.00,0.0017
3283.00,0.0017
3280.00,0.0017
3277.00,0.0017
3274.00,0.0017
3271.00,0.0017
3268.00,0.0017
3265.00,0.0016
3262.00,0.0016
3259.00,0.0017
3256.00,0.0016
3253.00,0.0016
3250.00,0.0016
3247.00,0.0016
3244.00,0.0016
3241.00,0.0016
3238.00,0.0016
3235.00,0.0015
3232.00,0.0015
3229.00,0.0015
3226.00,0.0015
3223.00,0.0015
3220.00,0.0015
3217.00,0.0016
3214.00,0.0016
3211.00,0.0016
3208.00,0.0016
3205.00,0.0016
3202.00,0.0016
3199.00,0.0016
3196.00,0.0015
3193.00,0.0015
3190.00,0.0015
3187.00,0.0015
3184.00,0.0015
3181.00,0.0015
3178.00,0.0014
3175.00,0.0014
3172.00,0.0014
3169.00,0.0015
3166.00,0.0016
3163.00,0.0016
3160.00,0.0015
3157.00,0.0014
3154.00,0.0015
3151.00,0.0014
3148.00,0.0014
3145.00,0.0014
3142.00,0.0014
3139.00,0.0014
3136.00,0.0014
3133.00,0.0014
3130.00,0.0014
3127.00,0.0015
3124.00,0.0015
3121.00,0.0016
3118.00,0.0017
3115.00,0.0018
3112.00,0.0021
3109.00,0.0026
3106.00,0.0032
3103.00,0.0034
3100.00,0.0033
3097.00,0.0032
3094.00,0.0034
3091.00,0.0042
3088.00,0.0057
3085.00,0.0075
3082.00,0.0082
3079.00,0.0075
3076.00,0.0064
3073.00,0.0060
3070.00,0.0065
3067.00,0.0078
3064.00,0.0097
3061.00,0.0112
3058.00,0.0110
3055.00,0.0093
3052.00,0.0075
3049.00,0.0064
3046.00,0.0058
3043.00,0.0059
3040.00,0.0067
3037.00,0.0083
3034.00,0.0112
3031.00,0.0154
3028.00,0.0198
3025.00,0.0215
3022.00,0.0185
3019.00,0.0132
3016.00,0.0089
3013.00,0.0066
3010.00,0.0056
3007.00,0.0055
3004.00,0.0060
3001.00,0.0063
2998.00,0.0056
2995.00,0.0045
2992.00,0.0038
2989.00,0.0035
2986.00,0.0034
2983.00,0.0034
2980.00,0.0035
2977.00,0.0037
2974.00,0.0038
2971.00,0.0040
2968.00,0.0043
2965.00,0.0047
2962.00,0.0051
2959.00,0.0057
2956.00,0.0064
2953.00,0.0072
2950.00,0.0083
2947.00,0.0095
2944.00,0.0112
2941.00,0.0131
2938.00,0.0155
2935.00,0.0182
2932.00,0.0210
2929.00,0.0236
2926.00,0.0255
2923.00,0.0265
2920.00,0.0264
2917.00,0.0255
2914.00,0.0239
2911.00,0.0220
2908.00,0.0201
2905.00,0.0181
2902.00,0.0161
2899.00,0.0141
2896.00,0.0124
2893.00,0.0112
2890.00,0.0102
2887.00,0.0094
2884.00,0.0088
2881.00,0.0082
2878.00,0.0077
2875.00,0.0072
2872.00,0.0069
2869.00,0.0068
2866.00,0.0070
2863.00,0.0076
2860.00,0.0085
2857.00,0.0097
2854.00,0.0109
2851.00,0.0116
2848.00,0.0115
2845.00,0.0105
2842.00,0.0087
2839.00,0.0067
2836.00,0.0050
2833.00,0.0039
2830.00,0.0033
2827.00,0.0029
2824.00,0.0027
2821.00,0.0026
2818.00,0.0024
2815.00,0.0024
2812.00,0.0024
2809.00,0.0023
2806.00,0.0022
2803.00,0.0022
2800.00,0.0021
2797.00,0.0020
2794.00,0.0019
2791.00,0.0019
2788.00,0.0019
2785.00,0.0019
2782.00,0.0019
2779.00,0.0019
2776.00,0.0018
2773.00,0.0018
2770.00,0.0017
2767.00,0.0016
2764.00,0.0016
2761.00,0.0016
2758.00,0.0016
2755.00,0.0016
2752.00,0.0015
2749.00,0.0015
2746.00,0.0015
2743.00,0.0016
2740.00,0.0015
2737.00,0.0015
2734.00,0.0016
2731.00,0.0016
2728.00,0.0016
2725.00,0.0016
2722.00,0.0016
2719.00,0.0016
2716.00,0.0016
2713.00,0.0016
2710.00,0.0015
2707.00,0.0015
2704.00,0.0015
2701.00,0.0015
2698.00,0.0015
2695.00,0.0016
2692.00,0.0015
2689.00,0.0015
2686.00,0.0015
2683.00,0.0015
2680.00,0.0015
2677.00,0.0015
2674.00,0.0015
2671.00,0.0016
2668.00,0.0015
2665.00,0.0016
2662.00,0.0018
2659.00,0.0019
2656.00,0.0019
2653.00,0.0020
2650.00,0.0019
2647.00,0.0020
2644.00,0.0020
2641.00,0.0020
2638.00,0.0020
2635.00,0.0020
2632.00,0.0021
2629.00,0.0020
2626.00,0.0019
2623.00,0.0018
2620.00,0.0018
2617.00,0.0017
2614.00,0.0017
2611.00,0.0018
2608.00,0.0018
2605.00,0.0018
2602.00,0.0017
2599.00,0.0017
2596.00,0.0016
2593.00,0.0016
2590.00,0.0015
2587.00,0.0015
2584.00,0.0015
2581.00,0.0016
2578.00,0.0015
2575.00,0.0014
2572.00,0.0014
2569.00,0.0014
2566.00,0.0014
2563.00,0.0014
2560.00,0.0014
2557.00,0.0013
2554.00,0.0013
2551.00,0.0013
2548.00,0.0013
2545.00,0.0012
2542.00,0.0012
2539.00,0.0012
2536.00,0.0012
2533.00,0.0012
2530.00,0.0012
2527.00,0.0012
2524.00,0.0012
2521.00,0.0011
2518.00,0.0011
2515.00,0.0011
2512.00,0.0011
2509.00,0.0011
2506.00,0.0011
2503.00,0.0011
2500.00,0.0012
2497.00,0.0012
2494.00,0.0011
2491.00,0.0011
2488.00,0.0011
2485.00,0.0010
2482.00,0.0010
2479.00,0.0010
2476.00,0.0010
2473.00,0.0010
2470.00,0.0010
2467.00,0.0011
2464.00,0.0010
2461.00,0.0010
2458.00,0.0011
2455.00,0.0011
2452.00,0.0010
2449.00,0.0010
2446.00,0.0010
2443.00,0.0009
2440.00,0.0009
2437.00,0.0008
2434.00,0.0008
2431.00,0.0008
2428.00,0.0008
2425.00,0.0007
2422.00,0.0007
2419.00,0.0007
2416.00,0.0007
2413.00,0.0007
2410.00,0.0007
2407.00,0.0006
2404.00,0.0006
2401.00,0.0006
2398.00,0.0006
2395.00,0.0006
2392.00,0.0006
2389.00,0.0007
2386.00,0.0006
2383.00,0.0005
2380.00,0.0006
2377.00,0.0006
2374.00,0.0005
2371.00,0.0004
2368.00,0.0005
2365.00,0.0005
2362.00,0.0008
2359.00,0.0009
2356.00,0.0009
2353.00,0.0009
2350.00,0.0009
2347.00,0.0011
2344.00,0.0012
2341.00,0.0012
2338.00,0.0013
2335.00,0.0013
2332.00,0.0012
2329.00,0.0013
2326.00,0.0021
2323.00,0.0020
2320.00,0.0017
2317.00,0.0016
2314.00,0.0016
2311.00,0.0016
2308.00,0.0014
2305.00,0.0013
2302.00,0.0013
2299.00,0.0014
2296.00,0.0015
2293.00,0.0016
2290.00,0.0017
2287.00,0.0019
2284.00,0.0017
2281.00,0.0016
2278.00,0.0015
2275.00,0.0013
2272.00,0.0013
2269.00,0.0012
2266.00,0.0011
2263.00,0.0011
2260.00,0.0013
2257.00,0.0011
2254.00,0.0010
2251.00,0.0012
2248.00,0.0011
2245.00,0.0011
2242.00,0.0011
2239.00,0.0010
2236.00,0.0009
2233.00,0.0010
2230.00,0.0010
2227.00,0.0009
2224.00,0.0008
2221.00,0.0008
2218.00,0.0008
2215.00,0.0010
2212.00,0.0009
2209.00,0.0007
2206.00,0.0009
2203.00,0.0009
2200.00,0.0008
2197.00,0.0010
2194.00,0.0011
2191.00,0.0011
2188.00,0.0011
2185.00,0.0007
2182.00,0.0003
2179.00,0.0004
2176.00,0.0000
2173.00,0.0004
2170.00,0.0011
2167.00,0.0013
2164.00,0.0016
2161.00,0.0004
2158.00,-0.0022
2155.00,-0.0019
2152.00,-0.0014
2149.00,-0.0013
2146.00,-0.0010
2143.00,-0.0009
2140.00,-0.0008
2137.00,-0.0011
2134.00,-0.0015
2131.00,-0.0009
2128.00,-0.0005
2125.00,-0.0002
2122.00,0.0000
2119.00,0.0001
2116.00,0.0005
2113.00,0.0005
2110.00,0.0004
2107.00,0.0004
2104.00,0.0005
2101.00,0.0005
2098.00,0.0003
2095.00,-0.0001
2092.00,0.0003
2089.00,0.0004
2086.00,0.0005
2083.00,0.0007
2080.00,0.0007
2077.00,0.0007
2074.00,0.0006
2071.00,0.0005
2068.00,0.0003
2065.00,0.0003
2062.00,0.0004
2059.00,0.0003
2056.00,0.0004
2053.00,0.0009
2050.00,0.0011
2047.00,0.0006
2044.00,0.0005
2041.00,0.0006
2038.00,0.0011
2035.00,0.0004
2032.00,-0.0001
2029.00,-0.0001
2026.00,-0.0002
2023.00,-0.0002
2020.00,0.0002
2017.00,0.0001
2014.00,-0.0001
2011.00,-0.0000
2008.00,-0.0003
2005.00,-0.0004
2002.00,-0.0003
1999.00,0.0000
1996.00,0.0000
1993.00,0.0000
1990.00,0.0004
1987.00,0.0007
1984.00,0.0012
1981.00,0.0016
1978.00,0.0005
1975.00,0.0000
1972.00,0.0002
1969.00,0.0005
1966.00,0.0008
1963.00,0.0009
1960.00,0.0008
1957.00,0.0011
1954.00,0.0016
1951.00,0.0019
1948.00,0.0022
1945.00,0.0025
1942.00,0.0026
1939.00,0.0024
1936.00,0.0021
1933.00,0.0014
1930.00,0.0010
1927.00,0.0008
1924.00,0.0006
1921.00,0.0006
1918.00,0.0005
1915.00,0.0004
1912.00,0.0004
1909.00,0.0003
1906.00,0.0005
1903.00,0.0006
1900.00,0.0008
1897.00,0.0009
1894.00,0.0011
1891.00,0.0015
1888.00,0.0017
1885.00,0.0019
1882.00,0.0022
1879.00,0.0023
1876.00,0.0023
1873.00,0.0024
1870.00,0.0027
1867.00,0.0025
1864.00,0.0022
1861.00,0.0018
1858.00,0.0014
1855.00,0.0011
1852.00,0.0008
1849.00,0.0007
1846.00,0.0007
1843.00,0.0007
1840.00,0.0006
1837.00,0.0007
1834.00,0.0007
1831.00,0.0009
1828.00,0.0011
1825.00,0.0013
1822.00,0.0016
1819.00,0.0016
1816.00,0.0017
1813.00,0.0021
1810.00,0.0025
1807.00,0.0028
1804.00,0.0030
1801.00,0.0031
1798.00,0.0029
1795.00,0.0026
1792.00,0.0021
1789.00,0.0017
1786.00,0.0015
1783.00,0.0015
1780.00,0.0014
1777.00,0.0015
1774.00,0.0016
1771.00,0.0016
1768.00,0.0016
1765.00,0.0017
1762.00,0.0019
1759.00,0.0021
1756.00,0.0025
1753.00,0.0029
1750.00,0.0032
1747.00,0.0035
1744.00,0.0037
1741.00,0.0038
1738.00,0.0037
1735.00,0.0038
1732.00,0.0035
1729.00,0.0033
1726.00,0.0031
1723.00,0.0030
1720.00,0.0030
1717.00,0.0028
1714.00,0.0027
1711.00,0.0026
1708.00,0.0027
1705.00,0.0028
1702.00,0.0031
1699.00,0.0033
1696.00,0.0035
1693.00,0.0041
1690.00,0.0048
1687.00,0.0054
1684.00,0.0058
1681.00,0.0060
1678.00,0.0061
1675.00,0.0063
1672.00,0.0063
1669.00,0.0065
1666.00,0.0064
1663.00,0.0063
1660.00,0.0059
1657.00,0.0057
1654.00,0.0055
1651.00,0.0047
1648.00,0.0045
1645.00,0.0040
1642.00,0.0036
1639.00,0.0034
1636.00,0.0031
1633.00,0.0029
1630.00,0.0028
1627.00,0.0029
1624.00,0.0030
1621.00,0.0031
1618.00,0.0032
1615.00,0.0035
1612.00,0.0044
1609.00,0.0067
1606.00,0.0118
1603.00,0.0182
1600.00,0.0194
1597.00,0.0138
1594.00,0.0089
1591.00,0.0065
1588.00,0.0060
1585.00,0.0078
1582.00,0.0081
1579.00,0.0055
1576.00,0.0035
1573.00,0.0028
1570.00,0.0025
1567.00,0.0022
1564.00,0.0021
1561.00,0.0021
1558.00,0.0021
1555.00,0.0022
1552.00,0.0025
1549.00,0.0028
1546.00,0.0031
1543.00,0.0033
1540.00,0.0031
1537.00,0.0028
1534.00,0.0026
1531.00,0.0023
1528.00,0.0021
1525.00,0.0020
1522.00,0.0019
1519.00,0.0020
1516.00,0.0022
1513.00,0.0024
1510.00,0.0027
1507.00,0.0032
1504.00,0.0042
1501.00,0.0067
1498.00,0.0149
1495.00,0.0370
1492.00,0.0473
1489.00,0.0288
1486.00,0.0151
1483.00,0.0092
1480.00,0.0064
1477.00,0.0055
1474.00,0.0052
1471.00,0.0052
1468.00,0.0057
1465.00,0.0065
1462.00,0.0078
1459.00,0.0112
1456.00,0.0281
1453.00,0.0461
1450.00,0.0454
1447.00,0.0348
1444.00,0.0276
1441.00,0.0216
1438.00,0.0172
1435.00,0.0124
1432.00,0.0094
1429.00,0.0074
1426.00,0.0064
1423.00,0.0057
1420.00,0.0052
1417.00,0.0046
1414.00,0.0043
1411.00,0.0042
1408.00,0.0041
1405.00,0.0041
1402.00,0.0041
1399.00,0.0042
1396.00,0.0044
1393.00,0.0049
1390.00,0.0056
1387.00,0.0066
1384.00,0.0077
1381.00,0.0087
1378.00,0.0096
1375.00,0.0104
1372.00,0.0106
1369.00,0.0105
1366.00,0.0103
1363.00,0.0101
1360.00,0.0096
1357.00,0.0091
1354.00,0.0088
1351.00,0.0087
1348.00,0.0086
1345.00,0.0083
1342.00,0.0079
1339.00,0.0075
1336.00,0.0077
1333.00,0.0083
1330.00,0.0089
1327.00,0.0090
1324.00,0.0087
1321.00,0.0084
1318.00,0.0085
1315.00,0.0087
1312.00,0.0088
1309.00,0.0086
1306.00,0.0082
1303.00,0.0079
1300.00,0.0077
1297.00,0.0078
1294.00,0.0080
1291.00,0.0079
1288.00,0.0075
1285.00,0.0072
1282.00,0.0070
1279.00,0.0067
1276.00,0.0063
1273.00,0.0058
1270.00,0.0054
1267.00,0.0051
1264.00,0.0049
1261.00,0.0047
1258.00,0.0047
1255.00,0.0047
1252.00,0.0047
1249.00,0.0047
1246.00,0.0048
1243.00,0.0049
1240.00,0.0048
1237.00,0.0048
1234.00,0.0047
1231.00,0.0047
1228.00,0.0048
1225.00,0.0048
1222.00,0.0049
1219.00,0.0048
1216.00,0.0048
1213.00,0.0050
1210.00,0.0053
1207.00,0.0057
1204.00,0.0061
1201.00,0.0066
1198.00,0.0071
1195.00,0.0072
1192.00,0.0073
1189.00,0.0075
1186.00,0.0083
1183.00,0.0096
1180.00,0.0098
1177.00,0.0080
1174.00,0.0065
1171.00,0.0059
1168.00,0.0057
1165.00,0.0058
1162.00,0.0063
1159.00,0.0078
1156.00,0.0096
1153.00,0.0096
1150.00,0.0073
1147.00,0.0055
1144.00,0.0047
1141.00,0.0042
1138.00,0.0039
1135.00,0.0037
1132.00,0.0038
1129.00,0.0038
1126.00,0.0039
1123.00,0.0040
1120.00,0.0043
1117.00,0.0048
1114.00,0.0051
1111.00,0.0052
1108.00,0.0052
1105.00,0.0051
1102.00,0.0053
1099.00,0.0055
1096.00,0.0057
1093.00,0.0059
1090.00,0.0062
1087.00,0.0068
1084.00,0.0075
1081.00,0.0084
1078.00,0.0093
1075.00,0.0107
1072.00,0.0123
1069.00,0.0133
1066.00,0.0127
1063.00,0.0113
1060.00,0.0099
1057.00,0.0089
1054.00,0.0082
1051.00,0.0074
1048.00,0.0070
1045.00,0.0067
1042.00,0.0067
1039.00,0.0073
1036.00,0.0099
1033.00,0.0157
1030.00,0.0216
1027.00,0.0227
1024.00,0.0184
1021.00,0.0144
1018.00,0.0120
1015.00,0.0105
1012.00,0.0093
1009.00,0.0088
1006.00,0.0092
1003.00,0.0096
1000.00,0.0084
997.00,0.0070
994.00,0.0067
991.00,0.0067
988.00,0.0071
985.00,0.0078
982.00,0.0084
979.00,0.0084
976.00,0.0080
973.00,0.0077
970.00,0.0080
967.00,0.0089
964.00,0.0094
961.00,0.0087
958.00,0.0074
955.00,0.0067
952.00,0.0065
949.00,0.0067
946.00,0.0071
943.00,0.0073
940.00,0.0070
937.00,0.0064
934.00,0.0057
931.00,0.0052
928.00,0.0050
925.00,0.0051
922.00,0.0054
919.00,0.0061
916.00,0.0076
913.00,0.0102
910.00,0.0134
907.00,0.0155
904.00,0.0145
901.00,0.0114
898.00,0.0082
895.00,0.0063
892.00,0.0052
889.00,0.0048
886.00,0.0045
883.00,0.0041
880.00,0.0039
877.00,0.0039
874.00,0.0037
871.00,0.0036
868.00,0.0035
865.00,0.0034
862.00,0.0035
859.00,0.0035
856.00,0.0038
853.00,0.0042
850.00,0.0050
847.00,0.0064
844.00,0.0075
841.00,0.0079
838.00,0.0072
835.00,0.0056
832.00,0.0043
829.00,0.0037
826.00,0.0036
823.00,0.0034
820.00,0.0034
817.00,0.0035
814.00,0.0037
811.00,0.0037
808.00,0.0037
805.00,0.0039
802.00,0.0041
799.00,0.0045
796.00,0.0051
793.00,0.0060
790.00,0.0072
787.00,0.0087
784.00,0.0105
781.00,0.0130
778.00,0.0165
775.00,0.0214
772.00,0.0278
769.00,0.0355
766.00,0.0434
763.00,0.0509
760.00,0.0587
757.00,0.0650
754.00,0.0667
751.00,0.0660
748.00,0.0651
745.00,0.0596
742.00,0.0474
739.00,0.0351
736.00,0.0253
733.00,0.0170
730.00,0.0113
727.00,0.0086
724.00,0.0078
721.00,0.0076
718.00,0.0080
715.00,0.0098
712.00,0.0146
709.00,0.0265
706.00,0.0493
703.00,0.0824
700.00,0.1222
697.00,0.1620
694.00,0.1746
691.00,0.1326
688.00,0.0854
685.00,0.0593
682.00,0.0451
679.00,0.0368
676.00,0.0315
673.00,0.0281
670.00,0.0255
667.00,0.0223
664.00,0.0201
661.00,0.0179
658.00,0.0159
655.00,0.0140
652.00,0.0127
649.00,0.0118
646.00,0.0108
643.00,0.0103
640.00,0.0101
637.00,0.0106
634.00,0.0113
631.00,0.0119
628.00,0.0127
625.00,0.0131
622.00,0.0138
619.00,0.0136
616.00,0.0125
613.00,0.0119
610.00,0.0114
607.00,0.0109
604.00,0.0106
601.00,0.0111
598.00,0.0115
595.00,0.0118
592.00,0.0125
589.00,0.0130
586.00,0.0136
583.00,0.0147
580.00,0.0161
577.00,0.0181
574.00,0.0210
571.00,0.0235
568.00,0.0261
565.00,0.0288
562.00,0.0312
559.00,0.0337
556.00,0.0363
553.00,0.0392
550.00,0.0426
547.00,0.0471
544.00,0.0532
541.00,0.0592
538.00,0.0619
535.00,0.0586
532.00,0.0503
529.00,0.0408
526.00,0.0325
523.00,0.0265
520.00,0.0227
517.00,0.0208
514.00,0.0189
511.00,0.0170
508.00,0.0154
505.00,0.0138
502.00,0.0126
499.00,0.0120
496.00,0.0114
493.00,0.0107
490.00,0.0105
487.00,0.0100
484.00,0.0098
481.00,0.0096
478.00,0.0088
475.00,0.0082
472.00,0.0080
469.00,0.0084
466.00,0.0080
463.00,0.0083
460.00,0.0081
457.00,0.0081
454.00,0.0077
451.00,0.0072
448.00,0.0072
445.00,0.0079
442.00,0.0085
439.00,0.0074
436.00,0.0071
433.00,0.0075
430.00,0.0069
427.00,0.0058
424.00,0.0070
421.00,0.0086
418.00,0.0074
415.00,0.0060
412.00,0.0070
409.00,0.0079
406.00,0.0084
403.00,0.0062
400.00,0.0066