File: FTIR/Olivia/2025_08_01_1CBN_3PVP10_drybatchpowder_scan4.csv
Created as New Dataset,Sample 1015 By YargerLab Date Friday, August 01 2025
cm-1,A
4000.00,0.0046
3997.00,0.0046
3994.00,0.0046
3991.00,0.0046
3988.00,0.0046
3985.00,0.0046
3982.00,0.0046
3979.00,0.0047
3976.00,0.0046
3973.00,0.0046
3970.00,0.0046
3967.00,0.0046
3964.00,0.0046
3961.00,0.0046
3958.00,0.0046
3955.00,0.0046
3952.00,0.0046
3949.00,0.0045
3946.00,0.0045
3943.00,0.0045
3940.00,0.0045
3937.00,0.0046
3934.00,0.0045
3931.00,0.0045
3928.00,0.0045
3925.00,0.0045
3922.00,0.0045
3919.00,0.0044
3916.00,0.0045
3913.00,0.0045
3910.00,0.0046
3907.00,0.0044
3904.00,0.0044
3901.00,0.0043
3898.00,0.0044
3895.00,0.0044
3892.00,0.0044
3889.00,0.0045
3886.00,0.0044
3883.00,0.0043
3880.00,0.0044
3877.00,0.0043
3874.00,0.0043
3871.00,0.0043
3868.00,0.0043
3865.00,0.0043
3862.00,0.0044
3859.00,0.0044
3856.00,0.0042
3853.00,0.0042
3850.00,0.0042
3847.00,0.0044
3844.00,0.0044
3841.00,0.0043
3838.00,0.0042
3835.00,0.0042
3832.00,0.0043
3829.00,0.0044
3826.00,0.0044
3823.00,0.0042
3820.00,0.0042
3817.00,0.0042
3814.00,0.0043
3811.00,0.0043
3808.00,0.0043
3805.00,0.0043
3802.00,0.0043
3799.00,0.0042
3796.00,0.0044
3793.00,0.0044
3790.00,0.0045
3787.00,0.0044
3784.00,0.0043
3781.00,0.0043
3778.00,0.0044
3775.00,0.0044
3772.00,0.0044
3769.00,0.0043
3766.00,0.0043
3763.00,0.0043
3760.00,0.0044
3757.00,0.0043
3754.00,0.0043
3751.00,0.0043
3748.00,0.0041
3745.00,0.0041
3742.00,0.0042
3739.00,0.0042
3736.00,0.0041
3733.00,0.0040
3730.00,0.0041
3727.00,0.0041
3724.00,0.0042
3721.00,0.0042
3718.00,0.0042
3715.00,0.0042
3712.00,0.0041
3709.00,0.0040
3706.00,0.0041
3703.00,0.0042
3700.00,0.0042
3697.00,0.0042
3694.00,0.0042
3691.00,0.0041
3688.00,0.0042
3685.00,0.0043
3682.00,0.0043
3679.00,0.0042
3676.00,0.0041
3673.00,0.0040
3670.00,0.0042
3667.00,0.0043
3664.00,0.0044
3661.00,0.0044
3658.00,0.0044
3655.00,0.0044
3652.00,0.0043
3649.00,0.0043
3646.00,0.0044
3643.00,0.0046
3640.00,0.0046
3637.00,0.0047
3634.00,0.0048
3631.00,0.0047
3628.00,0.0048
3625.00,0.0049
3622.00,0.0050
3619.00,0.0050
3616.00,0.0050
3613.00,0.0052
3610.00,0.0053
3607.00,0.0053
3604.00,0.0054
3601.00,0.0056
3598.00,0.0057
3595.00,0.0058
3592.00,0.0058
3589.00,0.0060
3586.00,0.0061
3583.00,0.0062
3580.00,0.0063
3577.00,0.0065
3574.00,0.0066
3571.00,0.0067
3568.00,0.0068
3565.00,0.0069
3562.00,0.0072
3559.00,0.0074
3556.00,0.0076
3553.00,0.0077
3550.00,0.0078
3547.00,0.0080
3544.00,0.0082
3541.00,0.0084
3538.00,0.0086
3535.00,0.0088
3532.00,0.0089
3529.00,0.0091
3526.00,0.0093
3523.00,0.0094
3520.00,0.0096
3517.00,0.0098
3514.00,0.0099
3511.00,0.0100
3508.00,0.0101
3505.00,0.0102
3502.00,0.0104
3499.00,0.0106
3496.00,0.0108
3493.00,0.0109
3490.00,0.0111
3487.00,0.0113
3484.00,0.0115
3481.00,0.0117
3478.00,0.0120
3475.00,0.0122
3472.00,0.0125
3469.00,0.0129
3466.00,0.0131
3463.00,0.0134
3460.00,0.0137
3457.00,0.0140
3454.00,0.0144
3451.00,0.0147
3448.00,0.0150
3445.00,0.0154
3442.00,0.0158
3439.00,0.0163
3436.00,0.0168
3433.00,0.0173
3430.00,0.0178
3427.00,0.0183
3424.00,0.0188
3421.00,0.0194
3418.00,0.0200
3415.00,0.0206
3412.00,0.0210
3409.00,0.0214
3406.00,0.0216
3403.00,0.0218
3400.00,0.0219
3397.00,0.0218
3394.00,0.0217
3391.00,0.0214
3388.00,0.0211
3385.00,0.0208
3382.00,0.0204
3379.00,0.0201
3376.00,0.0198
3373.00,0.0194
3370.00,0.0190
3367.00,0.0187
3364.00,0.0184
3361.00,0.0182
3358.00,0.0179
3355.00,0.0177
3352.00,0.0175
3349.00,0.0174
3346.00,0.0173
3343.00,0.0171
3340.00,0.0170
3337.00,0.0170
3334.00,0.0170
3331.00,0.0170
3328.00,0.0170
3325.00,0.0170
3322.00,0.0171
3319.00,0.0173
3316.00,0.0174
3313.00,0.0174
3310.00,0.0174
3307.00,0.0175
3304.00,0.0177
3301.00,0.0180
3298.00,0.0181
3295.00,0.0183
3292.00,0.0185
3289.00,0.0187
3286.00,0.0189
3283.00,0.0190
3280.00,0.0192
3277.00,0.0194
3274.00,0.0196
3271.00,0.0198
3268.00,0.0200
3265.00,0.0202
3262.00,0.0203
3259.00,0.0204
3256.00,0.0206
3253.00,0.0208
3250.00,0.0209
3247.00,0.0210
3244.00,0.0211
3241.00,0.0212
3238.00,0.0212
3235.00,0.0210
3232.00,0.0210
3229.00,0.0209
3226.00,0.0207
3223.00,0.0205
3220.00,0.0204
3217.00,0.0201
3214.00,0.0199
3211.00,0.0195
3208.00,0.0192
3205.00,0.0188
3202.00,0.0184
3199.00,0.0181
3196.00,0.0177
3193.00,0.0173
3190.00,0.0170
3187.00,0.0166
3184.00,0.0162
3181.00,0.0159
3178.00,0.0155
3175.00,0.0151
3172.00,0.0147
3169.00,0.0144
3166.00,0.0140
3163.00,0.0136
3160.00,0.0133
3157.00,0.0129
3154.00,0.0125
3151.00,0.0122
3148.00,0.0118
3145.00,0.0116
3142.00,0.0113
3139.00,0.0110
3136.00,0.0109
3133.00,0.0106
3130.00,0.0103
3127.00,0.0102
3124.00,0.0100
3121.00,0.0098
3118.00,0.0097
3115.00,0.0095
3112.00,0.0092
3109.00,0.0091
3106.00,0.0089
3103.00,0.0087
3100.00,0.0085
3097.00,0.0085
3094.00,0.0084
3091.00,0.0085
3088.00,0.0086
3085.00,0.0086
3082.00,0.0086
3079.00,0.0085
3076.00,0.0084
3073.00,0.0083
3070.00,0.0082
3067.00,0.0081
3064.00,0.0081
3061.00,0.0081
3058.00,0.0082
3055.00,0.0082
3052.00,0.0083
3049.00,0.0082
3046.00,0.0081
3043.00,0.0081
3040.00,0.0082
3037.00,0.0084
3034.00,0.0086
3031.00,0.0086
3028.00,0.0084
3025.00,0.0082
3022.00,0.0080
3019.00,0.0078
3016.00,0.0078
3013.00,0.0078
3010.00,0.0079
3007.00,0.0082
3004.00,0.0087
3001.00,0.0093
2998.00,0.0102
2995.00,0.0114
2992.00,0.0124
2989.00,0.0133
2986.00,0.0143
2983.00,0.0156
2980.00,0.0175
2977.00,0.0185
2974.00,0.0193
2971.00,0.0214
2968.00,0.0230
2965.00,0.0239
2962.00,0.0252
2959.00,0.0259
2956.00,0.0247
2953.00,0.0226
2950.00,0.0211
2947.00,0.0207
2944.00,0.0216
2941.00,0.0234
2938.00,0.0260
2935.00,0.0298
2932.00,0.0343
2929.00,0.0376
2926.00,0.0379
2923.00,0.0354
2920.00,0.0319
2917.00,0.0285
2914.00,0.0256
2911.00,0.0233
2908.00,0.0215
2905.00,0.0200
2902.00,0.0188
2899.00,0.0177
2896.00,0.0169
2893.00,0.0162
2890.00,0.0156
2887.00,0.0153
2884.00,0.0151
2881.00,0.0152
2878.00,0.0162
2875.00,0.0177
2872.00,0.0187
2869.00,0.0185
2866.00,0.0185
2863.00,0.0199
2860.00,0.0228
2857.00,0.0249
2854.00,0.0247
2851.00,0.0226
2848.00,0.0192
2845.00,0.0159
2842.00,0.0134
2839.00,0.0117
2836.00,0.0106
2833.00,0.0099
2830.00,0.0093
2827.00,0.0089
2824.00,0.0084
2821.00,0.0081
2818.00,0.0079
2815.00,0.0076
2812.00,0.0074
2809.00,0.0073
2806.00,0.0072
2803.00,0.0071
2800.00,0.0070
2797.00,0.0068
2794.00,0.0067
2791.00,0.0066
2788.00,0.0065
2785.00,0.0064
2782.00,0.0063
2779.00,0.0063
2776.00,0.0062
2773.00,0.0061
2770.00,0.0062
2767.00,0.0061
2764.00,0.0061
2761.00,0.0061
2758.00,0.0061
2755.00,0.0062
2752.00,0.0062
2749.00,0.0062
2746.00,0.0062
2743.00,0.0062
2740.00,0.0063
2737.00,0.0064
2734.00,0.0065
2731.00,0.0066
2728.00,0.0066
2725.00,0.0065
2722.00,0.0064
2719.00,0.0064
2716.00,0.0063
2713.00,0.0062
2710.00,0.0062
2707.00,0.0062
2704.00,0.0062
2701.00,0.0061
2698.00,0.0061
2695.00,0.0061
2692.00,0.0060
2689.00,0.0059
2686.00,0.0059
2683.00,0.0059
2680.00,0.0059
2677.00,0.0059
2674.00,0.0059
2671.00,0.0059
2668.00,0.0060
2665.00,0.0060
2662.00,0.0062
2659.00,0.0063
2656.00,0.0063
2653.00,0.0064
2650.00,0.0064
2647.00,0.0064
2644.00,0.0064
2641.00,0.0063
2638.00,0.0063
2635.00,0.0062
2632.00,0.0061
2629.00,0.0060
2626.00,0.0059
2623.00,0.0059
2620.00,0.0059
2617.00,0.0058
2614.00,0.0058
2611.00,0.0059
2608.00,0.0058
2605.00,0.0058
2602.00,0.0059
2599.00,0.0059
2596.00,0.0059
2593.00,0.0059
2590.00,0.0059
2587.00,0.0059
2584.00,0.0059
2581.00,0.0059
2578.00,0.0058
2575.00,0.0057
2572.00,0.0057
2569.00,0.0057
2566.00,0.0058
2563.00,0.0057
2560.00,0.0056
2557.00,0.0055
2554.00,0.0055
2551.00,0.0055
2548.00,0.0054
2545.00,0.0054
2542.00,0.0054
2539.00,0.0054
2536.00,0.0054
2533.00,0.0055
2530.00,0.0054
2527.00,0.0053
2524.00,0.0053
2521.00,0.0052
2518.00,0.0052
2515.00,0.0051
2512.00,0.0052
2509.00,0.0051
2506.00,0.0050
2503.00,0.0049
2500.00,0.0049
2497.00,0.0050
2494.00,0.0050
2491.00,0.0050
2488.00,0.0049
2485.00,0.0048
2482.00,0.0048
2479.00,0.0048
2476.00,0.0048
2473.00,0.0049
2470.00,0.0048
2467.00,0.0047
2464.00,0.0047
2461.00,0.0047
2458.00,0.0048
2455.00,0.0048
2452.00,0.0049
2449.00,0.0048
2446.00,0.0048
2443.00,0.0048
2440.00,0.0046
2437.00,0.0046
2434.00,0.0046
2431.00,0.0046
2428.00,0.0046
2425.00,0.0046
2422.00,0.0045
2419.00,0.0046
2416.00,0.0045
2413.00,0.0045
2410.00,0.0045
2407.00,0.0044
2404.00,0.0045
2401.00,0.0044
2398.00,0.0044
2395.00,0.0044
2392.00,0.0043
2389.00,0.0043
2386.00,0.0043
2383.00,0.0041
2380.00,0.0040
2377.00,0.0041
2374.00,0.0041
2371.00,0.0041
2368.00,0.0041
2365.00,0.0042
2362.00,0.0042
2359.00,0.0042
2356.00,0.0042
2353.00,0.0042
2350.00,0.0043
2347.00,0.0043
2344.00,0.0044
2341.00,0.0045
2338.00,0.0045
2335.00,0.0044
2332.00,0.0044
2329.00,0.0046
2326.00,0.0055
2323.00,0.0054
2320.00,0.0051
2317.00,0.0050
2314.00,0.0049
2311.00,0.0048
2308.00,0.0047
2305.00,0.0048
2302.00,0.0048
2299.00,0.0050
2296.00,0.0051
2293.00,0.0053
2290.00,0.0054
2287.00,0.0054
2284.00,0.0052
2281.00,0.0051
2278.00,0.0050
2275.00,0.0050
2272.00,0.0048
2269.00,0.0047
2266.00,0.0045
2263.00,0.0046
2260.00,0.0047
2257.00,0.0045
2254.00,0.0043
2251.00,0.0044
2248.00,0.0044
2245.00,0.0045
2242.00,0.0045
2239.00,0.0045
2236.00,0.0045
2233.00,0.0046
2230.00,0.0045
2227.00,0.0044
2224.00,0.0046
2221.00,0.0048
2218.00,0.0046
2215.00,0.0045
2212.00,0.0047
2209.00,0.0046
2206.00,0.0046
2203.00,0.0045
2200.00,0.0044
2197.00,0.0043
2194.00,0.0046
2191.00,0.0047
2188.00,0.0045
2185.00,0.0045
2182.00,0.0040
2179.00,0.0042
2176.00,0.0036
2173.00,0.0040
2170.00,0.0049
2167.00,0.0053
2164.00,0.0054
2161.00,0.0041
2158.00,0.0015
2155.00,0.0020
2152.00,0.0025
2149.00,0.0026
2146.00,0.0027
2143.00,0.0029
2140.00,0.0030
2137.00,0.0025
2134.00,0.0022
2131.00,0.0027
2128.00,0.0031
2125.00,0.0033
2122.00,0.0035
2119.00,0.0037
2116.00,0.0041
2113.00,0.0040
2110.00,0.0040
2107.00,0.0040
2104.00,0.0040
2101.00,0.0039
2098.00,0.0037
2095.00,0.0033
2092.00,0.0035
2089.00,0.0038
2086.00,0.0040
2083.00,0.0042
2080.00,0.0041
2077.00,0.0041
2074.00,0.0039
2071.00,0.0041
2068.00,0.0040
2065.00,0.0038
2062.00,0.0038
2059.00,0.0037
2056.00,0.0036
2053.00,0.0043
2050.00,0.0046
2047.00,0.0040
2044.00,0.0041
2041.00,0.0041
2038.00,0.0040
2035.00,0.0041
2032.00,0.0035
2029.00,0.0032
2026.00,0.0031
2023.00,0.0032
2020.00,0.0029
2017.00,0.0032
2014.00,0.0032
2011.00,0.0035
2008.00,0.0029
2005.00,0.0025
2002.00,0.0028
1999.00,0.0032
1996.00,0.0033
1993.00,0.0035
1990.00,0.0037
1987.00,0.0042
1984.00,0.0047
1981.00,0.0049
1978.00,0.0034
1975.00,0.0028
1972.00,0.0027
1969.00,0.0029
1966.00,0.0029
1963.00,0.0030
1960.00,0.0027
1957.00,0.0027
1954.00,0.0028
1951.00,0.0029
1948.00,0.0031
1945.00,0.0028
1942.00,0.0030
1939.00,0.0030
1936.00,0.0030
1933.00,0.0032
1930.00,0.0033
1927.00,0.0032
1924.00,0.0032
1921.00,0.0034
1918.00,0.0035
1915.00,0.0035
1912.00,0.0037
1909.00,0.0041
1906.00,0.0040
1903.00,0.0037
1900.00,0.0037
1897.00,0.0037
1894.00,0.0038
1891.00,0.0037
1888.00,0.0035
1885.00,0.0035
1882.00,0.0035
1879.00,0.0035
1876.00,0.0034
1873.00,0.0035
1870.00,0.0035
1867.00,0.0035
1864.00,0.0036
1861.00,0.0035
1858.00,0.0036
1855.00,0.0036
1852.00,0.0036
1849.00,0.0036
1846.00,0.0038
1843.00,0.0038
1840.00,0.0036
1837.00,0.0036
1834.00,0.0036
1831.00,0.0035
1828.00,0.0034
1825.00,0.0035
1822.00,0.0035
1819.00,0.0034
1816.00,0.0033
1813.00,0.0035
1810.00,0.0035
1807.00,0.0035
1804.00,0.0036
1801.00,0.0036
1798.00,0.0037
1795.00,0.0037
1792.00,0.0037
1789.00,0.0037
1786.00,0.0038
1783.00,0.0037
1780.00,0.0037
1777.00,0.0038
1774.00,0.0039
1771.00,0.0039
1768.00,0.0039
1765.00,0.0038
1762.00,0.0039
1759.00,0.0039
1756.00,0.0039
1753.00,0.0038
1750.00,0.0035
1747.00,0.0036
1744.00,0.0036
1741.00,0.0036
1738.00,0.0037
1735.00,0.0038
1732.00,0.0039
1729.00,0.0042
1726.00,0.0045
1723.00,0.0048
1720.00,0.0049
1717.00,0.0050
1714.00,0.0055
1711.00,0.0059
1708.00,0.0063
1705.00,0.0068
1702.00,0.0076
1699.00,0.0086
1696.00,0.0102
1693.00,0.0122
1690.00,0.0145
1687.00,0.0169
1684.00,0.0195
1681.00,0.0222
1678.00,0.0249
1675.00,0.0274
1672.00,0.0298
1669.00,0.0320
1666.00,0.0344
1663.00,0.0362
1660.00,0.0373
1657.00,0.0385
1654.00,0.0388
1651.00,0.0370
1648.00,0.0371
1645.00,0.0350
1642.00,0.0342
1639.00,0.0330
1636.00,0.0308
1633.00,0.0300
1630.00,0.0329
1627.00,0.0398
1624.00,0.0460
1621.00,0.0475
1618.00,0.0437
1615.00,0.0363
1612.00,0.0355
1609.00,0.0335
1606.00,0.0281
1603.00,0.0228
1600.00,0.0191
1597.00,0.0175
1594.00,0.0180
1591.00,0.0217
1588.00,0.0281
1585.00,0.0327
1582.00,0.0326
1579.00,0.0296
1576.00,0.0246
1573.00,0.0211
1570.00,0.0193
1567.00,0.0177
1564.00,0.0151
1561.00,0.0130
1558.00,0.0104
1555.00,0.0098
1552.00,0.0094
1549.00,0.0091
1546.00,0.0088
1543.00,0.0083
1540.00,0.0078
1537.00,0.0079
1534.00,0.0078
1531.00,0.0077
1528.00,0.0077
1525.00,0.0078
1522.00,0.0081
1519.00,0.0088
1516.00,0.0098
1513.00,0.0109
1510.00,0.0115
1507.00,0.0119
1504.00,0.0132
1501.00,0.0155
1498.00,0.0206
1495.00,0.0235
1492.00,0.0206
1489.00,0.0158
1486.00,0.0130
1483.00,0.0116
1480.00,0.0110
1477.00,0.0112
1474.00,0.0124
1471.00,0.0165
1468.00,0.0227
1465.00,0.0273
1462.00,0.0283
1459.00,0.0286
1456.00,0.0257
1453.00,0.0240
1450.00,0.0243
1447.00,0.0264
1444.00,0.0299
1441.00,0.0335
1438.00,0.0361
1435.00,0.0375
1432.00,0.0394
1429.00,0.0404
1426.00,0.0409
1423.00,0.0402
1420.00,0.0381
1417.00,0.0329
1414.00,0.0296
1411.00,0.0281
1408.00,0.0297
1405.00,0.0340
1402.00,0.0382
1399.00,0.0382
1396.00,0.0333
1393.00,0.0269
1390.00,0.0241
1387.00,0.0259
1384.00,0.0253
1381.00,0.0248
1378.00,0.0249
1375.00,0.0227
1372.00,0.0202
1369.00,0.0213
1366.00,0.0256
1363.00,0.0280
1360.00,0.0303
1357.00,0.0268
1354.00,0.0230
1351.00,0.0218
1348.00,0.0217
1345.00,0.0212
1342.00,0.0194
1339.00,0.0174
1336.00,0.0166
1333.00,0.0173
1330.00,0.0182
1327.00,0.0186
1324.00,0.0188
1321.00,0.0194
1318.00,0.0195
1315.00,0.0186
1312.00,0.0180
1309.00,0.0187
1306.00,0.0213
1303.00,0.0262
1300.00,0.0298
1297.00,0.0310
1294.00,0.0337
1291.00,0.0361
1288.00,0.0382
1285.00,0.0400
1282.00,0.0389
1279.00,0.0350
1276.00,0.0319
1273.00,0.0303
1270.00,0.0285
1267.00,0.0263
1264.00,0.0238
1261.00,0.0212
1258.00,0.0192
1255.00,0.0180
1252.00,0.0177
1249.00,0.0189
1246.00,0.0218
1243.00,0.0245
1240.00,0.0260
1237.00,0.0285
1234.00,0.0312
1231.00,0.0303
1228.00,0.0272
1225.00,0.0246
1222.00,0.0233
1219.00,0.0237
1216.00,0.0254
1213.00,0.0256
1210.00,0.0228
1207.00,0.0201
1204.00,0.0199
1201.00,0.0227
1198.00,0.0276
1195.00,0.0317
1192.00,0.0302
1189.00,0.0251
1186.00,0.0202
1183.00,0.0171
1180.00,0.0156
1177.00,0.0150
1174.00,0.0148
1171.00,0.0149
1168.00,0.0149
1165.00,0.0154
1162.00,0.0174
1159.00,0.0228
1156.00,0.0315
1153.00,0.0314
1150.00,0.0219
1147.00,0.0158
1144.00,0.0138
1141.00,0.0135
1138.00,0.0143
1135.00,0.0177
1132.00,0.0264
1129.00,0.0349
1126.00,0.0330
1123.00,0.0254
1120.00,0.0192
1117.00,0.0168
1114.00,0.0164
1111.00,0.0155
1108.00,0.0147
1105.00,0.0159
1102.00,0.0204
1099.00,0.0237
1096.00,0.0199
1093.00,0.0151
1090.00,0.0126
1087.00,0.0116
1084.00,0.0113
1081.00,0.0113
1078.00,0.0116
1075.00,0.0120
1072.00,0.0127
1069.00,0.0139
1066.00,0.0157
1063.00,0.0192
1060.00,0.0260
1057.00,0.0372
1054.00,0.0462
1051.00,0.0477
1048.00,0.0450
1045.00,0.0370
1042.00,0.0280
1039.00,0.0228
1036.00,0.0221
1033.00,0.0239
1030.00,0.0311
1027.00,0.0396
1024.00,0.0349
1021.00,0.0251
1018.00,0.0193
1015.00,0.0162
1012.00,0.0146
1009.00,0.0152
1006.00,0.0179
1003.00,0.0202
1000.00,0.0191
997.00,0.0173
994.00,0.0161
991.00,0.0146
988.00,0.0128
985.00,0.0116
982.00,0.0111
979.00,0.0109
976.00,0.0108
973.00,0.0107
970.00,0.0105
967.00,0.0105
964.00,0.0108
961.00,0.0108
958.00,0.0098
955.00,0.0089
952.00,0.0086
949.00,0.0088
946.00,0.0090
943.00,0.0094
940.00,0.0105
937.00,0.0116
934.00,0.0123
931.00,0.0123
928.00,0.0117
925.00,0.0122
922.00,0.0132
919.00,0.0122
916.00,0.0102
913.00,0.0093
910.00,0.0090
907.00,0.0092
904.00,0.0103
901.00,0.0129
898.00,0.0141
895.00,0.0125
892.00,0.0129
889.00,0.0136
886.00,0.0108
883.00,0.0101
880.00,0.0109
877.00,0.0137
874.00,0.0196
871.00,0.0263
868.00,0.0265
865.00,0.0218
862.00,0.0179
859.00,0.0156
856.00,0.0171
853.00,0.0203
850.00,0.0230
847.00,0.0226
844.00,0.0198
841.00,0.0184
838.00,0.0200
835.00,0.0239
832.00,0.0243
829.00,0.0205
826.00,0.0164
823.00,0.0191
820.00,0.0277
817.00,0.0306
814.00,0.0280
811.00,0.0178
808.00,0.0134
805.00,0.0114
802.00,0.0107
799.00,0.0104
796.00,0.0101
793.00,0.0100
790.00,0.0101
787.00,0.0102
784.00,0.0103
781.00,0.0106
778.00,0.0114
775.00,0.0132
772.00,0.0128
769.00,0.0119
766.00,0.0119
763.00,0.0124
760.00,0.0133
757.00,0.0137
754.00,0.0137
751.00,0.0139
748.00,0.0144
745.00,0.0152
742.00,0.0163
739.00,0.0188
736.00,0.0235
733.00,0.0245
730.00,0.0229
727.00,0.0217
724.00,0.0184
721.00,0.0170
718.00,0.0173
715.00,0.0185
712.00,0.0182
709.00,0.0175
706.00,0.0174
703.00,0.0180
700.00,0.0192
697.00,0.0199
694.00,0.0196
691.00,0.0200
688.00,0.0215
685.00,0.0210
682.00,0.0203
679.00,0.0209
676.00,0.0223
673.00,0.0243
670.00,0.0256
667.00,0.0253
664.00,0.0259
661.00,0.0269
658.00,0.0264
655.00,0.0257
652.00,0.0256
649.00,0.0256
646.00,0.0255
643.00,0.0252
640.00,0.0250
637.00,0.0245
634.00,0.0241
631.00,0.0239
628.00,0.0241
625.00,0.0246
622.00,0.0255
619.00,0.0261
616.00,0.0250
613.00,0.0238
610.00,0.0241
607.00,0.0262
604.00,0.0288
601.00,0.0299
598.00,0.0302
595.00,0.0299
592.00,0.0297
589.00,0.0294
586.00,0.0294
583.00,0.0304
580.00,0.0317
577.00,0.0335
574.00,0.0330
571.00,0.0310
568.00,0.0298
565.00,0.0304
562.00,0.0318
559.00,0.0324
556.00,0.0309
553.00,0.0296
550.00,0.0302
547.00,0.0318
544.00,0.0320
541.00,0.0301
538.00,0.0292
535.00,0.0296
532.00,0.0308
529.00,0.0307
526.00,0.0286
523.00,0.0276
520.00,0.0265
517.00,0.0259
514.00,0.0255
511.00,0.0260
508.00,0.0261
505.00,0.0262
502.00,0.0258
499.00,0.0254
496.00,0.0252
493.00,0.0257
490.00,0.0255
487.00,0.0257
484.00,0.0248
481.00,0.0245
478.00,0.0240
475.00,0.0237
472.00,0.0240
469.00,0.0245
466.00,0.0240
463.00,0.0239
460.00,0.0230
457.00,0.0232
454.00,0.0236
451.00,0.0232
448.00,0.0234
445.00,0.0233
442.00,0.0226
439.00,0.0228
436.00,0.0224
433.00,0.0224
430.00,0.0224
427.00,0.0223
424.00,0.0228
421.00,0.0220
418.00,0.0202
415.00,0.0206
412.00,0.0224
409.00,0.0240
406.00,0.0223
403.00,0.0201
400.00,0.0219