File: FTIR/Olivia/2025_08_04_1CBN_3PVP40kDa_MortPest_powder_scan3.csv
Created as New Dataset,Sample 1050 By YargerLab Date Monday, August 04 2025
cm-1,A
4000.00,0.0067
3997.00,0.0067
3994.00,0.0067
3991.00,0.0067
3988.00,0.0067
3985.00,0.0067
3982.00,0.0068
3979.00,0.0068
3976.00,0.0067
3973.00,0.0067
3970.00,0.0067
3967.00,0.0067
3964.00,0.0067
3961.00,0.0067
3958.00,0.0067
3955.00,0.0067
3952.00,0.0066
3949.00,0.0066
3946.00,0.0067
3943.00,0.0066
3940.00,0.0067
3937.00,0.0067
3934.00,0.0067
3931.00,0.0066
3928.00,0.0066
3925.00,0.0066
3922.00,0.0067
3919.00,0.0067
3916.00,0.0067
3913.00,0.0067
3910.00,0.0066
3907.00,0.0066
3904.00,0.0065
3901.00,0.0067
3898.00,0.0066
3895.00,0.0066
3892.00,0.0066
3889.00,0.0066
3886.00,0.0066
3883.00,0.0066
3880.00,0.0065
3877.00,0.0066
3874.00,0.0066
3871.00,0.0065
3868.00,0.0066
3865.00,0.0067
3862.00,0.0067
3859.00,0.0066
3856.00,0.0066
3853.00,0.0066
3850.00,0.0066
3847.00,0.0067
3844.00,0.0066
3841.00,0.0066
3838.00,0.0066
3835.00,0.0066
3832.00,0.0066
3829.00,0.0067
3826.00,0.0066
3823.00,0.0066
3820.00,0.0066
3817.00,0.0067
3814.00,0.0067
3811.00,0.0066
3808.00,0.0066
3805.00,0.0066
3802.00,0.0065
3799.00,0.0066
3796.00,0.0066
3793.00,0.0066
3790.00,0.0066
3787.00,0.0066
3784.00,0.0066
3781.00,0.0066
3778.00,0.0066
3775.00,0.0066
3772.00,0.0066
3769.00,0.0066
3766.00,0.0067
3763.00,0.0066
3760.00,0.0066
3757.00,0.0067
3754.00,0.0067
3751.00,0.0066
3748.00,0.0065
3745.00,0.0066
3742.00,0.0067
3739.00,0.0066
3736.00,0.0066
3733.00,0.0066
3730.00,0.0066
3727.00,0.0065
3724.00,0.0066
3721.00,0.0065
3718.00,0.0065
3715.00,0.0065
3712.00,0.0065
3709.00,0.0066
3706.00,0.0066
3703.00,0.0065
3700.00,0.0065
3697.00,0.0065
3694.00,0.0066
3691.00,0.0066
3688.00,0.0066
3685.00,0.0067
3682.00,0.0068
3679.00,0.0068
3676.00,0.0068
3673.00,0.0069
3670.00,0.0070
3667.00,0.0070
3664.00,0.0070
3661.00,0.0072
3658.00,0.0072
3655.00,0.0073
3652.00,0.0074
3649.00,0.0076
3646.00,0.0077
3643.00,0.0078
3640.00,0.0078
3637.00,0.0080
3634.00,0.0082
3631.00,0.0084
3628.00,0.0086
3625.00,0.0087
3622.00,0.0089
3619.00,0.0091
3616.00,0.0093
3613.00,0.0095
3610.00,0.0097
3607.00,0.0099
3604.00,0.0101
3601.00,0.0104
3598.00,0.0107
3595.00,0.0109
3592.00,0.0111
3589.00,0.0115
3586.00,0.0117
3583.00,0.0120
3580.00,0.0123
3577.00,0.0127
3574.00,0.0130
3571.00,0.0133
3568.00,0.0137
3565.00,0.0140
3562.00,0.0143
3559.00,0.0146
3556.00,0.0150
3553.00,0.0154
3550.00,0.0157
3547.00,0.0161
3544.00,0.0164
3541.00,0.0167
3538.00,0.0170
3535.00,0.0173
3532.00,0.0176
3529.00,0.0179
3526.00,0.0182
3523.00,0.0185
3520.00,0.0187
3517.00,0.0189
3514.00,0.0192
3511.00,0.0194
3508.00,0.0196
3505.00,0.0198
3502.00,0.0201
3499.00,0.0203
3496.00,0.0206
3493.00,0.0208
3490.00,0.0210
3487.00,0.0213
3484.00,0.0216
3481.00,0.0218
3478.00,0.0221
3475.00,0.0224
3472.00,0.0228
3469.00,0.0231
3466.00,0.0234
3463.00,0.0237
3460.00,0.0241
3457.00,0.0244
3454.00,0.0247
3451.00,0.0250
3448.00,0.0254
3445.00,0.0258
3442.00,0.0262
3439.00,0.0266
3436.00,0.0270
3433.00,0.0274
3430.00,0.0278
3427.00,0.0283
3424.00,0.0288
3421.00,0.0294
3418.00,0.0299
3415.00,0.0304
3412.00,0.0308
3409.00,0.0311
3406.00,0.0313
3403.00,0.0315
3400.00,0.0316
3397.00,0.0315
3394.00,0.0313
3391.00,0.0311
3388.00,0.0309
3385.00,0.0305
3382.00,0.0301
3379.00,0.0296
3376.00,0.0292
3373.00,0.0288
3370.00,0.0283
3367.00,0.0280
3364.00,0.0277
3361.00,0.0274
3358.00,0.0270
3355.00,0.0267
3352.00,0.0263
3349.00,0.0261
3346.00,0.0260
3343.00,0.0258
3340.00,0.0255
3337.00,0.0254
3334.00,0.0254
3331.00,0.0254
3328.00,0.0252
3325.00,0.0251
3322.00,0.0252
3319.00,0.0253
3316.00,0.0253
3313.00,0.0253
3310.00,0.0252
3307.00,0.0252
3304.00,0.0254
3301.00,0.0257
3298.00,0.0257
3295.00,0.0257
3292.00,0.0259
3289.00,0.0262
3286.00,0.0263
3283.00,0.0265
3280.00,0.0266
3277.00,0.0266
3274.00,0.0266
3271.00,0.0266
3268.00,0.0268
3265.00,0.0270
3262.00,0.0271
3259.00,0.0271
3256.00,0.0272
3253.00,0.0273
3250.00,0.0273
3247.00,0.0272
3244.00,0.0272
3241.00,0.0272
3238.00,0.0271
3235.00,0.0269
3232.00,0.0268
3229.00,0.0267
3226.00,0.0265
3223.00,0.0263
3220.00,0.0261
3217.00,0.0258
3214.00,0.0254
3211.00,0.0251
3208.00,0.0247
3205.00,0.0243
3202.00,0.0240
3199.00,0.0235
3196.00,0.0231
3193.00,0.0227
3190.00,0.0223
3187.00,0.0219
3184.00,0.0214
3181.00,0.0210
3178.00,0.0207
3175.00,0.0203
3172.00,0.0198
3169.00,0.0194
3166.00,0.0190
3163.00,0.0186
3160.00,0.0182
3157.00,0.0178
3154.00,0.0174
3151.00,0.0170
3148.00,0.0167
3145.00,0.0164
3142.00,0.0160
3139.00,0.0156
3136.00,0.0154
3133.00,0.0152
3130.00,0.0149
3127.00,0.0147
3124.00,0.0145
3121.00,0.0144
3118.00,0.0142
3115.00,0.0139
3112.00,0.0137
3109.00,0.0134
3106.00,0.0132
3103.00,0.0130
3100.00,0.0128
3097.00,0.0127
3094.00,0.0126
3091.00,0.0126
3088.00,0.0126
3085.00,0.0126
3082.00,0.0125
3079.00,0.0124
3076.00,0.0123
3073.00,0.0122
3070.00,0.0121
3067.00,0.0120
3064.00,0.0120
3061.00,0.0120
3058.00,0.0120
3055.00,0.0120
3052.00,0.0120
3049.00,0.0119
3046.00,0.0118
3043.00,0.0118
3040.00,0.0119
3037.00,0.0120
3034.00,0.0122
3031.00,0.0123
3028.00,0.0121
3025.00,0.0119
3022.00,0.0117
3019.00,0.0116
3016.00,0.0115
3013.00,0.0117
3010.00,0.0120
3007.00,0.0124
3004.00,0.0130
3001.00,0.0139
2998.00,0.0151
2995.00,0.0165
2992.00,0.0178
2989.00,0.0188
2986.00,0.0199
2983.00,0.0214
2980.00,0.0235
2977.00,0.0249
2974.00,0.0262
2971.00,0.0287
2968.00,0.0305
2965.00,0.0318
2962.00,0.0335
2959.00,0.0342
2956.00,0.0331
2953.00,0.0313
2950.00,0.0299
2947.00,0.0295
2944.00,0.0302
2941.00,0.0316
2938.00,0.0340
2935.00,0.0376
2932.00,0.0420
2929.00,0.0457
2926.00,0.0469
2923.00,0.0451
2920.00,0.0419
2917.00,0.0383
2914.00,0.0352
2911.00,0.0328
2908.00,0.0308
2905.00,0.0291
2902.00,0.0277
2899.00,0.0267
2896.00,0.0259
2893.00,0.0253
2890.00,0.0247
2887.00,0.0242
2884.00,0.0239
2881.00,0.0240
2878.00,0.0248
2875.00,0.0261
2872.00,0.0269
2869.00,0.0267
2866.00,0.0266
2863.00,0.0279
2860.00,0.0309
2857.00,0.0333
2854.00,0.0331
2851.00,0.0309
2848.00,0.0270
2845.00,0.0232
2842.00,0.0203
2839.00,0.0181
2836.00,0.0168
2833.00,0.0159
2830.00,0.0151
2827.00,0.0143
2824.00,0.0137
2821.00,0.0131
2818.00,0.0127
2815.00,0.0124
2812.00,0.0121
2809.00,0.0119
2806.00,0.0117
2803.00,0.0115
2800.00,0.0114
2797.00,0.0112
2794.00,0.0110
2791.00,0.0108
2788.00,0.0107
2785.00,0.0106
2782.00,0.0105
2779.00,0.0104
2776.00,0.0103
2773.00,0.0102
2770.00,0.0102
2767.00,0.0101
2764.00,0.0101
2761.00,0.0101
2758.00,0.0100
2755.00,0.0100
2752.00,0.0101
2749.00,0.0101
2746.00,0.0101
2743.00,0.0101
2740.00,0.0102
2737.00,0.0103
2734.00,0.0104
2731.00,0.0105
2728.00,0.0105
2725.00,0.0104
2722.00,0.0103
2719.00,0.0102
2716.00,0.0101
2713.00,0.0101
2710.00,0.0100
2707.00,0.0100
2704.00,0.0100
2701.00,0.0099
2698.00,0.0099
2695.00,0.0098
2692.00,0.0097
2689.00,0.0097
2686.00,0.0096
2683.00,0.0096
2680.00,0.0096
2677.00,0.0096
2674.00,0.0096
2671.00,0.0096
2668.00,0.0097
2665.00,0.0098
2662.00,0.0099
2659.00,0.0100
2656.00,0.0100
2653.00,0.0101
2650.00,0.0101
2647.00,0.0101
2644.00,0.0101
2641.00,0.0101
2638.00,0.0100
2635.00,0.0099
2632.00,0.0098
2629.00,0.0097
2626.00,0.0097
2623.00,0.0096
2620.00,0.0095
2617.00,0.0095
2614.00,0.0095
2611.00,0.0095
2608.00,0.0095
2605.00,0.0094
2602.00,0.0095
2599.00,0.0095
2596.00,0.0095
2593.00,0.0096
2590.00,0.0096
2587.00,0.0097
2584.00,0.0096
2581.00,0.0095
2578.00,0.0095
2575.00,0.0094
2572.00,0.0093
2569.00,0.0094
2566.00,0.0094
2563.00,0.0095
2560.00,0.0093
2557.00,0.0092
2554.00,0.0092
2551.00,0.0091
2548.00,0.0091
2545.00,0.0091
2542.00,0.0091
2539.00,0.0091
2536.00,0.0091
2533.00,0.0090
2530.00,0.0089
2527.00,0.0089
2524.00,0.0089
2521.00,0.0088
2518.00,0.0087
2515.00,0.0086
2512.00,0.0087
2509.00,0.0086
2506.00,0.0086
2503.00,0.0086
2500.00,0.0085
2497.00,0.0085
2494.00,0.0085
2491.00,0.0085
2488.00,0.0084
2485.00,0.0084
2482.00,0.0084
2479.00,0.0084
2476.00,0.0084
2473.00,0.0084
2470.00,0.0084
2467.00,0.0084
2464.00,0.0084
2461.00,0.0084
2458.00,0.0085
2455.00,0.0085
2452.00,0.0084
2449.00,0.0084
2446.00,0.0084
2443.00,0.0084
2440.00,0.0083
2437.00,0.0083
2434.00,0.0082
2431.00,0.0082
2428.00,0.0082
2425.00,0.0082
2422.00,0.0082
2419.00,0.0083
2416.00,0.0082
2413.00,0.0082
2410.00,0.0082
2407.00,0.0081
2404.00,0.0081
2401.00,0.0081
2398.00,0.0081
2395.00,0.0081
2392.00,0.0081
2389.00,0.0081
2386.00,0.0080
2383.00,0.0079
2380.00,0.0078
2377.00,0.0078
2374.00,0.0078
2371.00,0.0077
2368.00,0.0077
2365.00,0.0078
2362.00,0.0078
2359.00,0.0079
2356.00,0.0080
2353.00,0.0079
2350.00,0.0079
2347.00,0.0080
2344.00,0.0079
2341.00,0.0081
2338.00,0.0083
2335.00,0.0083
2332.00,0.0082
2329.00,0.0085
2326.00,0.0095
2323.00,0.0093
2320.00,0.0090
2317.00,0.0089
2314.00,0.0086
2311.00,0.0086
2308.00,0.0087
2305.00,0.0086
2302.00,0.0086
2299.00,0.0087
2296.00,0.0089
2293.00,0.0091
2290.00,0.0093
2287.00,0.0095
2284.00,0.0092
2281.00,0.0090
2278.00,0.0089
2275.00,0.0088
2272.00,0.0087
2269.00,0.0085
2266.00,0.0084
2263.00,0.0085
2260.00,0.0085
2257.00,0.0083
2254.00,0.0080
2251.00,0.0082
2248.00,0.0082
2245.00,0.0082
2242.00,0.0084
2239.00,0.0084
2236.00,0.0083
2233.00,0.0083
2230.00,0.0083
2227.00,0.0083
2224.00,0.0083
2221.00,0.0084
2218.00,0.0084
2215.00,0.0084
2212.00,0.0085
2209.00,0.0083
2206.00,0.0084
2203.00,0.0084
2200.00,0.0083
2197.00,0.0084
2194.00,0.0084
2191.00,0.0085
2188.00,0.0088
2185.00,0.0088
2182.00,0.0083
2179.00,0.0085
2176.00,0.0082
2173.00,0.0084
2170.00,0.0088
2167.00,0.0090
2164.00,0.0098
2161.00,0.0081
2158.00,0.0050
2155.00,0.0057
2152.00,0.0065
2149.00,0.0067
2146.00,0.0067
2143.00,0.0066
2140.00,0.0068
2137.00,0.0066
2134.00,0.0063
2131.00,0.0066
2128.00,0.0070
2125.00,0.0073
2122.00,0.0077
2119.00,0.0080
2116.00,0.0082
2113.00,0.0081
2110.00,0.0079
2107.00,0.0080
2104.00,0.0079
2101.00,0.0081
2098.00,0.0079
2095.00,0.0074
2092.00,0.0075
2089.00,0.0078
2086.00,0.0081
2083.00,0.0081
2080.00,0.0080
2077.00,0.0081
2074.00,0.0082
2071.00,0.0081
2068.00,0.0081
2065.00,0.0078
2062.00,0.0076
2059.00,0.0077
2056.00,0.0075
2053.00,0.0081
2050.00,0.0082
2047.00,0.0078
2044.00,0.0080
2041.00,0.0080
2038.00,0.0081
2035.00,0.0073
2032.00,0.0069
2029.00,0.0070
2026.00,0.0069
2023.00,0.0071
2020.00,0.0068
2017.00,0.0070
2014.00,0.0068
2011.00,0.0071
2008.00,0.0066
2005.00,0.0064
2002.00,0.0066
1999.00,0.0069
1996.00,0.0072
1993.00,0.0073
1990.00,0.0073
1987.00,0.0076
1984.00,0.0079
1981.00,0.0086
1978.00,0.0072
1975.00,0.0065
1972.00,0.0063
1969.00,0.0064
1966.00,0.0062
1963.00,0.0065
1960.00,0.0063
1957.00,0.0064
1954.00,0.0067
1951.00,0.0067
1948.00,0.0068
1945.00,0.0068
1942.00,0.0067
1939.00,0.0067
1936.00,0.0068
1933.00,0.0068
1930.00,0.0068
1927.00,0.0069
1924.00,0.0071
1921.00,0.0070
1918.00,0.0070
1915.00,0.0070
1912.00,0.0073
1909.00,0.0078
1906.00,0.0076
1903.00,0.0073
1900.00,0.0073
1897.00,0.0074
1894.00,0.0075
1891.00,0.0074
1888.00,0.0073
1885.00,0.0072
1882.00,0.0071
1879.00,0.0072
1876.00,0.0072
1873.00,0.0071
1870.00,0.0072
1867.00,0.0072
1864.00,0.0073
1861.00,0.0074
1858.00,0.0073
1855.00,0.0073
1852.00,0.0074
1849.00,0.0075
1846.00,0.0075
1843.00,0.0075
1840.00,0.0075
1837.00,0.0074
1834.00,0.0073
1831.00,0.0072
1828.00,0.0072
1825.00,0.0073
1822.00,0.0074
1819.00,0.0072
1816.00,0.0071
1813.00,0.0073
1810.00,0.0074
1807.00,0.0074
1804.00,0.0074
1801.00,0.0075
1798.00,0.0076
1795.00,0.0076
1792.00,0.0075
1789.00,0.0077
1786.00,0.0077
1783.00,0.0076
1780.00,0.0078
1777.00,0.0079
1774.00,0.0078
1771.00,0.0078
1768.00,0.0081
1765.00,0.0080
1762.00,0.0080
1759.00,0.0083
1756.00,0.0083
1753.00,0.0083
1750.00,0.0085
1747.00,0.0088
1744.00,0.0089
1741.00,0.0086
1738.00,0.0087
1735.00,0.0089
1732.00,0.0096
1729.00,0.0101
1726.00,0.0105
1723.00,0.0109
1720.00,0.0110
1717.00,0.0119
1714.00,0.0127
1711.00,0.0139
1708.00,0.0150
1705.00,0.0166
1702.00,0.0179
1699.00,0.0220
1696.00,0.0269
1693.00,0.0325
1690.00,0.0390
1687.00,0.0453
1684.00,0.0528
1681.00,0.0603
1678.00,0.0669
1675.00,0.0738
1672.00,0.0804
1669.00,0.0868
1666.00,0.0928
1663.00,0.0987
1660.00,0.1034
1657.00,0.1077
1654.00,0.1112
1651.00,0.1099
1648.00,0.1121
1645.00,0.1081
1642.00,0.1056
1639.00,0.1013
1636.00,0.0941
1633.00,0.0869
1630.00,0.0860
1627.00,0.0886
1624.00,0.0918
1621.00,0.0904
1618.00,0.0837
1615.00,0.0716
1612.00,0.0683
1609.00,0.0644
1606.00,0.0563
1603.00,0.0480
1600.00,0.0415
1597.00,0.0377
1594.00,0.0365
1591.00,0.0391
1588.00,0.0448
1585.00,0.0489
1582.00,0.0484
1579.00,0.0448
1576.00,0.0393
1573.00,0.0349
1570.00,0.0323
1567.00,0.0302
1564.00,0.0271
1561.00,0.0233
1558.00,0.0203
1555.00,0.0201
1552.00,0.0196
1549.00,0.0190
1546.00,0.0183
1543.00,0.0173
1540.00,0.0168
1537.00,0.0168
1534.00,0.0166
1531.00,0.0165
1528.00,0.0164
1525.00,0.0163
1522.00,0.0167
1519.00,0.0173
1516.00,0.0187
1513.00,0.0200
1510.00,0.0212
1507.00,0.0224
1504.00,0.0251
1501.00,0.0296
1498.00,0.0379
1495.00,0.0438
1492.00,0.0407
1489.00,0.0340
1486.00,0.0281
1483.00,0.0246
1480.00,0.0227
1477.00,0.0228
1474.00,0.0253
1471.00,0.0329
1468.00,0.0447
1465.00,0.0560
1462.00,0.0612
1459.00,0.0615
1456.00,0.0537
1453.00,0.0488
1450.00,0.0484
1447.00,0.0530
1444.00,0.0610
1441.00,0.0696
1438.00,0.0753
1435.00,0.0787
1432.00,0.0816
1429.00,0.0845
1426.00,0.0889
1423.00,0.0920
1420.00,0.0891
1417.00,0.0770
1414.00,0.0651
1411.00,0.0562
1408.00,0.0528
1405.00,0.0544
1402.00,0.0569
1399.00,0.0561
1396.00,0.0507
1393.00,0.0436
1390.00,0.0406
1387.00,0.0428
1384.00,0.0428
1381.00,0.0434
1378.00,0.0452
1375.00,0.0442
1372.00,0.0411
1369.00,0.0417
1366.00,0.0450
1363.00,0.0461
1360.00,0.0483
1357.00,0.0440
1354.00,0.0388
1351.00,0.0371
1348.00,0.0369
1345.00,0.0362
1342.00,0.0343
1339.00,0.0322
1336.00,0.0312
1333.00,0.0328
1330.00,0.0354
1327.00,0.0374
1324.00,0.0394
1321.00,0.0418
1318.00,0.0430
1315.00,0.0418
1312.00,0.0398
1309.00,0.0395
1306.00,0.0424
1303.00,0.0497
1300.00,0.0579
1297.00,0.0654
1294.00,0.0768
1291.00,0.0876
1288.00,0.0953
1285.00,0.0994
1282.00,0.0974
1279.00,0.0912
1276.00,0.0873
1273.00,0.0861
1270.00,0.0832
1267.00,0.0773
1264.00,0.0696
1261.00,0.0616
1258.00,0.0548
1255.00,0.0499
1252.00,0.0469
1249.00,0.0465
1246.00,0.0486
1243.00,0.0514
1240.00,0.0536
1237.00,0.0580
1234.00,0.0626
1231.00,0.0622
1228.00,0.0582
1225.00,0.0547
1222.00,0.0527
1219.00,0.0528
1216.00,0.0541
1213.00,0.0534
1210.00,0.0489
1207.00,0.0444
1204.00,0.0431
1201.00,0.0456
1198.00,0.0508
1195.00,0.0556
1192.00,0.0541
1189.00,0.0479
1186.00,0.0415
1183.00,0.0375
1180.00,0.0358
1177.00,0.0355
1174.00,0.0359
1171.00,0.0364
1168.00,0.0364
1165.00,0.0361
1162.00,0.0369
1159.00,0.0417
1156.00,0.0503
1153.00,0.0502
1150.00,0.0395
1147.00,0.0321
1144.00,0.0293
1141.00,0.0283
1138.00,0.0289
1135.00,0.0328
1132.00,0.0430
1129.00,0.0537
1126.00,0.0528
1123.00,0.0450
1120.00,0.0374
1117.00,0.0342
1114.00,0.0336
1111.00,0.0326
1108.00,0.0314
1105.00,0.0327
1102.00,0.0384
1099.00,0.0428
1096.00,0.0383
1093.00,0.0321
1090.00,0.0291
1087.00,0.0279
1084.00,0.0274
1081.00,0.0276
1078.00,0.0283
1075.00,0.0289
1072.00,0.0297
1069.00,0.0308
1066.00,0.0323
1063.00,0.0354
1060.00,0.0429
1057.00,0.0560
1054.00,0.0667
1051.00,0.0692
1048.00,0.0670
1045.00,0.0583
1042.00,0.0482
1039.00,0.0418
1036.00,0.0410
1033.00,0.0432
1030.00,0.0511
1027.00,0.0621
1024.00,0.0590
1021.00,0.0487
1018.00,0.0418
1015.00,0.0370
1012.00,0.0336
1009.00,0.0335
1006.00,0.0376
1003.00,0.0413
1000.00,0.0400
997.00,0.0370
994.00,0.0347
991.00,0.0318
988.00,0.0289
985.00,0.0270
982.00,0.0258
979.00,0.0252
976.00,0.0250
973.00,0.0247
970.00,0.0242
967.00,0.0239
964.00,0.0242
961.00,0.0243
958.00,0.0227
955.00,0.0214
952.00,0.0208
949.00,0.0213
946.00,0.0216
943.00,0.0221
940.00,0.0241
937.00,0.0262
934.00,0.0278
931.00,0.0276
928.00,0.0262
925.00,0.0263
922.00,0.0276
919.00,0.0262
916.00,0.0235
913.00,0.0220
910.00,0.0215
907.00,0.0219
904.00,0.0237
901.00,0.0278
898.00,0.0299
895.00,0.0280
892.00,0.0285
889.00,0.0294
886.00,0.0254
883.00,0.0239
880.00,0.0245
877.00,0.0281
874.00,0.0358
871.00,0.0443
868.00,0.0450
865.00,0.0397
862.00,0.0351
859.00,0.0328
856.00,0.0358
853.00,0.0416
850.00,0.0477
847.00,0.0487
844.00,0.0443
841.00,0.0416
838.00,0.0431
835.00,0.0478
832.00,0.0483
829.00,0.0424
826.00,0.0355
823.00,0.0380
820.00,0.0498
817.00,0.0541
814.00,0.0520
811.00,0.0373
808.00,0.0310
805.00,0.0288
802.00,0.0278
799.00,0.0274
796.00,0.0273
793.00,0.0274
790.00,0.0275
787.00,0.0276
784.00,0.0279
781.00,0.0285
778.00,0.0296
775.00,0.0324
772.00,0.0326
769.00,0.0318
766.00,0.0322
763.00,0.0337
760.00,0.0359
757.00,0.0371
754.00,0.0377
751.00,0.0388
748.00,0.0404
745.00,0.0421
742.00,0.0444
739.00,0.0483
736.00,0.0555
733.00,0.0575
730.00,0.0557
727.00,0.0542
724.00,0.0488
721.00,0.0457
718.00,0.0462
715.00,0.0484
712.00,0.0480
709.00,0.0466
706.00,0.0466
703.00,0.0477
700.00,0.0496
697.00,0.0511
694.00,0.0507
691.00,0.0518
688.00,0.0548
685.00,0.0548
682.00,0.0547
679.00,0.0561
676.00,0.0588
673.00,0.0625
670.00,0.0653
667.00,0.0659
664.00,0.0674
661.00,0.0704
658.00,0.0713
655.00,0.0719
652.00,0.0735
649.00,0.0749
646.00,0.0754
643.00,0.0746
640.00,0.0732
637.00,0.0719
634.00,0.0707
631.00,0.0698
628.00,0.0696
625.00,0.0701
622.00,0.0714
619.00,0.0724
616.00,0.0711
613.00,0.0689
610.00,0.0689
607.00,0.0723
604.00,0.0770
601.00,0.0794
598.00,0.0796
595.00,0.0801
592.00,0.0809
589.00,0.0810
586.00,0.0819
583.00,0.0845
580.00,0.0880
577.00,0.0931
574.00,0.0939
571.00,0.0907
568.00,0.0886
565.00,0.0884
562.00,0.0898
559.00,0.0906
556.00,0.0884
553.00,0.0861
550.00,0.0867
547.00,0.0895
544.00,0.0892
541.00,0.0866
538.00,0.0841
535.00,0.0843
532.00,0.0872
529.00,0.0874
526.00,0.0842
523.00,0.0814
520.00,0.0801
517.00,0.0794
514.00,0.0785
511.00,0.0782
508.00,0.0790
505.00,0.0798
502.00,0.0792
499.00,0.0783
496.00,0.0787
493.00,0.0802
490.00,0.0801
487.00,0.0793
484.00,0.0792
481.00,0.0790
478.00,0.0790
475.00,0.0789
472.00,0.0798
469.00,0.0790
466.00,0.0779
463.00,0.0776
460.00,0.0776
457.00,0.0777
454.00,0.0769
451.00,0.0762
448.00,0.0752
445.00,0.0744
442.00,0.0742
439.00,0.0735
436.00,0.0724
433.00,0.0722
430.00,0.0706
427.00,0.0702
424.00,0.0699
421.00,0.0702
418.00,0.0690
415.00,0.0674
412.00,0.0699
409.00,0.0719
406.00,0.0712
403.00,0.0673
400.00,0.0676