File: FTIR/Olivia/2025_07_28_CBN_PVP10kDa_Mortar_Mix_Batch_scan3.csv
Created as New Dataset,Sample 945 By YargerLab Date Monday, July 28 2025
cm-1,A
4000.00,0.0046
3997.00,0.0047
3994.00,0.0047
3991.00,0.0047
3988.00,0.0047
3985.00,0.0047
3982.00,0.0047
3979.00,0.0047
3976.00,0.0047
3973.00,0.0047
3970.00,0.0047
3967.00,0.0047
3964.00,0.0047
3961.00,0.0047
3958.00,0.0046
3955.00,0.0047
3952.00,0.0047
3949.00,0.0047
3946.00,0.0047
3943.00,0.0047
3940.00,0.0047
3937.00,0.0046
3934.00,0.0046
3931.00,0.0046
3928.00,0.0046
3925.00,0.0045
3922.00,0.0046
3919.00,0.0047
3916.00,0.0047
3913.00,0.0047
3910.00,0.0047
3907.00,0.0046
3904.00,0.0046
3901.00,0.0045
3898.00,0.0046
3895.00,0.0046
3892.00,0.0046
3889.00,0.0046
3886.00,0.0045
3883.00,0.0045
3880.00,0.0046
3877.00,0.0046
3874.00,0.0046
3871.00,0.0046
3868.00,0.0045
3865.00,0.0045
3862.00,0.0046
3859.00,0.0046
3856.00,0.0046
3853.00,0.0045
3850.00,0.0045
3847.00,0.0045
3844.00,0.0045
3841.00,0.0046
3838.00,0.0046
3835.00,0.0045
3832.00,0.0045
3829.00,0.0046
3826.00,0.0046
3823.00,0.0045
3820.00,0.0045
3817.00,0.0045
3814.00,0.0045
3811.00,0.0046
3808.00,0.0046
3805.00,0.0045
3802.00,0.0045
3799.00,0.0045
3796.00,0.0046
3793.00,0.0047
3790.00,0.0047
3787.00,0.0046
3784.00,0.0046
3781.00,0.0047
3778.00,0.0046
3775.00,0.0046
3772.00,0.0047
3769.00,0.0047
3766.00,0.0047
3763.00,0.0047
3760.00,0.0047
3757.00,0.0047
3754.00,0.0047
3751.00,0.0047
3748.00,0.0046
3745.00,0.0045
3742.00,0.0045
3739.00,0.0046
3736.00,0.0046
3733.00,0.0045
3730.00,0.0044
3727.00,0.0045
3724.00,0.0045
3721.00,0.0045
3718.00,0.0045
3715.00,0.0045
3712.00,0.0045
3709.00,0.0045
3706.00,0.0044
3703.00,0.0044
3700.00,0.0044
3697.00,0.0045
3694.00,0.0044
3691.00,0.0044
3688.00,0.0045
3685.00,0.0046
3682.00,0.0047
3679.00,0.0047
3676.00,0.0047
3673.00,0.0047
3670.00,0.0047
3667.00,0.0048
3664.00,0.0049
3661.00,0.0049
3658.00,0.0048
3655.00,0.0048
3652.00,0.0049
3649.00,0.0050
3646.00,0.0050
3643.00,0.0051
3640.00,0.0053
3637.00,0.0053
3634.00,0.0054
3631.00,0.0055
3628.00,0.0055
3625.00,0.0056
3622.00,0.0058
3619.00,0.0059
3616.00,0.0060
3613.00,0.0062
3610.00,0.0064
3607.00,0.0065
3604.00,0.0067
3601.00,0.0068
3598.00,0.0070
3595.00,0.0072
3592.00,0.0074
3589.00,0.0075
3586.00,0.0077
3583.00,0.0079
3580.00,0.0081
3577.00,0.0084
3574.00,0.0086
3571.00,0.0088
3568.00,0.0090
3565.00,0.0093
3562.00,0.0095
3559.00,0.0098
3556.00,0.0100
3553.00,0.0102
3550.00,0.0105
3547.00,0.0107
3544.00,0.0110
3541.00,0.0112
3538.00,0.0113
3535.00,0.0116
3532.00,0.0117
3529.00,0.0119
3526.00,0.0121
3523.00,0.0123
3520.00,0.0125
3517.00,0.0126
3514.00,0.0127
3511.00,0.0128
3508.00,0.0130
3505.00,0.0132
3502.00,0.0134
3499.00,0.0135
3496.00,0.0137
3493.00,0.0138
3490.00,0.0140
3487.00,0.0142
3484.00,0.0144
3481.00,0.0147
3478.00,0.0148
3475.00,0.0151
3472.00,0.0154
3469.00,0.0157
3466.00,0.0160
3463.00,0.0163
3460.00,0.0166
3457.00,0.0168
3454.00,0.0172
3451.00,0.0175
3448.00,0.0178
3445.00,0.0182
3442.00,0.0185
3439.00,0.0188
3436.00,0.0192
3433.00,0.0196
3430.00,0.0200
3427.00,0.0204
3424.00,0.0209
3421.00,0.0214
3418.00,0.0219
3415.00,0.0223
3412.00,0.0227
3409.00,0.0231
3406.00,0.0233
3403.00,0.0234
3400.00,0.0235
3397.00,0.0235
3394.00,0.0234
3391.00,0.0232
3388.00,0.0229
3385.00,0.0226
3382.00,0.0222
3379.00,0.0219
3376.00,0.0215
3373.00,0.0211
3370.00,0.0206
3367.00,0.0203
3364.00,0.0201
3361.00,0.0198
3358.00,0.0196
3355.00,0.0193
3352.00,0.0190
3349.00,0.0188
3346.00,0.0187
3343.00,0.0184
3340.00,0.0183
3337.00,0.0182
3334.00,0.0183
3331.00,0.0182
3328.00,0.0180
3325.00,0.0179
3322.00,0.0181
3319.00,0.0181
3316.00,0.0181
3313.00,0.0182
3310.00,0.0180
3307.00,0.0178
3304.00,0.0181
3301.00,0.0185
3298.00,0.0185
3295.00,0.0184
3292.00,0.0185
3289.00,0.0189
3286.00,0.0190
3283.00,0.0191
3280.00,0.0192
3277.00,0.0192
3274.00,0.0193
3271.00,0.0194
3268.00,0.0196
3265.00,0.0198
3262.00,0.0198
3259.00,0.0199
3256.00,0.0200
3253.00,0.0202
3250.00,0.0203
3247.00,0.0203
3244.00,0.0205
3241.00,0.0206
3238.00,0.0205
3235.00,0.0203
3232.00,0.0202
3229.00,0.0203
3226.00,0.0202
3223.00,0.0201
3220.00,0.0200
3217.00,0.0198
3214.00,0.0196
3211.00,0.0194
3208.00,0.0191
3205.00,0.0187
3202.00,0.0184
3199.00,0.0181
3196.00,0.0178
3193.00,0.0175
3190.00,0.0172
3187.00,0.0168
3184.00,0.0165
3181.00,0.0162
3178.00,0.0159
3175.00,0.0156
3172.00,0.0152
3169.00,0.0149
3166.00,0.0146
3163.00,0.0142
3160.00,0.0139
3157.00,0.0135
3154.00,0.0131
3151.00,0.0128
3148.00,0.0125
3145.00,0.0122
3142.00,0.0119
3139.00,0.0116
3136.00,0.0114
3133.00,0.0112
3130.00,0.0110
3127.00,0.0108
3124.00,0.0106
3121.00,0.0105
3118.00,0.0103
3115.00,0.0101
3112.00,0.0100
3109.00,0.0098
3106.00,0.0095
3103.00,0.0094
3100.00,0.0093
3097.00,0.0092
3094.00,0.0091
3091.00,0.0092
3088.00,0.0092
3085.00,0.0092
3082.00,0.0092
3079.00,0.0091
3076.00,0.0091
3073.00,0.0090
3070.00,0.0089
3067.00,0.0088
3064.00,0.0088
3061.00,0.0088
3058.00,0.0089
3055.00,0.0090
3052.00,0.0090
3049.00,0.0089
3046.00,0.0088
3043.00,0.0088
3040.00,0.0089
3037.00,0.0092
3034.00,0.0094
3031.00,0.0094
3028.00,0.0092
3025.00,0.0090
3022.00,0.0089
3019.00,0.0089
3016.00,0.0088
3013.00,0.0090
3010.00,0.0094
3007.00,0.0100
3004.00,0.0108
3001.00,0.0118
2998.00,0.0131
2995.00,0.0145
2992.00,0.0158
2989.00,0.0170
2986.00,0.0184
2983.00,0.0204
2980.00,0.0227
2977.00,0.0238
2974.00,0.0253
2971.00,0.0279
2968.00,0.0295
2965.00,0.0307
2962.00,0.0322
2959.00,0.0325
2956.00,0.0310
2953.00,0.0291
2950.00,0.0278
2947.00,0.0276
2944.00,0.0285
2941.00,0.0302
2938.00,0.0328
2935.00,0.0368
2932.00,0.0414
2929.00,0.0449
2926.00,0.0457
2923.00,0.0438
2920.00,0.0405
2917.00,0.0369
2914.00,0.0339
2911.00,0.0314
2908.00,0.0294
2905.00,0.0276
2902.00,0.0262
2899.00,0.0250
2896.00,0.0241
2893.00,0.0234
2890.00,0.0228
2887.00,0.0223
2884.00,0.0220
2881.00,0.0222
2878.00,0.0233
2875.00,0.0247
2872.00,0.0254
2869.00,0.0251
2866.00,0.0251
2863.00,0.0268
2860.00,0.0300
2857.00,0.0321
2854.00,0.0318
2851.00,0.0296
2848.00,0.0256
2845.00,0.0217
2842.00,0.0187
2839.00,0.0165
2836.00,0.0151
2833.00,0.0140
2830.00,0.0131
2827.00,0.0123
2824.00,0.0116
2821.00,0.0110
2818.00,0.0106
2815.00,0.0102
2812.00,0.0099
2809.00,0.0097
2806.00,0.0095
2803.00,0.0092
2800.00,0.0091
2797.00,0.0089
2794.00,0.0087
2791.00,0.0086
2788.00,0.0084
2785.00,0.0083
2782.00,0.0082
2779.00,0.0081
2776.00,0.0079
2773.00,0.0079
2770.00,0.0078
2767.00,0.0078
2764.00,0.0077
2761.00,0.0077
2758.00,0.0077
2755.00,0.0077
2752.00,0.0077
2749.00,0.0077
2746.00,0.0078
2743.00,0.0078
2740.00,0.0079
2737.00,0.0080
2734.00,0.0081
2731.00,0.0082
2728.00,0.0082
2725.00,0.0081
2722.00,0.0079
2719.00,0.0079
2716.00,0.0078
2713.00,0.0078
2710.00,0.0077
2707.00,0.0076
2704.00,0.0076
2701.00,0.0076
2698.00,0.0075
2695.00,0.0074
2692.00,0.0074
2689.00,0.0073
2686.00,0.0073
2683.00,0.0072
2680.00,0.0072
2677.00,0.0072
2674.00,0.0072
2671.00,0.0073
2668.00,0.0073
2665.00,0.0075
2662.00,0.0077
2659.00,0.0078
2656.00,0.0079
2653.00,0.0079
2650.00,0.0079
2647.00,0.0079
2644.00,0.0078
2641.00,0.0078
2638.00,0.0077
2635.00,0.0076
2632.00,0.0075
2629.00,0.0075
2626.00,0.0074
2623.00,0.0074
2620.00,0.0073
2617.00,0.0072
2614.00,0.0072
2611.00,0.0072
2608.00,0.0072
2605.00,0.0072
2602.00,0.0072
2599.00,0.0072
2596.00,0.0072
2593.00,0.0073
2590.00,0.0073
2587.00,0.0073
2584.00,0.0073
2581.00,0.0073
2578.00,0.0072
2575.00,0.0072
2572.00,0.0071
2569.00,0.0071
2566.00,0.0071
2563.00,0.0071
2560.00,0.0070
2557.00,0.0069
2554.00,0.0068
2551.00,0.0068
2548.00,0.0068
2545.00,0.0068
2542.00,0.0067
2539.00,0.0067
2536.00,0.0067
2533.00,0.0068
2530.00,0.0066
2527.00,0.0065
2524.00,0.0065
2521.00,0.0064
2518.00,0.0064
2515.00,0.0064
2512.00,0.0063
2509.00,0.0063
2506.00,0.0062
2503.00,0.0062
2500.00,0.0062
2497.00,0.0061
2494.00,0.0061
2491.00,0.0061
2488.00,0.0061
2485.00,0.0060
2482.00,0.0060
2479.00,0.0060
2476.00,0.0059
2473.00,0.0059
2470.00,0.0059
2467.00,0.0059
2464.00,0.0060
2461.00,0.0060
2458.00,0.0061
2455.00,0.0061
2452.00,0.0060
2449.00,0.0060
2446.00,0.0060
2443.00,0.0060
2440.00,0.0059
2437.00,0.0058
2434.00,0.0058
2431.00,0.0058
2428.00,0.0058
2425.00,0.0057
2422.00,0.0057
2419.00,0.0056
2416.00,0.0057
2413.00,0.0056
2410.00,0.0057
2407.00,0.0057
2404.00,0.0056
2401.00,0.0056
2398.00,0.0056
2395.00,0.0056
2392.00,0.0055
2389.00,0.0055
2386.00,0.0054
2383.00,0.0052
2380.00,0.0051
2377.00,0.0051
2374.00,0.0051
2371.00,0.0051
2368.00,0.0050
2365.00,0.0050
2362.00,0.0050
2359.00,0.0051
2356.00,0.0051
2353.00,0.0051
2350.00,0.0052
2347.00,0.0053
2344.00,0.0053
2341.00,0.0054
2338.00,0.0056
2335.00,0.0055
2332.00,0.0054
2329.00,0.0058
2326.00,0.0069
2323.00,0.0068
2320.00,0.0064
2317.00,0.0062
2314.00,0.0060
2311.00,0.0060
2308.00,0.0060
2305.00,0.0061
2302.00,0.0062
2299.00,0.0061
2296.00,0.0064
2293.00,0.0066
2290.00,0.0068
2287.00,0.0069
2284.00,0.0067
2281.00,0.0065
2278.00,0.0062
2275.00,0.0061
2272.00,0.0060
2269.00,0.0059
2266.00,0.0056
2263.00,0.0056
2260.00,0.0058
2257.00,0.0057
2254.00,0.0054
2251.00,0.0055
2248.00,0.0056
2245.00,0.0054
2242.00,0.0055
2239.00,0.0055
2236.00,0.0058
2233.00,0.0058
2230.00,0.0056
2227.00,0.0057
2224.00,0.0057
2221.00,0.0055
2218.00,0.0056
2215.00,0.0055
2212.00,0.0055
2209.00,0.0056
2206.00,0.0057
2203.00,0.0055
2200.00,0.0055
2197.00,0.0056
2194.00,0.0058
2191.00,0.0056
2188.00,0.0059
2185.00,0.0057
2182.00,0.0051
2179.00,0.0053
2176.00,0.0050
2173.00,0.0053
2170.00,0.0060
2167.00,0.0066
2164.00,0.0067
2161.00,0.0051
2158.00,0.0019
2155.00,0.0028
2152.00,0.0034
2149.00,0.0036
2146.00,0.0034
2143.00,0.0036
2140.00,0.0037
2137.00,0.0035
2134.00,0.0031
2131.00,0.0037
2128.00,0.0042
2125.00,0.0044
2122.00,0.0046
2119.00,0.0049
2116.00,0.0052
2113.00,0.0051
2110.00,0.0050
2107.00,0.0050
2104.00,0.0050
2101.00,0.0050
2098.00,0.0047
2095.00,0.0043
2092.00,0.0047
2089.00,0.0049
2086.00,0.0051
2083.00,0.0052
2080.00,0.0053
2077.00,0.0053
2074.00,0.0052
2071.00,0.0049
2068.00,0.0050
2065.00,0.0048
2062.00,0.0047
2059.00,0.0047
2056.00,0.0045
2053.00,0.0053
2050.00,0.0054
2047.00,0.0047
2044.00,0.0047
2041.00,0.0046
2038.00,0.0049
2035.00,0.0045
2032.00,0.0042
2029.00,0.0039
2026.00,0.0041
2023.00,0.0041
2020.00,0.0043
2017.00,0.0041
2014.00,0.0038
2011.00,0.0041
2008.00,0.0036
2005.00,0.0035
2002.00,0.0036
1999.00,0.0042
1996.00,0.0045
1993.00,0.0047
1990.00,0.0046
1987.00,0.0049
1984.00,0.0055
1981.00,0.0059
1978.00,0.0043
1975.00,0.0031
1972.00,0.0035
1969.00,0.0035
1966.00,0.0035
1963.00,0.0036
1960.00,0.0033
1957.00,0.0034
1954.00,0.0035
1951.00,0.0038
1948.00,0.0037
1945.00,0.0036
1942.00,0.0040
1939.00,0.0040
1936.00,0.0039
1933.00,0.0041
1930.00,0.0041
1927.00,0.0040
1924.00,0.0045
1921.00,0.0045
1918.00,0.0045
1915.00,0.0046
1912.00,0.0050
1909.00,0.0056
1906.00,0.0053
1903.00,0.0049
1900.00,0.0048
1897.00,0.0049
1894.00,0.0051
1891.00,0.0051
1888.00,0.0047
1885.00,0.0047
1882.00,0.0046
1879.00,0.0047
1876.00,0.0047
1873.00,0.0047
1870.00,0.0049
1867.00,0.0048
1864.00,0.0048
1861.00,0.0048
1858.00,0.0048
1855.00,0.0048
1852.00,0.0049
1849.00,0.0053
1846.00,0.0052
1843.00,0.0050
1840.00,0.0051
1837.00,0.0050
1834.00,0.0050
1831.00,0.0050
1828.00,0.0048
1825.00,0.0050
1822.00,0.0049
1819.00,0.0048
1816.00,0.0047
1813.00,0.0051
1810.00,0.0050
1807.00,0.0050
1804.00,0.0052
1801.00,0.0053
1798.00,0.0054
1795.00,0.0054
1792.00,0.0053
1789.00,0.0054
1786.00,0.0055
1783.00,0.0056
1780.00,0.0057
1777.00,0.0058
1774.00,0.0059
1771.00,0.0058
1768.00,0.0058
1765.00,0.0059
1762.00,0.0060
1759.00,0.0063
1756.00,0.0062
1753.00,0.0063
1750.00,0.0066
1747.00,0.0068
1744.00,0.0069
1741.00,0.0066
1738.00,0.0067
1735.00,0.0068
1732.00,0.0075
1729.00,0.0080
1726.00,0.0085
1723.00,0.0091
1720.00,0.0093
1717.00,0.0101
1714.00,0.0110
1711.00,0.0123
1708.00,0.0138
1705.00,0.0161
1702.00,0.0179
1699.00,0.0236
1696.00,0.0292
1693.00,0.0357
1690.00,0.0423
1687.00,0.0483
1684.00,0.0560
1681.00,0.0631
1678.00,0.0677
1675.00,0.0731
1672.00,0.0778
1669.00,0.0820
1666.00,0.0852
1663.00,0.0878
1660.00,0.0902
1657.00,0.0909
1654.00,0.0903
1651.00,0.0900
1648.00,0.0868
1645.00,0.0812
1642.00,0.0757
1639.00,0.0692
1636.00,0.0624
1633.00,0.0589
1630.00,0.0601
1627.00,0.0665
1624.00,0.0721
1621.00,0.0729
1618.00,0.0661
1615.00,0.0572
1612.00,0.0550
1609.00,0.0521
1606.00,0.0447
1603.00,0.0368
1600.00,0.0311
1597.00,0.0282
1594.00,0.0283
1591.00,0.0325
1588.00,0.0396
1585.00,0.0444
1582.00,0.0440
1579.00,0.0402
1576.00,0.0347
1573.00,0.0305
1570.00,0.0281
1567.00,0.0259
1564.00,0.0224
1561.00,0.0185
1558.00,0.0156
1555.00,0.0153
1552.00,0.0148
1549.00,0.0142
1546.00,0.0138
1543.00,0.0131
1540.00,0.0125
1537.00,0.0124
1534.00,0.0124
1531.00,0.0123
1528.00,0.0125
1525.00,0.0126
1522.00,0.0131
1519.00,0.0140
1516.00,0.0155
1513.00,0.0169
1510.00,0.0185
1507.00,0.0195
1504.00,0.0217
1501.00,0.0260
1498.00,0.0342
1495.00,0.0394
1492.00,0.0355
1489.00,0.0293
1486.00,0.0239
1483.00,0.0207
1480.00,0.0192
1477.00,0.0195
1474.00,0.0219
1471.00,0.0291
1468.00,0.0394
1465.00,0.0485
1462.00,0.0524
1459.00,0.0525
1456.00,0.0480
1453.00,0.0437
1450.00,0.0427
1447.00,0.0456
1444.00,0.0516
1441.00,0.0587
1438.00,0.0641
1435.00,0.0707
1432.00,0.0749
1429.00,0.0786
1426.00,0.0815
1423.00,0.0833
1420.00,0.0804
1417.00,0.0717
1414.00,0.0612
1411.00,0.0535
1408.00,0.0511
1405.00,0.0535
1402.00,0.0565
1399.00,0.0556
1396.00,0.0496
1393.00,0.0421
1390.00,0.0388
1387.00,0.0416
1384.00,0.0414
1381.00,0.0419
1378.00,0.0434
1375.00,0.0417
1372.00,0.0383
1369.00,0.0394
1366.00,0.0438
1363.00,0.0457
1360.00,0.0484
1357.00,0.0432
1354.00,0.0375
1351.00,0.0355
1348.00,0.0353
1345.00,0.0342
1342.00,0.0320
1339.00,0.0295
1336.00,0.0284
1333.00,0.0299
1330.00,0.0319
1327.00,0.0332
1324.00,0.0344
1321.00,0.0362
1318.00,0.0374
1315.00,0.0366
1312.00,0.0353
1309.00,0.0356
1306.00,0.0390
1303.00,0.0461
1300.00,0.0523
1297.00,0.0567
1294.00,0.0647
1291.00,0.0733
1288.00,0.0813
1285.00,0.0874
1282.00,0.0868
1279.00,0.0804
1276.00,0.0754
1273.00,0.0743
1270.00,0.0728
1267.00,0.0689
1264.00,0.0626
1261.00,0.0552
1258.00,0.0487
1255.00,0.0439
1252.00,0.0412
1249.00,0.0413
1246.00,0.0439
1243.00,0.0468
1240.00,0.0493
1237.00,0.0542
1234.00,0.0589
1231.00,0.0582
1228.00,0.0540
1225.00,0.0502
1222.00,0.0479
1219.00,0.0478
1216.00,0.0491
1213.00,0.0483
1210.00,0.0435
1207.00,0.0392
1204.00,0.0385
1201.00,0.0419
1198.00,0.0479
1195.00,0.0531
1192.00,0.0513
1189.00,0.0445
1186.00,0.0375
1183.00,0.0329
1180.00,0.0307
1177.00,0.0300
1174.00,0.0302
1171.00,0.0307
1168.00,0.0310
1165.00,0.0315
1162.00,0.0332
1159.00,0.0391
1156.00,0.0489
1153.00,0.0489
1150.00,0.0371
1147.00,0.0289
1144.00,0.0258
1141.00,0.0248
1138.00,0.0256
1135.00,0.0302
1132.00,0.0416
1129.00,0.0529
1126.00,0.0518
1123.00,0.0430
1120.00,0.0342
1117.00,0.0304
1114.00,0.0294
1111.00,0.0279
1108.00,0.0266
1105.00,0.0283
1102.00,0.0348
1099.00,0.0390
1096.00,0.0336
1093.00,0.0268
1090.00,0.0232
1087.00,0.0218
1084.00,0.0213
1081.00,0.0213
1078.00,0.0219
1075.00,0.0225
1072.00,0.0233
1069.00,0.0245
1066.00,0.0263
1063.00,0.0302
1060.00,0.0388
1057.00,0.0530
1054.00,0.0646
1051.00,0.0679
1048.00,0.0656
1045.00,0.0564
1042.00,0.0454
1039.00,0.0386
1036.00,0.0378
1033.00,0.0402
1030.00,0.0493
1027.00,0.0605
1024.00,0.0562
1021.00,0.0446
1018.00,0.0367
1015.00,0.0316
1012.00,0.0283
1009.00,0.0288
1006.00,0.0332
1003.00,0.0365
1000.00,0.0350
997.00,0.0321
994.00,0.0298
991.00,0.0269
988.00,0.0238
985.00,0.0217
982.00,0.0205
979.00,0.0201
976.00,0.0199
973.00,0.0197
970.00,0.0193
967.00,0.0191
964.00,0.0197
961.00,0.0199
958.00,0.0181
955.00,0.0166
952.00,0.0159
949.00,0.0165
946.00,0.0169
943.00,0.0175
940.00,0.0195
937.00,0.0216
934.00,0.0235
931.00,0.0236
928.00,0.0221
925.00,0.0224
922.00,0.0239
919.00,0.0222
916.00,0.0190
913.00,0.0174
910.00,0.0169
907.00,0.0173
904.00,0.0193
901.00,0.0237
898.00,0.0254
895.00,0.0228
892.00,0.0237
889.00,0.0249
886.00,0.0200
883.00,0.0182
880.00,0.0192
877.00,0.0238
874.00,0.0333
871.00,0.0435
868.00,0.0439
865.00,0.0376
862.00,0.0317
859.00,0.0285
856.00,0.0319
853.00,0.0385
850.00,0.0451
847.00,0.0452
844.00,0.0398
841.00,0.0367
838.00,0.0386
835.00,0.0441
832.00,0.0444
829.00,0.0372
826.00,0.0294
823.00,0.0334
820.00,0.0480
817.00,0.0537
814.00,0.0497
811.00,0.0321
808.00,0.0241
805.00,0.0207
802.00,0.0192
799.00,0.0184
796.00,0.0180
793.00,0.0179
790.00,0.0177
787.00,0.0177
784.00,0.0179
781.00,0.0184
778.00,0.0197
775.00,0.0231
772.00,0.0228
769.00,0.0210
766.00,0.0210
763.00,0.0224
760.00,0.0247
757.00,0.0254
754.00,0.0253
751.00,0.0259
748.00,0.0270
745.00,0.0284
742.00,0.0306
739.00,0.0352
736.00,0.0438
733.00,0.0459
730.00,0.0439
727.00,0.0417
724.00,0.0349
721.00,0.0314
718.00,0.0324
715.00,0.0348
712.00,0.0338
709.00,0.0320
706.00,0.0315
703.00,0.0327
700.00,0.0348
697.00,0.0360
694.00,0.0353
691.00,0.0367
688.00,0.0401
685.00,0.0396
682.00,0.0386
679.00,0.0399
676.00,0.0430
673.00,0.0472
670.00,0.0495
667.00,0.0502
664.00,0.0517
661.00,0.0544
658.00,0.0546
655.00,0.0543
652.00,0.0552
649.00,0.0558
646.00,0.0552
643.00,0.0541
640.00,0.0525
637.00,0.0509
634.00,0.0498
631.00,0.0486
628.00,0.0484
625.00,0.0493
622.00,0.0510
619.00,0.0521
616.00,0.0501
613.00,0.0475
610.00,0.0475
607.00,0.0519
604.00,0.0578
601.00,0.0608
598.00,0.0609
595.00,0.0613
592.00,0.0616
589.00,0.0612
586.00,0.0618
583.00,0.0641
580.00,0.0674
577.00,0.0732
574.00,0.0730
571.00,0.0682
568.00,0.0658
565.00,0.0660
562.00,0.0682
559.00,0.0694
556.00,0.0661
553.00,0.0634
550.00,0.0647
547.00,0.0678
544.00,0.0675
541.00,0.0634
538.00,0.0610
535.00,0.0618
532.00,0.0649
529.00,0.0645
526.00,0.0610
523.00,0.0568
520.00,0.0554
517.00,0.0552
514.00,0.0539
511.00,0.0534
508.00,0.0541
505.00,0.0548
502.00,0.0540
499.00,0.0532
496.00,0.0533
493.00,0.0548
490.00,0.0545
487.00,0.0533
484.00,0.0531
481.00,0.0526
478.00,0.0518
475.00,0.0511
472.00,0.0512
469.00,0.0519
466.00,0.0519
463.00,0.0509
460.00,0.0515
457.00,0.0518
454.00,0.0503
451.00,0.0502
448.00,0.0495
445.00,0.0488
442.00,0.0482
439.00,0.0483
436.00,0.0481
433.00,0.0479
430.00,0.0459
427.00,0.0456
424.00,0.0456
421.00,0.0447
418.00,0.0451
415.00,0.0457
412.00,0.0483
409.00,0.0506
406.00,0.0471
403.00,0.0442
400.00,0.0460