File: FTIR/Olivia/2025_06_06_Standard_post_Polystyrene_scan3.csv
Created as New Dataset,Sample 631 By YargerLab Date Friday, June 06 2025
cm-1,A
4000.00,0.0018
3997.00,0.0018
3994.00,0.0017
3991.00,0.0017
3988.00,0.0017
3985.00,0.0017
3982.00,0.0017
3979.00,0.0017
3976.00,0.0017
3973.00,0.0017
3970.00,0.0017
3967.00,0.0017
3964.00,0.0016
3961.00,0.0016
3958.00,0.0017
3955.00,0.0017
3952.00,0.0017
3949.00,0.0017
3946.00,0.0017
3943.00,0.0017
3940.00,0.0017
3937.00,0.0017
3934.00,0.0018
3931.00,0.0017
3928.00,0.0017
3925.00,0.0017
3922.00,0.0017
3919.00,0.0017
3916.00,0.0017
3913.00,0.0017
3910.00,0.0017
3907.00,0.0017
3904.00,0.0017
3901.00,0.0018
3898.00,0.0017
3895.00,0.0017
3892.00,0.0017
3889.00,0.0017
3886.00,0.0017
3883.00,0.0018
3880.00,0.0017
3877.00,0.0017
3874.00,0.0017
3871.00,0.0017
3868.00,0.0017
3865.00,0.0017
3862.00,0.0017
3859.00,0.0017
3856.00,0.0019
3853.00,0.0018
3850.00,0.0018
3847.00,0.0017
3844.00,0.0018
3841.00,0.0017
3838.00,0.0017
3835.00,0.0017
3832.00,0.0017
3829.00,0.0017
3826.00,0.0017
3823.00,0.0018
3820.00,0.0017
3817.00,0.0017
3814.00,0.0018
3811.00,0.0018
3808.00,0.0018
3805.00,0.0018
3802.00,0.0018
3799.00,0.0018
3796.00,0.0017
3793.00,0.0017
3790.00,0.0017
3787.00,0.0018
3784.00,0.0017
3781.00,0.0017
3778.00,0.0017
3775.00,0.0017
3772.00,0.0017
3769.00,0.0017
3766.00,0.0018
3763.00,0.0018
3760.00,0.0018
3757.00,0.0018
3754.00,0.0018
3751.00,0.0018
3748.00,0.0018
3745.00,0.0017
3742.00,0.0018
3739.00,0.0017
3736.00,0.0017
3733.00,0.0017
3730.00,0.0017
3727.00,0.0016
3724.00,0.0016
3721.00,0.0016
3718.00,0.0016
3715.00,0.0017
3712.00,0.0017
3709.00,0.0017
3706.00,0.0017
3703.00,0.0016
3700.00,0.0016
3697.00,0.0016
3694.00,0.0016
3691.00,0.0017
3688.00,0.0016
3685.00,0.0015
3682.00,0.0015
3679.00,0.0015
3676.00,0.0015
3673.00,0.0015
3670.00,0.0014
3667.00,0.0014
3664.00,0.0013
3661.00,0.0013
3658.00,0.0014
3655.00,0.0014
3652.00,0.0015
3649.00,0.0015
3646.00,0.0015
3643.00,0.0015
3640.00,0.0014
3637.00,0.0014
3634.00,0.0015
3631.00,0.0016
3628.00,0.0016
3625.00,0.0016
3622.00,0.0016
3619.00,0.0016
3616.00,0.0016
3613.00,0.0016
3610.00,0.0016
3607.00,0.0015
3604.00,0.0016
3601.00,0.0016
3598.00,0.0016
3595.00,0.0015
3592.00,0.0016
3589.00,0.0017
3586.00,0.0017
3583.00,0.0016
3580.00,0.0016
3577.00,0.0015
3574.00,0.0015
3571.00,0.0016
3568.00,0.0017
3565.00,0.0017
3562.00,0.0016
3559.00,0.0016
3556.00,0.0017
3553.00,0.0017
3550.00,0.0017
3547.00,0.0017
3544.00,0.0017
3541.00,0.0018
3538.00,0.0018
3535.00,0.0017
3532.00,0.0018
3529.00,0.0018
3526.00,0.0019
3523.00,0.0019
3520.00,0.0019
3517.00,0.0019
3514.00,0.0019
3511.00,0.0019
3508.00,0.0019
3505.00,0.0019
3502.00,0.0019
3499.00,0.0020
3496.00,0.0019
3493.00,0.0020
3490.00,0.0020
3487.00,0.0020
3484.00,0.0020
3481.00,0.0020
3478.00,0.0020
3475.00,0.0020
3472.00,0.0021
3469.00,0.0021
3466.00,0.0021
3463.00,0.0021
3460.00,0.0021
3457.00,0.0021
3454.00,0.0021
3451.00,0.0021
3448.00,0.0021
3445.00,0.0022
3442.00,0.0022
3439.00,0.0022
3436.00,0.0021
3433.00,0.0021
3430.00,0.0021
3427.00,0.0021
3424.00,0.0021
3421.00,0.0021
3418.00,0.0021
3415.00,0.0021
3412.00,0.0021
3409.00,0.0021
3406.00,0.0021
3403.00,0.0021
3400.00,0.0021
3397.00,0.0021
3394.00,0.0021
3391.00,0.0021
3388.00,0.0021
3385.00,0.0021
3382.00,0.0021
3379.00,0.0022
3376.00,0.0021
3373.00,0.0021
3370.00,0.0021
3367.00,0.0021
3364.00,0.0021
3361.00,0.0021
3358.00,0.0021
3355.00,0.0021
3352.00,0.0021
3349.00,0.0021
3346.00,0.0021
3343.00,0.0021
3340.00,0.0022
3337.00,0.0021
3334.00,0.0021
3331.00,0.0021
3328.00,0.0021
3325.00,0.0021
3322.00,0.0021
3319.00,0.0021
3316.00,0.0021
3313.00,0.0021
3310.00,0.0021
3307.00,0.0021
3304.00,0.0021
3301.00,0.0021
3298.00,0.0021
3295.00,0.0021
3292.00,0.0021
3289.00,0.0021
3286.00,0.0021
3283.00,0.0021
3280.00,0.0021
3277.00,0.0021
3274.00,0.0021
3271.00,0.0021
3268.00,0.0021
3265.00,0.0021
3262.00,0.0020
3259.00,0.0020
3256.00,0.0020
3253.00,0.0020
3250.00,0.0020
3247.00,0.0020
3244.00,0.0020
3241.00,0.0019
3238.00,0.0019
3235.00,0.0019
3232.00,0.0020
3229.00,0.0019
3226.00,0.0019
3223.00,0.0020
3220.00,0.0020
3217.00,0.0020
3214.00,0.0020
3211.00,0.0020
3208.00,0.0020
3205.00,0.0021
3202.00,0.0021
3199.00,0.0021
3196.00,0.0021
3193.00,0.0020
3190.00,0.0020
3187.00,0.0020
3184.00,0.0020
3181.00,0.0020
3178.00,0.0019
3175.00,0.0019
3172.00,0.0020
3169.00,0.0021
3166.00,0.0022
3163.00,0.0022
3160.00,0.0021
3157.00,0.0021
3154.00,0.0020
3151.00,0.0020
3148.00,0.0020
3145.00,0.0019
3142.00,0.0020
3139.00,0.0020
3136.00,0.0020
3133.00,0.0020
3130.00,0.0020
3127.00,0.0021
3124.00,0.0022
3121.00,0.0022
3118.00,0.0024
3115.00,0.0027
3112.00,0.0032
3109.00,0.0039
3106.00,0.0046
3103.00,0.0049
3100.00,0.0048
3097.00,0.0046
3094.00,0.0049
3091.00,0.0061
3088.00,0.0082
3085.00,0.0106
3082.00,0.0116
3079.00,0.0105
3076.00,0.0090
3073.00,0.0086
3070.00,0.0093
3067.00,0.0112
3064.00,0.0138
3061.00,0.0158
3058.00,0.0155
3055.00,0.0131
3052.00,0.0107
3049.00,0.0090
3046.00,0.0082
3043.00,0.0085
3040.00,0.0097
3037.00,0.0119
3034.00,0.0160
3031.00,0.0220
3028.00,0.0284
3025.00,0.0307
3022.00,0.0262
3019.00,0.0185
3016.00,0.0124
3013.00,0.0090
3010.00,0.0074
3007.00,0.0071
3004.00,0.0076
3001.00,0.0076
2998.00,0.0062
2995.00,0.0043
2992.00,0.0031
2989.00,0.0025
2986.00,0.0021
2983.00,0.0011
2980.00,0.0009
2977.00,0.0016
2974.00,0.0018
2971.00,0.0020
2968.00,0.0027
2965.00,0.0034
2962.00,0.0042
2959.00,0.0052
2956.00,0.0063
2953.00,0.0077
2950.00,0.0093
2947.00,0.0114
2944.00,0.0139
2941.00,0.0168
2938.00,0.0202
2935.00,0.0240
2932.00,0.0279
2929.00,0.0315
2926.00,0.0342
2923.00,0.0355
2920.00,0.0353
2917.00,0.0339
2914.00,0.0318
2911.00,0.0292
2908.00,0.0265
2905.00,0.0237
2902.00,0.0208
2899.00,0.0181
2896.00,0.0158
2893.00,0.0140
2890.00,0.0126
2887.00,0.0116
2884.00,0.0107
2881.00,0.0100
2878.00,0.0094
2875.00,0.0088
2872.00,0.0083
2869.00,0.0083
2866.00,0.0087
2863.00,0.0096
2860.00,0.0110
2857.00,0.0127
2854.00,0.0143
2851.00,0.0154
2848.00,0.0155
2845.00,0.0143
2842.00,0.0119
2839.00,0.0092
2836.00,0.0070
2833.00,0.0055
2830.00,0.0047
2827.00,0.0043
2824.00,0.0041
2821.00,0.0039
2818.00,0.0037
2815.00,0.0037
2812.00,0.0036
2809.00,0.0036
2806.00,0.0035
2803.00,0.0034
2800.00,0.0033
2797.00,0.0032
2794.00,0.0032
2791.00,0.0031
2788.00,0.0031
2785.00,0.0031
2782.00,0.0031
2779.00,0.0030
2776.00,0.0030
2773.00,0.0029
2770.00,0.0029
2767.00,0.0028
2764.00,0.0028
2761.00,0.0028
2758.00,0.0028
2755.00,0.0028
2752.00,0.0027
2749.00,0.0027
2746.00,0.0027
2743.00,0.0027
2740.00,0.0027
2737.00,0.0027
2734.00,0.0027
2731.00,0.0028
2728.00,0.0028
2725.00,0.0028
2722.00,0.0027
2719.00,0.0028
2716.00,0.0028
2713.00,0.0027
2710.00,0.0027
2707.00,0.0028
2704.00,0.0028
2701.00,0.0027
2698.00,0.0027
2695.00,0.0027
2692.00,0.0027
2689.00,0.0027
2686.00,0.0028
2683.00,0.0027
2680.00,0.0027
2677.00,0.0027
2674.00,0.0027
2671.00,0.0027
2668.00,0.0027
2665.00,0.0028
2662.00,0.0030
2659.00,0.0031
2656.00,0.0031
2653.00,0.0031
2650.00,0.0032
2647.00,0.0032
2644.00,0.0032
2641.00,0.0032
2638.00,0.0032
2635.00,0.0033
2632.00,0.0033
2629.00,0.0032
2626.00,0.0031
2623.00,0.0030
2620.00,0.0030
2617.00,0.0030
2614.00,0.0029
2611.00,0.0029
2608.00,0.0030
2605.00,0.0030
2602.00,0.0029
2599.00,0.0029
2596.00,0.0028
2593.00,0.0027
2590.00,0.0027
2587.00,0.0027
2584.00,0.0027
2581.00,0.0027
2578.00,0.0027
2575.00,0.0026
2572.00,0.0025
2569.00,0.0025
2566.00,0.0024
2563.00,0.0024
2560.00,0.0024
2557.00,0.0025
2554.00,0.0024
2551.00,0.0023
2548.00,0.0023
2545.00,0.0024
2542.00,0.0024
2539.00,0.0024
2536.00,0.0023
2533.00,0.0023
2530.00,0.0023
2527.00,0.0023
2524.00,0.0024
2521.00,0.0023
2518.00,0.0023
2515.00,0.0022
2512.00,0.0021
2509.00,0.0022
2506.00,0.0022
2503.00,0.0022
2500.00,0.0022
2497.00,0.0022
2494.00,0.0022
2491.00,0.0022
2488.00,0.0022
2485.00,0.0022
2482.00,0.0022
2479.00,0.0021
2476.00,0.0021
2473.00,0.0021
2470.00,0.0020
2467.00,0.0020
2464.00,0.0020
2461.00,0.0021
2458.00,0.0021
2455.00,0.0022
2452.00,0.0022
2449.00,0.0021
2446.00,0.0021
2443.00,0.0020
2440.00,0.0019
2437.00,0.0019
2434.00,0.0019
2431.00,0.0018
2428.00,0.0018
2425.00,0.0018
2422.00,0.0018
2419.00,0.0018
2416.00,0.0018
2413.00,0.0018
2410.00,0.0017
2407.00,0.0016
2404.00,0.0016
2401.00,0.0016
2398.00,0.0016
2395.00,0.0016
2392.00,0.0016
2389.00,0.0016
2386.00,0.0016
2383.00,0.0016
2380.00,0.0016
2377.00,0.0017
2374.00,0.0017
2371.00,0.0016
2368.00,0.0017
2365.00,0.0017
2362.00,0.0019
2359.00,0.0019
2356.00,0.0018
2353.00,0.0017
2350.00,0.0014
2347.00,0.0016
2344.00,0.0026
2341.00,0.0023
2338.00,0.0023
2335.00,0.0023
2332.00,0.0022
2329.00,0.0024
2326.00,0.0033
2323.00,0.0033
2320.00,0.0028
2317.00,0.0027
2314.00,0.0027
2311.00,0.0027
2308.00,0.0027
2305.00,0.0025
2302.00,0.0025
2299.00,0.0026
2296.00,0.0027
2293.00,0.0029
2290.00,0.0031
2287.00,0.0032
2284.00,0.0029
2281.00,0.0027
2278.00,0.0026
2275.00,0.0025
2272.00,0.0025
2269.00,0.0025
2266.00,0.0023
2263.00,0.0023
2260.00,0.0024
2257.00,0.0023
2254.00,0.0020
2251.00,0.0022
2248.00,0.0022
2245.00,0.0022
2242.00,0.0022
2239.00,0.0022
2236.00,0.0021
2233.00,0.0021
2230.00,0.0021
2227.00,0.0020
2224.00,0.0018
2221.00,0.0018
2218.00,0.0018
2215.00,0.0017
2212.00,0.0017
2209.00,0.0016
2206.00,0.0016
2203.00,0.0017
2200.00,0.0018
2197.00,0.0021
2194.00,0.0021
2191.00,0.0021
2188.00,0.0021
2185.00,0.0020
2182.00,0.0015
2179.00,0.0014
2176.00,0.0011
2173.00,0.0014
2170.00,0.0021
2167.00,0.0026
2164.00,0.0031
2161.00,0.0016
2158.00,-0.0016
2155.00,-0.0010
2152.00,-0.0004
2149.00,-0.0004
2146.00,-0.0005
2143.00,-0.0005
2140.00,-0.0002
2137.00,-0.0005
2134.00,-0.0010
2131.00,-0.0004
2128.00,0.0003
2125.00,0.0005
2122.00,0.0008
2119.00,0.0011
2116.00,0.0013
2113.00,0.0014
2110.00,0.0015
2107.00,0.0014
2104.00,0.0012
2101.00,0.0013
2098.00,0.0011
2095.00,0.0008
2092.00,0.0011
2089.00,0.0014
2086.00,0.0016
2083.00,0.0016
2080.00,0.0018
2077.00,0.0017
2074.00,0.0017
2071.00,0.0014
2068.00,0.0013
2065.00,0.0012
2062.00,0.0011
2059.00,0.0011
2056.00,0.0012
2053.00,0.0019
2050.00,0.0021
2047.00,0.0014
2044.00,0.0013
2041.00,0.0011
2038.00,0.0013
2035.00,0.0014
2032.00,0.0008
2029.00,0.0008
2026.00,0.0004
2023.00,0.0005
2020.00,0.0007
2017.00,0.0003
2014.00,0.0004
2011.00,0.0008
2008.00,0.0000
2005.00,-0.0001
2002.00,0.0005
1999.00,0.0009
1996.00,0.0012
1993.00,0.0015
1990.00,0.0020
1987.00,0.0022
1984.00,0.0024
1981.00,0.0030
1978.00,0.0017
1975.00,0.0008
1972.00,0.0011
1969.00,0.0017
1966.00,0.0021
1963.00,0.0023
1960.00,0.0022
1957.00,0.0026
1954.00,0.0033
1951.00,0.0038
1948.00,0.0042
1945.00,0.0047
1942.00,0.0048
1939.00,0.0044
1936.00,0.0037
1933.00,0.0029
1930.00,0.0024
1927.00,0.0021
1924.00,0.0017
1921.00,0.0018
1918.00,0.0016
1915.00,0.0014
1912.00,0.0014
1909.00,0.0015
1906.00,0.0015
1903.00,0.0017
1900.00,0.0020
1897.00,0.0022
1894.00,0.0026
1891.00,0.0030
1888.00,0.0033
1885.00,0.0035
1882.00,0.0038
1879.00,0.0041
1876.00,0.0043
1873.00,0.0046
1870.00,0.0047
1867.00,0.0045
1864.00,0.0041
1861.00,0.0036
1858.00,0.0029
1855.00,0.0024
1852.00,0.0021
1849.00,0.0019
1846.00,0.0018
1843.00,0.0017
1840.00,0.0017
1837.00,0.0019
1834.00,0.0020
1831.00,0.0021
1828.00,0.0024
1825.00,0.0027
1822.00,0.0031
1819.00,0.0032
1816.00,0.0036
1813.00,0.0041
1810.00,0.0046
1807.00,0.0050
1804.00,0.0054
1801.00,0.0054
1798.00,0.0051
1795.00,0.0046
1792.00,0.0039
1789.00,0.0034
1786.00,0.0031
1783.00,0.0030
1780.00,0.0030
1777.00,0.0031
1774.00,0.0032
1771.00,0.0032
1768.00,0.0033
1765.00,0.0035
1762.00,0.0038
1759.00,0.0041
1756.00,0.0047
1753.00,0.0051
1750.00,0.0056
1747.00,0.0058
1744.00,0.0059
1741.00,0.0059
1738.00,0.0057
1735.00,0.0056
1732.00,0.0052
1729.00,0.0049
1726.00,0.0048
1723.00,0.0047
1720.00,0.0046
1717.00,0.0046
1714.00,0.0047
1711.00,0.0049
1708.00,0.0051
1705.00,0.0052
1702.00,0.0052
1699.00,0.0052
1696.00,0.0047
1693.00,0.0046
1690.00,0.0047
1687.00,0.0048
1684.00,0.0049
1681.00,0.0050
1678.00,0.0050
1675.00,0.0050
1672.00,0.0049
1669.00,0.0049
1666.00,0.0049
1663.00,0.0047
1660.00,0.0045
1657.00,0.0044
1654.00,0.0043
1651.00,0.0041
1648.00,0.0038
1645.00,0.0036
1642.00,0.0036
1639.00,0.0036
1636.00,0.0035
1633.00,0.0036
1630.00,0.0038
1627.00,0.0040
1624.00,0.0042
1621.00,0.0044
1618.00,0.0048
1615.00,0.0055
1612.00,0.0068
1609.00,0.0105
1606.00,0.0187
1603.00,0.0289
1600.00,0.0307
1597.00,0.0218
1594.00,0.0140
1591.00,0.0103
1588.00,0.0096
1585.00,0.0123
1582.00,0.0127
1579.00,0.0087
1576.00,0.0058
1573.00,0.0046
1570.00,0.0040
1567.00,0.0037
1564.00,0.0035
1561.00,0.0035
1558.00,0.0036
1555.00,0.0038
1552.00,0.0042
1549.00,0.0047
1546.00,0.0052
1543.00,0.0054
1540.00,0.0055
1537.00,0.0057
1534.00,0.0055
1531.00,0.0051
1528.00,0.0045
1525.00,0.0041
1522.00,0.0039
1519.00,0.0039
1516.00,0.0040
1513.00,0.0044
1510.00,0.0048
1507.00,0.0056
1504.00,0.0076
1501.00,0.0113
1498.00,0.0245
1495.00,0.0621
1492.00,0.0785
1489.00,0.0469
1486.00,0.0247
1483.00,0.0153
1480.00,0.0108
1477.00,0.0089
1474.00,0.0079
1471.00,0.0077
1468.00,0.0080
1465.00,0.0088
1462.00,0.0108
1459.00,0.0163
1456.00,0.0460
1453.00,0.0767
1450.00,0.0743
1447.00,0.0560
1444.00,0.0437
1441.00,0.0338
1438.00,0.0265
1435.00,0.0191
1432.00,0.0143
1429.00,0.0109
1426.00,0.0090
1423.00,0.0079
1420.00,0.0074
1417.00,0.0070
1414.00,0.0066
1411.00,0.0063
1408.00,0.0061
1405.00,0.0060
1402.00,0.0058
1399.00,0.0058
1396.00,0.0060
1393.00,0.0069
1390.00,0.0082
1387.00,0.0100
1384.00,0.0116
1381.00,0.0130
1378.00,0.0144
1375.00,0.0158
1372.00,0.0165
1369.00,0.0165
1366.00,0.0163
1363.00,0.0161
1360.00,0.0156
1357.00,0.0149
1354.00,0.0146
1351.00,0.0144
1348.00,0.0142
1345.00,0.0136
1342.00,0.0129
1339.00,0.0123
1336.00,0.0126
1333.00,0.0136
1330.00,0.0146
1327.00,0.0147
1324.00,0.0142
1321.00,0.0138
1318.00,0.0139
1315.00,0.0145
1312.00,0.0149
1309.00,0.0146
1306.00,0.0139
1303.00,0.0130
1300.00,0.0122
1297.00,0.0117
1294.00,0.0114
1291.00,0.0111
1288.00,0.0108
1285.00,0.0107
1282.00,0.0107
1279.00,0.0103
1276.00,0.0096
1273.00,0.0087
1270.00,0.0080
1267.00,0.0075
1264.00,0.0072
1261.00,0.0070
1258.00,0.0069
1255.00,0.0069
1252.00,0.0071
1249.00,0.0073
1246.00,0.0075
1243.00,0.0076
1240.00,0.0076
1237.00,0.0076
1234.00,0.0076
1231.00,0.0079
1228.00,0.0083
1225.00,0.0087
1222.00,0.0089
1219.00,0.0090
1216.00,0.0092
1213.00,0.0093
1210.00,0.0096
1207.00,0.0100
1204.00,0.0107
1201.00,0.0116
1198.00,0.0123
1195.00,0.0126
1192.00,0.0127
1189.00,0.0130
1186.00,0.0142
1183.00,0.0163
1180.00,0.0164
1177.00,0.0132
1174.00,0.0105
1171.00,0.0093
1168.00,0.0090
1165.00,0.0090
1162.00,0.0098
1159.00,0.0122
1156.00,0.0156
1153.00,0.0154
1150.00,0.0117
1147.00,0.0090
1144.00,0.0077
1141.00,0.0070
1138.00,0.0066
1135.00,0.0065
1132.00,0.0065
1129.00,0.0066
1126.00,0.0069
1123.00,0.0074
1120.00,0.0082
1117.00,0.0091
1114.00,0.0097
1111.00,0.0099
1108.00,0.0098
1105.00,0.0097
1102.00,0.0099
1099.00,0.0101
1096.00,0.0102
1093.00,0.0106
1090.00,0.0111
1087.00,0.0118
1084.00,0.0130
1081.00,0.0146
1078.00,0.0163
1075.00,0.0186
1072.00,0.0215
1069.00,0.0232
1066.00,0.0222
1063.00,0.0195
1060.00,0.0171
1057.00,0.0154
1054.00,0.0141
1051.00,0.0131
1048.00,0.0124
1045.00,0.0120
1042.00,0.0120
1039.00,0.0132
1036.00,0.0178
1033.00,0.0280
1030.00,0.0386
1027.00,0.0407
1024.00,0.0331
1021.00,0.0261
1018.00,0.0218
1015.00,0.0188
1012.00,0.0170
1009.00,0.0162
1006.00,0.0168
1003.00,0.0176
1000.00,0.0154
997.00,0.0131
994.00,0.0124
991.00,0.0126
988.00,0.0133
985.00,0.0144
982.00,0.0155
979.00,0.0157
976.00,0.0146
973.00,0.0138
970.00,0.0144
967.00,0.0159
964.00,0.0167
961.00,0.0153
958.00,0.0130
955.00,0.0116
952.00,0.0113
949.00,0.0117
946.00,0.0126
943.00,0.0130
940.00,0.0125
937.00,0.0114
934.00,0.0102
931.00,0.0095
928.00,0.0093
925.00,0.0097
922.00,0.0104
919.00,0.0117
916.00,0.0144
913.00,0.0189
910.00,0.0244
907.00,0.0279
904.00,0.0261
901.00,0.0204
898.00,0.0148
895.00,0.0115
892.00,0.0099
889.00,0.0090
886.00,0.0083
883.00,0.0078
880.00,0.0074
877.00,0.0073
874.00,0.0070
871.00,0.0067
868.00,0.0065
865.00,0.0066
862.00,0.0067
859.00,0.0067
856.00,0.0069
853.00,0.0077
850.00,0.0093
847.00,0.0117
844.00,0.0137
841.00,0.0143
838.00,0.0128
835.00,0.0102
832.00,0.0079
829.00,0.0068
826.00,0.0063
823.00,0.0060
820.00,0.0060
817.00,0.0062
814.00,0.0063
811.00,0.0064
808.00,0.0066
805.00,0.0069
802.00,0.0073
799.00,0.0081
796.00,0.0092
793.00,0.0109
790.00,0.0131
787.00,0.0157
784.00,0.0190
781.00,0.0233
778.00,0.0297
775.00,0.0388
772.00,0.0509
769.00,0.0654
766.00,0.0801
763.00,0.0942
760.00,0.1090
757.00,0.1203
754.00,0.1229
751.00,0.1216
748.00,0.1207
745.00,0.1098
742.00,0.0858
739.00,0.0625
736.00,0.0444
733.00,0.0294
730.00,0.0197
727.00,0.0153
724.00,0.0138
721.00,0.0136
718.00,0.0145
715.00,0.0175
712.00,0.0261
709.00,0.0484
706.00,0.0944
703.00,0.1684
700.00,0.2704
697.00,0.3825
694.00,0.3987
691.00,0.2693
688.00,0.1635
685.00,0.1119
682.00,0.0850
679.00,0.0686
676.00,0.0584
673.00,0.0518
670.00,0.0468
667.00,0.0410
664.00,0.0367
661.00,0.0324
658.00,0.0283
655.00,0.0251
652.00,0.0222
649.00,0.0203
646.00,0.0188
643.00,0.0180
640.00,0.0179
637.00,0.0189
634.00,0.0205
631.00,0.0219
628.00,0.0230
625.00,0.0239
622.00,0.0251
619.00,0.0247
616.00,0.0222
613.00,0.0210
610.00,0.0202
607.00,0.0195
604.00,0.0196
601.00,0.0200
598.00,0.0204
595.00,0.0211
592.00,0.0222
589.00,0.0234
586.00,0.0245
583.00,0.0262
580.00,0.0287
577.00,0.0327
574.00,0.0375
571.00,0.0428
568.00,0.0475
565.00,0.0524
562.00,0.0569
559.00,0.0616
556.00,0.0667
553.00,0.0724
550.00,0.0794
547.00,0.0883
544.00,0.1003
541.00,0.1120
538.00,0.1167
535.00,0.1095
532.00,0.0932
529.00,0.0757
526.00,0.0609
523.00,0.0503
520.00,0.0433
517.00,0.0385
514.00,0.0351
511.00,0.0319
508.00,0.0288
505.00,0.0264
502.00,0.0244
499.00,0.0223
496.00,0.0209
493.00,0.0198
490.00,0.0190
487.00,0.0180
484.00,0.0171
481.00,0.0167
478.00,0.0160
475.00,0.0154
472.00,0.0154
469.00,0.0156
466.00,0.0150
463.00,0.0137
460.00,0.0143
457.00,0.0146
454.00,0.0134
451.00,0.0127
448.00,0.0124
445.00,0.0128
442.00,0.0119
439.00,0.0119
436.00,0.0130
433.00,0.0127
430.00,0.0124
427.00,0.0110
424.00,0.0115
421.00,0.0113
418.00,0.0101
415.00,0.0090
412.00,0.0116
409.00,0.0142
406.00,0.0125
403.00,0.0103
400.00,0.0095