File: FTIR/Olivia/2025_06_18_CBD_SorbicAcid_Cocrystal_Slurry_Vial_scan2.csv
Created as New Dataset,Sample 713 By YargerLab Date Wednesday, June 18 2025
cm-1,A
4000.00,0.0011
3997.00,0.0011
3994.00,0.0010
3991.00,0.0010
3988.00,0.0010
3985.00,0.0011
3982.00,0.0011
3979.00,0.0011
3976.00,0.0011
3973.00,0.0011
3970.00,0.0011
3967.00,0.0011
3964.00,0.0010
3961.00,0.0011
3958.00,0.0011
3955.00,0.0011
3952.00,0.0010
3949.00,0.0010
3946.00,0.0010
3943.00,0.0010
3940.00,0.0010
3937.00,0.0010
3934.00,0.0010
3931.00,0.0010
3928.00,0.0010
3925.00,0.0010
3922.00,0.0010
3919.00,0.0009
3916.00,0.0011
3913.00,0.0011
3910.00,0.0010
3907.00,0.0010
3904.00,0.0010
3901.00,0.0010
3898.00,0.0010
3895.00,0.0009
3892.00,0.0010
3889.00,0.0010
3886.00,0.0010
3883.00,0.0010
3880.00,0.0009
3877.00,0.0010
3874.00,0.0009
3871.00,0.0009
3868.00,0.0009
3865.00,0.0009
3862.00,0.0010
3859.00,0.0009
3856.00,0.0010
3853.00,0.0009
3850.00,0.0009
3847.00,0.0009
3844.00,0.0009
3841.00,0.0009
3838.00,0.0009
3835.00,0.0009
3832.00,0.0010
3829.00,0.0010
3826.00,0.0009
3823.00,0.0009
3820.00,0.0009
3817.00,0.0009
3814.00,0.0009
3811.00,0.0009
3808.00,0.0010
3805.00,0.0009
3802.00,0.0009
3799.00,0.0009
3796.00,0.0010
3793.00,0.0010
3790.00,0.0010
3787.00,0.0010
3784.00,0.0010
3781.00,0.0010
3778.00,0.0010
3775.00,0.0010
3772.00,0.0010
3769.00,0.0009
3766.00,0.0010
3763.00,0.0010
3760.00,0.0009
3757.00,0.0009
3754.00,0.0009
3751.00,0.0009
3748.00,0.0009
3745.00,0.0009
3742.00,0.0008
3739.00,0.0008
3736.00,0.0008
3733.00,0.0008
3730.00,0.0008
3727.00,0.0008
3724.00,0.0007
3721.00,0.0008
3718.00,0.0009
3715.00,0.0008
3712.00,0.0007
3709.00,0.0008
3706.00,0.0008
3703.00,0.0008
3700.00,0.0008
3697.00,0.0008
3694.00,0.0008
3691.00,0.0008
3688.00,0.0007
3685.00,0.0006
3682.00,0.0006
3679.00,0.0006
3676.00,0.0006
3673.00,0.0007
3670.00,0.0006
3667.00,0.0006
3664.00,0.0006
3661.00,0.0006
3658.00,0.0006
3655.00,0.0006
3652.00,0.0005
3649.00,0.0005
3646.00,0.0006
3643.00,0.0005
3640.00,0.0005
3637.00,0.0005
3634.00,0.0006
3631.00,0.0006
3628.00,0.0006
3625.00,0.0006
3622.00,0.0006
3619.00,0.0007
3616.00,0.0007
3613.00,0.0007
3610.00,0.0007
3607.00,0.0008
3604.00,0.0008
3601.00,0.0008
3598.00,0.0008
3595.00,0.0007
3592.00,0.0008
3589.00,0.0008
3586.00,0.0008
3583.00,0.0009
3580.00,0.0009
3577.00,0.0009
3574.00,0.0009
3571.00,0.0009
3568.00,0.0009
3565.00,0.0009
3562.00,0.0010
3559.00,0.0010
3556.00,0.0011
3553.00,0.0011
3550.00,0.0012
3547.00,0.0012
3544.00,0.0013
3541.00,0.0013
3538.00,0.0014
3535.00,0.0015
3532.00,0.0016
3529.00,0.0017
3526.00,0.0018
3523.00,0.0018
3520.00,0.0020
3517.00,0.0021
3514.00,0.0023
3511.00,0.0024
3508.00,0.0025
3505.00,0.0027
3502.00,0.0030
3499.00,0.0032
3496.00,0.0035
3493.00,0.0038
3490.00,0.0042
3487.00,0.0047
3484.00,0.0051
3481.00,0.0055
3478.00,0.0061
3475.00,0.0067
3472.00,0.0074
3469.00,0.0084
3466.00,0.0097
3463.00,0.0116
3460.00,0.0142
3457.00,0.0176
3454.00,0.0216
3451.00,0.0250
3448.00,0.0265
3445.00,0.0256
3442.00,0.0231
3439.00,0.0201
3436.00,0.0171
3433.00,0.0145
3430.00,0.0123
3427.00,0.0106
3424.00,0.0094
3421.00,0.0083
3418.00,0.0076
3415.00,0.0071
3412.00,0.0067
3409.00,0.0063
3406.00,0.0061
3403.00,0.0060
3400.00,0.0058
3397.00,0.0057
3394.00,0.0057
3391.00,0.0056
3388.00,0.0055
3385.00,0.0055
3382.00,0.0055
3379.00,0.0055
3376.00,0.0054
3373.00,0.0055
3370.00,0.0055
3367.00,0.0055
3364.00,0.0055
3361.00,0.0055
3358.00,0.0055
3355.00,0.0056
3352.00,0.0056
3349.00,0.0057
3346.00,0.0058
3343.00,0.0058
3340.00,0.0059
3337.00,0.0060
3334.00,0.0061
3331.00,0.0061
3328.00,0.0062
3325.00,0.0064
3322.00,0.0065
3319.00,0.0065
3316.00,0.0066
3313.00,0.0067
3310.00,0.0069
3307.00,0.0070
3304.00,0.0071
3301.00,0.0072
3298.00,0.0074
3295.00,0.0075
3292.00,0.0077
3289.00,0.0079
3286.00,0.0080
3283.00,0.0082
3280.00,0.0084
3277.00,0.0085
3274.00,0.0087
3271.00,0.0088
3268.00,0.0090
3265.00,0.0093
3262.00,0.0095
3259.00,0.0096
3256.00,0.0097
3253.00,0.0099
3250.00,0.0100
3247.00,0.0102
3244.00,0.0104
3241.00,0.0105
3238.00,0.0108
3235.00,0.0109
3232.00,0.0110
3229.00,0.0112
3226.00,0.0114
3223.00,0.0116
3220.00,0.0118
3217.00,0.0119
3214.00,0.0121
3211.00,0.0122
3208.00,0.0124
3205.00,0.0127
3202.00,0.0128
3199.00,0.0130
3196.00,0.0131
3193.00,0.0132
3190.00,0.0134
3187.00,0.0136
3184.00,0.0136
3181.00,0.0137
3178.00,0.0138
3175.00,0.0138
3172.00,0.0139
3169.00,0.0140
3166.00,0.0140
3163.00,0.0141
3160.00,0.0141
3157.00,0.0142
3154.00,0.0142
3151.00,0.0143
3148.00,0.0147
3145.00,0.0148
3142.00,0.0149
3139.00,0.0151
3136.00,0.0152
3133.00,0.0154
3130.00,0.0155
3127.00,0.0156
3124.00,0.0158
3121.00,0.0158
3118.00,0.0159
3115.00,0.0160
3112.00,0.0161
3109.00,0.0164
3106.00,0.0165
3103.00,0.0167
3100.00,0.0167
3097.00,0.0168
3094.00,0.0169
3091.00,0.0169
3088.00,0.0169
3085.00,0.0170
3082.00,0.0172
3079.00,0.0174
3076.00,0.0178
3073.00,0.0182
3070.00,0.0184
3067.00,0.0182
3064.00,0.0177
3061.00,0.0171
3058.00,0.0164
3055.00,0.0160
3052.00,0.0157
3049.00,0.0154
3046.00,0.0152
3043.00,0.0151
3040.00,0.0150
3037.00,0.0149
3034.00,0.0148
3031.00,0.0147
3028.00,0.0145
3025.00,0.0143
3022.00,0.0141
3019.00,0.0138
3016.00,0.0137
3013.00,0.0137
3010.00,0.0135
3007.00,0.0134
3004.00,0.0134
3001.00,0.0134
2998.00,0.0136
2995.00,0.0140
2992.00,0.0144
2989.00,0.0149
2986.00,0.0152
2983.00,0.0153
2980.00,0.0159
2977.00,0.0169
2974.00,0.0175
2971.00,0.0179
2968.00,0.0185
2965.00,0.0195
2962.00,0.0213
2959.00,0.0235
2956.00,0.0253
2953.00,0.0260
2950.00,0.0255
2947.00,0.0242
2944.00,0.0239
2941.00,0.0252
2938.00,0.0272
2935.00,0.0297
2932.00,0.0331
2929.00,0.0368
2926.00,0.0391
2923.00,0.0392
2920.00,0.0378
2917.00,0.0354
2914.00,0.0328
2911.00,0.0298
2908.00,0.0269
2905.00,0.0245
2902.00,0.0229
2899.00,0.0217
2896.00,0.0207
2893.00,0.0200
2890.00,0.0195
2887.00,0.0193
2884.00,0.0191
2881.00,0.0191
2878.00,0.0195
2875.00,0.0205
2872.00,0.0217
2869.00,0.0219
2866.00,0.0210
2863.00,0.0212
2860.00,0.0228
2857.00,0.0240
2854.00,0.0234
2851.00,0.0215
2848.00,0.0194
2845.00,0.0180
2842.00,0.0173
2839.00,0.0167
2836.00,0.0165
2833.00,0.0165
2830.00,0.0156
2827.00,0.0141
2824.00,0.0127
2821.00,0.0119
2818.00,0.0113
2815.00,0.0109
2812.00,0.0106
2809.00,0.0104
2806.00,0.0102
2803.00,0.0100
2800.00,0.0099
2797.00,0.0099
2794.00,0.0098
2791.00,0.0097
2788.00,0.0097
2785.00,0.0097
2782.00,0.0097
2779.00,0.0098
2776.00,0.0099
2773.00,0.0100
2770.00,0.0101
2767.00,0.0102
2764.00,0.0103
2761.00,0.0104
2758.00,0.0104
2755.00,0.0105
2752.00,0.0105
2749.00,0.0105
2746.00,0.0105
2743.00,0.0106
2740.00,0.0106
2737.00,0.0107
2734.00,0.0108
2731.00,0.0109
2728.00,0.0110
2725.00,0.0110
2722.00,0.0110
2719.00,0.0110
2716.00,0.0110
2713.00,0.0110
2710.00,0.0110
2707.00,0.0110
2704.00,0.0110
2701.00,0.0111
2698.00,0.0111
2695.00,0.0111
2692.00,0.0111
2689.00,0.0111
2686.00,0.0111
2683.00,0.0111
2680.00,0.0111
2677.00,0.0110
2674.00,0.0110
2671.00,0.0111
2668.00,0.0112
2665.00,0.0113
2662.00,0.0114
2659.00,0.0115
2656.00,0.0114
2653.00,0.0114
2650.00,0.0113
2647.00,0.0112
2644.00,0.0112
2641.00,0.0112
2638.00,0.0111
2635.00,0.0110
2632.00,0.0109
2629.00,0.0109
2626.00,0.0109
2623.00,0.0108
2620.00,0.0108
2617.00,0.0107
2614.00,0.0105
2611.00,0.0105
2608.00,0.0105
2605.00,0.0104
2602.00,0.0102
2599.00,0.0102
2596.00,0.0100
2593.00,0.0100
2590.00,0.0099
2587.00,0.0098
2584.00,0.0096
2581.00,0.0095
2578.00,0.0095
2575.00,0.0095
2572.00,0.0094
2569.00,0.0094
2566.00,0.0094
2563.00,0.0094
2560.00,0.0095
2557.00,0.0096
2554.00,0.0096
2551.00,0.0096
2548.00,0.0095
2545.00,0.0094
2542.00,0.0093
2539.00,0.0092
2536.00,0.0090
2533.00,0.0089
2530.00,0.0088
2527.00,0.0087
2524.00,0.0087
2521.00,0.0086
2518.00,0.0085
2515.00,0.0083
2512.00,0.0082
2509.00,0.0081
2506.00,0.0080
2503.00,0.0079
2500.00,0.0079
2497.00,0.0079
2494.00,0.0079
2491.00,0.0078
2488.00,0.0077
2485.00,0.0078
2482.00,0.0078
2479.00,0.0077
2476.00,0.0078
2473.00,0.0076
2470.00,0.0076
2467.00,0.0076
2464.00,0.0076
2461.00,0.0076
2458.00,0.0078
2455.00,0.0078
2452.00,0.0079
2449.00,0.0079
2446.00,0.0078
2443.00,0.0078
2440.00,0.0077
2437.00,0.0077
2434.00,0.0076
2431.00,0.0076
2428.00,0.0076
2425.00,0.0076
2422.00,0.0074
2419.00,0.0074
2416.00,0.0073
2413.00,0.0072
2410.00,0.0070
2407.00,0.0068
2404.00,0.0066
2401.00,0.0065
2398.00,0.0064
2395.00,0.0062
2392.00,0.0061
2389.00,0.0060
2386.00,0.0058
2383.00,0.0055
2380.00,0.0052
2377.00,0.0051
2374.00,0.0051
2371.00,0.0049
2368.00,0.0047
2365.00,0.0046
2362.00,0.0047
2359.00,0.0046
2356.00,0.0044
2353.00,0.0043
2350.00,0.0042
2347.00,0.0044
2344.00,0.0044
2341.00,0.0043
2338.00,0.0043
2335.00,0.0042
2332.00,0.0040
2329.00,0.0041
2326.00,0.0051
2323.00,0.0049
2320.00,0.0043
2317.00,0.0040
2314.00,0.0039
2311.00,0.0038
2308.00,0.0036
2305.00,0.0036
2302.00,0.0037
2299.00,0.0038
2296.00,0.0039
2293.00,0.0041
2290.00,0.0043
2287.00,0.0044
2284.00,0.0041
2281.00,0.0038
2278.00,0.0037
2275.00,0.0035
2272.00,0.0034
2269.00,0.0033
2266.00,0.0033
2263.00,0.0032
2260.00,0.0031
2257.00,0.0031
2254.00,0.0029
2251.00,0.0028
2248.00,0.0027
2245.00,0.0027
2242.00,0.0028
2239.00,0.0029
2236.00,0.0028
2233.00,0.0027
2230.00,0.0028
2227.00,0.0026
2224.00,0.0026
2221.00,0.0023
2218.00,0.0025
2215.00,0.0024
2212.00,0.0022
2209.00,0.0022
2206.00,0.0023
2203.00,0.0022
2200.00,0.0021
2197.00,0.0023
2194.00,0.0027
2191.00,0.0028
2188.00,0.0026
2185.00,0.0023
2182.00,0.0020
2179.00,0.0019
2176.00,0.0015
2173.00,0.0021
2170.00,0.0026
2167.00,0.0030
2164.00,0.0036
2161.00,0.0019
2158.00,-0.0014
2155.00,-0.0010
2152.00,-0.0003
2149.00,-0.0002
2146.00,-0.0004
2143.00,-0.0003
2140.00,-0.0001
2137.00,-0.0005
2134.00,-0.0008
2131.00,-0.0003
2128.00,0.0001
2125.00,0.0003
2122.00,0.0006
2119.00,0.0010
2116.00,0.0014
2113.00,0.0015
2110.00,0.0012
2107.00,0.0011
2104.00,0.0013
2101.00,0.0011
2098.00,0.0011
2095.00,0.0008
2092.00,0.0009
2089.00,0.0009
2086.00,0.0011
2083.00,0.0013
2080.00,0.0014
2077.00,0.0013
2074.00,0.0011
2071.00,0.0010
2068.00,0.0010
2065.00,0.0009
2062.00,0.0010
2059.00,0.0011
2056.00,0.0009
2053.00,0.0017
2050.00,0.0020
2047.00,0.0013
2044.00,0.0012
2041.00,0.0015
2038.00,0.0014
2035.00,0.0012
2032.00,0.0006
2029.00,0.0004
2026.00,0.0006
2023.00,0.0006
2020.00,0.0002
2017.00,0.0003
2014.00,0.0005
2011.00,0.0007
2008.00,0.0003
2005.00,-0.0004
2002.00,0.0001
1999.00,0.0004
1996.00,0.0005
1993.00,0.0009
1990.00,0.0011
1987.00,0.0011
1984.00,0.0017
1981.00,0.0023
1978.00,0.0009
1975.00,0.0001
1972.00,0.0001
1969.00,-0.0000
1966.00,-0.0001
1963.00,0.0000
1960.00,-0.0002
1957.00,-0.0001
1954.00,0.0002
1951.00,0.0004
1948.00,0.0003
1945.00,0.0001
1942.00,0.0002
1939.00,0.0003
1936.00,0.0003
1933.00,0.0003
1930.00,0.0002
1927.00,0.0004
1924.00,0.0005
1921.00,0.0007
1918.00,0.0007
1915.00,0.0007
1912.00,0.0007
1909.00,0.0005
1906.00,0.0005
1903.00,0.0005
1900.00,0.0005
1897.00,0.0005
1894.00,0.0005
1891.00,0.0004
1888.00,0.0006
1885.00,0.0006
1882.00,0.0006
1879.00,0.0007
1876.00,0.0007
1873.00,0.0007
1870.00,0.0008
1867.00,0.0009
1864.00,0.0009
1861.00,0.0008
1858.00,0.0007
1855.00,0.0008
1852.00,0.0007
1849.00,0.0006
1846.00,0.0007
1843.00,0.0009
1840.00,0.0008
1837.00,0.0008
1834.00,0.0008
1831.00,0.0008
1828.00,0.0009
1825.00,0.0009
1822.00,0.0009
1819.00,0.0007
1816.00,0.0006
1813.00,0.0007
1810.00,0.0009
1807.00,0.0010
1804.00,0.0011
1801.00,0.0012
1798.00,0.0012
1795.00,0.0013
1792.00,0.0015
1789.00,0.0016
1786.00,0.0018
1783.00,0.0019
1780.00,0.0018
1777.00,0.0018
1774.00,0.0018
1771.00,0.0018
1768.00,0.0018
1765.00,0.0017
1762.00,0.0017
1759.00,0.0018
1756.00,0.0017
1753.00,0.0017
1750.00,0.0018
1747.00,0.0019
1744.00,0.0019
1741.00,0.0020
1738.00,0.0020
1735.00,0.0020
1732.00,0.0021
1729.00,0.0022
1726.00,0.0023
1723.00,0.0024
1720.00,0.0025
1717.00,0.0026
1714.00,0.0027
1711.00,0.0027
1708.00,0.0028
1705.00,0.0029
1702.00,0.0031
1699.00,0.0031
1696.00,0.0031
1693.00,0.0032
1690.00,0.0034
1687.00,0.0035
1684.00,0.0038
1681.00,0.0041
1678.00,0.0044
1675.00,0.0048
1672.00,0.0053
1669.00,0.0061
1666.00,0.0071
1663.00,0.0082
1660.00,0.0096
1657.00,0.0114
1654.00,0.0139
1651.00,0.0173
1648.00,0.0220
1645.00,0.0299
1642.00,0.0389
1639.00,0.0466
1636.00,0.0529
1633.00,0.0568
1630.00,0.0570
1627.00,0.0504
1624.00,0.0426
1621.00,0.0349
1618.00,0.0307
1615.00,0.0257
1612.00,0.0237
1609.00,0.0218
1606.00,0.0208
1603.00,0.0207
1600.00,0.0216
1597.00,0.0241
1594.00,0.0292
1591.00,0.0373
1588.00,0.0459
1585.00,0.0526
1582.00,0.0576
1579.00,0.0619
1576.00,0.0624
1573.00,0.0619
1570.00,0.0603
1567.00,0.0561
1564.00,0.0521
1561.00,0.0494
1558.00,0.0397
1555.00,0.0354
1552.00,0.0313
1549.00,0.0277
1546.00,0.0252
1543.00,0.0230
1540.00,0.0206
1537.00,0.0192
1534.00,0.0192
1531.00,0.0195
1528.00,0.0210
1525.00,0.0222
1522.00,0.0215
1519.00,0.0187
1516.00,0.0157
1513.00,0.0138
1510.00,0.0129
1507.00,0.0120
1504.00,0.0109
1501.00,0.0105
1498.00,0.0100
1495.00,0.0095
1492.00,0.0094
1489.00,0.0093
1486.00,0.0094
1483.00,0.0099
1480.00,0.0110
1477.00,0.0126
1474.00,0.0147
1471.00,0.0183
1468.00,0.0218
1465.00,0.0216
1462.00,0.0230
1459.00,0.0281
1456.00,0.0352
1453.00,0.0431
1450.00,0.0526
1447.00,0.0599
1444.00,0.0634
1441.00,0.0611
1438.00,0.0555
1435.00,0.0476
1432.00,0.0434
1429.00,0.0374
1426.00,0.0328
1423.00,0.0296
1420.00,0.0283
1417.00,0.0275
1414.00,0.0278
1411.00,0.0283
1408.00,0.0289
1405.00,0.0298
1402.00,0.0304
1399.00,0.0306
1396.00,0.0298
1393.00,0.0281
1390.00,0.0269
1387.00,0.0257
1384.00,0.0260
1381.00,0.0296
1378.00,0.0343
1375.00,0.0342
1372.00,0.0310
1369.00,0.0312
1366.00,0.0320
1363.00,0.0305
1360.00,0.0294
1357.00,0.0307
1354.00,0.0345
1351.00,0.0381
1348.00,0.0386
1345.00,0.0357
1342.00,0.0334
1339.00,0.0338
1336.00,0.0356
1333.00,0.0343
1330.00,0.0316
1327.00,0.0327
1324.00,0.0381
1321.00,0.0454
1318.00,0.0479
1315.00,0.0420
1312.00,0.0348
1309.00,0.0315
1306.00,0.0321
1303.00,0.0317
1300.00,0.0292
1297.00,0.0286
1294.00,0.0292
1291.00,0.0318
1288.00,0.0360
1285.00,0.0397
1282.00,0.0438
1279.00,0.0443
1276.00,0.0383
1273.00,0.0306
1270.00,0.0249
1267.00,0.0210
1264.00,0.0186
1261.00,0.0176
1258.00,0.0185
1255.00,0.0222
1252.00,0.0262
1249.00,0.0287
1246.00,0.0341
1243.00,0.0368
1240.00,0.0320
1237.00,0.0254
1234.00,0.0219
1231.00,0.0226
1228.00,0.0245
1225.00,0.0225
1222.00,0.0211
1219.00,0.0224
1216.00,0.0212
1213.00,0.0194
1210.00,0.0234
1207.00,0.0337
1204.00,0.0364
1201.00,0.0277
1198.00,0.0198
1195.00,0.0161
1192.00,0.0155
1189.00,0.0161
1186.00,0.0158
1183.00,0.0154
1180.00,0.0171
1177.00,0.0230
1174.00,0.0310
1171.00,0.0354
1168.00,0.0301
1165.00,0.0223
1162.00,0.0176
1159.00,0.0158
1156.00,0.0156
1153.00,0.0187
1150.00,0.0276
1147.00,0.0282
1144.00,0.0172
1141.00,0.0115
1138.00,0.0103
1135.00,0.0099
1132.00,0.0088
1129.00,0.0075
1126.00,0.0066
1123.00,0.0062
1120.00,0.0061
1117.00,0.0062
1114.00,0.0066
1111.00,0.0074
1108.00,0.0086
1105.00,0.0100
1102.00,0.0120
1099.00,0.0131
1096.00,0.0117
1093.00,0.0098
1090.00,0.0089
1087.00,0.0086
1084.00,0.0090
1081.00,0.0093
1078.00,0.0088
1075.00,0.0080
1072.00,0.0076
1069.00,0.0078
1066.00,0.0091
1063.00,0.0120
1060.00,0.0175
1057.00,0.0267
1054.00,0.0356
1051.00,0.0313
1048.00,0.0228
1045.00,0.0209
1042.00,0.0238
1039.00,0.0301
1036.00,0.0398
1033.00,0.0463
1030.00,0.0444
1027.00,0.0355
1024.00,0.0261
1021.00,0.0208
1018.00,0.0177
1015.00,0.0153
1012.00,0.0140
1009.00,0.0131
1006.00,0.0119
1003.00,0.0122
1000.00,0.0158
997.00,0.0157
994.00,0.0122
991.00,0.0113
988.00,0.0117
985.00,0.0119
982.00,0.0110
979.00,0.0096
976.00,0.0089
973.00,0.0089
970.00,0.0094
967.00,0.0100
964.00,0.0118
961.00,0.0145
958.00,0.0153
955.00,0.0143
952.00,0.0134
949.00,0.0130
946.00,0.0129
943.00,0.0134
940.00,0.0132
937.00,0.0120
934.00,0.0112
931.00,0.0117
928.00,0.0129
925.00,0.0141
922.00,0.0152
919.00,0.0176
916.00,0.0197
913.00,0.0200
910.00,0.0174
907.00,0.0167
904.00,0.0196
901.00,0.0215
898.00,0.0201
895.00,0.0210
892.00,0.0324
889.00,0.0448
886.00,0.0420
883.00,0.0399
880.00,0.0303
877.00,0.0244
874.00,0.0223
871.00,0.0222
868.00,0.0240
865.00,0.0300
862.00,0.0388
859.00,0.0410
856.00,0.0404
853.00,0.0367
850.00,0.0324
847.00,0.0318
844.00,0.0337
841.00,0.0343
838.00,0.0342
835.00,0.0297
832.00,0.0256
829.00,0.0255
826.00,0.0237
823.00,0.0192
820.00,0.0166
817.00,0.0152
814.00,0.0151
811.00,0.0161
808.00,0.0192
805.00,0.0254
802.00,0.0261
799.00,0.0251
796.00,0.0277
793.00,0.0270
790.00,0.0222
787.00,0.0191
784.00,0.0177
781.00,0.0169
778.00,0.0171
775.00,0.0181
772.00,0.0194
769.00,0.0197
766.00,0.0191
763.00,0.0179
760.00,0.0169
757.00,0.0167
754.00,0.0165
751.00,0.0147
748.00,0.0133
745.00,0.0134
742.00,0.0144
739.00,0.0162
736.00,0.0192
733.00,0.0223
730.00,0.0204
727.00,0.0170
724.00,0.0155
721.00,0.0149
718.00,0.0148
715.00,0.0149
712.00,0.0149
709.00,0.0146
706.00,0.0144
703.00,0.0144
700.00,0.0145
697.00,0.0147
694.00,0.0150
691.00,0.0158
688.00,0.0169
685.00,0.0184
682.00,0.0200
679.00,0.0213
676.00,0.0212
673.00,0.0207
670.00,0.0208
667.00,0.0184
664.00,0.0156
661.00,0.0143
658.00,0.0139
655.00,0.0138
652.00,0.0143
649.00,0.0145
646.00,0.0139
643.00,0.0136
640.00,0.0142
637.00,0.0149
634.00,0.0155
631.00,0.0155
628.00,0.0147
625.00,0.0137
622.00,0.0133
619.00,0.0138
616.00,0.0157
613.00,0.0160
610.00,0.0154
607.00,0.0148
604.00,0.0141
601.00,0.0138
598.00,0.0138
595.00,0.0143
592.00,0.0143
589.00,0.0138
586.00,0.0139
583.00,0.0163
580.00,0.0238
577.00,0.0247
574.00,0.0164
571.00,0.0122
568.00,0.0109
565.00,0.0102
562.00,0.0111
559.00,0.0129
556.00,0.0176
553.00,0.0258
550.00,0.0249
547.00,0.0188
544.00,0.0171
541.00,0.0176
538.00,0.0215
535.00,0.0264
532.00,0.0221
529.00,0.0186
526.00,0.0225
523.00,0.0219
520.00,0.0189
517.00,0.0141
514.00,0.0127
511.00,0.0135
508.00,0.0149
505.00,0.0175
502.00,0.0220
499.00,0.0273
496.00,0.0328
493.00,0.0378
490.00,0.0410
487.00,0.0418
484.00,0.0409
481.00,0.0404
478.00,0.0409
475.00,0.0418
472.00,0.0412
469.00,0.0397
466.00,0.0397
463.00,0.0381
460.00,0.0333
457.00,0.0296
454.00,0.0287
451.00,0.0282
448.00,0.0273
445.00,0.0258
442.00,0.0253
439.00,0.0247
436.00,0.0241
433.00,0.0227
430.00,0.0195
427.00,0.0182
424.00,0.0176
421.00,0.0177
418.00,0.0166
415.00,0.0160
412.00,0.0146
409.00,0.0150
406.00,0.0168
403.00,0.0179
400.00,0.0163