File: FTIR/Olivia/2025_08_01_1CBN_3PVP10kDa_MC_glass_scan1.csv
Created as New Dataset,Sample 1017 By YargerLab Date Friday, August 01 2025
cm-1,A
4000.00,0.0044
3997.00,0.0045
3994.00,0.0045
3991.00,0.0044
3988.00,0.0045
3985.00,0.0045
3982.00,0.0044
3979.00,0.0044
3976.00,0.0044
3973.00,0.0044
3970.00,0.0044
3967.00,0.0044
3964.00,0.0044
3961.00,0.0044
3958.00,0.0044
3955.00,0.0044
3952.00,0.0044
3949.00,0.0044
3946.00,0.0044
3943.00,0.0045
3940.00,0.0045
3937.00,0.0045
3934.00,0.0044
3931.00,0.0045
3928.00,0.0045
3925.00,0.0045
3922.00,0.0045
3919.00,0.0045
3916.00,0.0045
3913.00,0.0044
3910.00,0.0044
3907.00,0.0046
3904.00,0.0046
3901.00,0.0047
3898.00,0.0046
3895.00,0.0046
3892.00,0.0045
3889.00,0.0045
3886.00,0.0046
3883.00,0.0046
3880.00,0.0045
3877.00,0.0045
3874.00,0.0045
3871.00,0.0046
3868.00,0.0046
3865.00,0.0046
3862.00,0.0046
3859.00,0.0045
3856.00,0.0047
3853.00,0.0048
3850.00,0.0048
3847.00,0.0046
3844.00,0.0046
3841.00,0.0046
3838.00,0.0047
3835.00,0.0047
3832.00,0.0046
3829.00,0.0045
3826.00,0.0045
3823.00,0.0046
3820.00,0.0047
3817.00,0.0046
3814.00,0.0046
3811.00,0.0045
3808.00,0.0045
3805.00,0.0046
3802.00,0.0046
3799.00,0.0046
3796.00,0.0045
3793.00,0.0045
3790.00,0.0044
3787.00,0.0044
3784.00,0.0045
3781.00,0.0045
3778.00,0.0045
3775.00,0.0045
3772.00,0.0045
3769.00,0.0045
3766.00,0.0046
3763.00,0.0046
3760.00,0.0046
3757.00,0.0046
3754.00,0.0047
3751.00,0.0048
3748.00,0.0049
3745.00,0.0048
3742.00,0.0047
3739.00,0.0047
3736.00,0.0047
3733.00,0.0047
3730.00,0.0046
3727.00,0.0045
3724.00,0.0045
3721.00,0.0044
3718.00,0.0044
3715.00,0.0045
3712.00,0.0046
3709.00,0.0044
3706.00,0.0043
3703.00,0.0043
3700.00,0.0043
3697.00,0.0044
3694.00,0.0044
3691.00,0.0046
3688.00,0.0046
3685.00,0.0047
3682.00,0.0047
3679.00,0.0048
3676.00,0.0050
3673.00,0.0051
3670.00,0.0050
3667.00,0.0049
3664.00,0.0048
3661.00,0.0048
3658.00,0.0049
3655.00,0.0051
3652.00,0.0052
3649.00,0.0055
3646.00,0.0055
3643.00,0.0054
3640.00,0.0054
3637.00,0.0055
3634.00,0.0056
3631.00,0.0058
3628.00,0.0059
3625.00,0.0060
3622.00,0.0060
3619.00,0.0062
3616.00,0.0063
3613.00,0.0066
3610.00,0.0067
3607.00,0.0068
3604.00,0.0069
3601.00,0.0070
3598.00,0.0071
3595.00,0.0074
3592.00,0.0076
3589.00,0.0078
3586.00,0.0081
3583.00,0.0083
3580.00,0.0084
3577.00,0.0086
3574.00,0.0089
3571.00,0.0091
3568.00,0.0094
3565.00,0.0096
3562.00,0.0098
3559.00,0.0099
3556.00,0.0101
3553.00,0.0103
3550.00,0.0106
3547.00,0.0108
3544.00,0.0109
3541.00,0.0110
3538.00,0.0111
3535.00,0.0113
3532.00,0.0115
3529.00,0.0117
3526.00,0.0118
3523.00,0.0119
3520.00,0.0120
3517.00,0.0121
3514.00,0.0123
3511.00,0.0124
3508.00,0.0125
3505.00,0.0127
3502.00,0.0127
3499.00,0.0129
3496.00,0.0130
3493.00,0.0131
3490.00,0.0133
3487.00,0.0134
3484.00,0.0135
3481.00,0.0136
3478.00,0.0137
3475.00,0.0137
3472.00,0.0138
3469.00,0.0140
3466.00,0.0141
3463.00,0.0141
3460.00,0.0142
3457.00,0.0143
3454.00,0.0144
3451.00,0.0144
3448.00,0.0145
3445.00,0.0145
3442.00,0.0145
3439.00,0.0145
3436.00,0.0146
3433.00,0.0146
3430.00,0.0146
3427.00,0.0146
3424.00,0.0146
3421.00,0.0146
3418.00,0.0146
3415.00,0.0146
3412.00,0.0146
3409.00,0.0146
3406.00,0.0146
3403.00,0.0145
3400.00,0.0145
3397.00,0.0146
3394.00,0.0145
3391.00,0.0144
3388.00,0.0144
3385.00,0.0144
3382.00,0.0143
3379.00,0.0143
3376.00,0.0143
3373.00,0.0142
3370.00,0.0140
3367.00,0.0141
3364.00,0.0141
3361.00,0.0141
3358.00,0.0141
3355.00,0.0141
3352.00,0.0139
3349.00,0.0139
3346.00,0.0140
3343.00,0.0139
3340.00,0.0137
3337.00,0.0138
3334.00,0.0139
3331.00,0.0139
3328.00,0.0137
3325.00,0.0137
3322.00,0.0138
3319.00,0.0138
3316.00,0.0138
3313.00,0.0136
3310.00,0.0134
3307.00,0.0133
3304.00,0.0134
3301.00,0.0136
3298.00,0.0135
3295.00,0.0134
3292.00,0.0134
3289.00,0.0135
3286.00,0.0135
3283.00,0.0134
3280.00,0.0134
3277.00,0.0133
3274.00,0.0132
3271.00,0.0131
3268.00,0.0132
3265.00,0.0132
3262.00,0.0132
3259.00,0.0131
3256.00,0.0131
3253.00,0.0130
3250.00,0.0130
3247.00,0.0129
3244.00,0.0129
3241.00,0.0128
3238.00,0.0128
3235.00,0.0127
3232.00,0.0127
3229.00,0.0127
3226.00,0.0127
3223.00,0.0126
3220.00,0.0125
3217.00,0.0125
3214.00,0.0125
3211.00,0.0125
3208.00,0.0124
3205.00,0.0123
3202.00,0.0122
3199.00,0.0122
3196.00,0.0121
3193.00,0.0120
3190.00,0.0120
3187.00,0.0120
3184.00,0.0120
3181.00,0.0119
3178.00,0.0119
3175.00,0.0118
3172.00,0.0118
3169.00,0.0118
3166.00,0.0117
3163.00,0.0117
3160.00,0.0116
3157.00,0.0115
3154.00,0.0114
3151.00,0.0114
3148.00,0.0114
3145.00,0.0114
3142.00,0.0113
3139.00,0.0113
3136.00,0.0112
3133.00,0.0112
3130.00,0.0112
3127.00,0.0111
3124.00,0.0111
3121.00,0.0111
3118.00,0.0110
3115.00,0.0109
3112.00,0.0108
3109.00,0.0108
3106.00,0.0108
3103.00,0.0107
3100.00,0.0107
3097.00,0.0106
3094.00,0.0106
3091.00,0.0106
3088.00,0.0106
3085.00,0.0106
3082.00,0.0107
3079.00,0.0107
3076.00,0.0106
3073.00,0.0106
3070.00,0.0105
3067.00,0.0104
3064.00,0.0104
3061.00,0.0103
3058.00,0.0103
3055.00,0.0102
3052.00,0.0101
3049.00,0.0101
3046.00,0.0101
3043.00,0.0101
3040.00,0.0100
3037.00,0.0100
3034.00,0.0100
3031.00,0.0099
3028.00,0.0099
3025.00,0.0099
3022.00,0.0099
3019.00,0.0099
3016.00,0.0100
3013.00,0.0101
3010.00,0.0103
3007.00,0.0106
3004.00,0.0111
3001.00,0.0117
2998.00,0.0125
2995.00,0.0135
2992.00,0.0147
2989.00,0.0159
2986.00,0.0171
2983.00,0.0180
2980.00,0.0189
2977.00,0.0198
2974.00,0.0206
2971.00,0.0212
2968.00,0.0219
2965.00,0.0227
2962.00,0.0235
2959.00,0.0243
2956.00,0.0248
2953.00,0.0250
2950.00,0.0249
2947.00,0.0248
2944.00,0.0247
2941.00,0.0247
2938.00,0.0250
2935.00,0.0256
2932.00,0.0261
2929.00,0.0267
2926.00,0.0270
2923.00,0.0269
2920.00,0.0265
2917.00,0.0256
2914.00,0.0245
2911.00,0.0234
2908.00,0.0223
2905.00,0.0215
2902.00,0.0210
2899.00,0.0207
2896.00,0.0206
2893.00,0.0204
2890.00,0.0204
2887.00,0.0203
2884.00,0.0203
2881.00,0.0203
2878.00,0.0205
2875.00,0.0208
2872.00,0.0210
2869.00,0.0210
2866.00,0.0209
2863.00,0.0208
2860.00,0.0207
2857.00,0.0205
2854.00,0.0197
2851.00,0.0186
2848.00,0.0173
2845.00,0.0161
2842.00,0.0150
2839.00,0.0140
2836.00,0.0134
2833.00,0.0128
2830.00,0.0123
2827.00,0.0118
2824.00,0.0114
2821.00,0.0109
2818.00,0.0106
2815.00,0.0103
2812.00,0.0100
2809.00,0.0098
2806.00,0.0096
2803.00,0.0094
2800.00,0.0092
2797.00,0.0091
2794.00,0.0089
2791.00,0.0089
2788.00,0.0087
2785.00,0.0087
2782.00,0.0086
2779.00,0.0085
2776.00,0.0084
2773.00,0.0083
2770.00,0.0082
2767.00,0.0082
2764.00,0.0082
2761.00,0.0082
2758.00,0.0081
2755.00,0.0081
2752.00,0.0081
2749.00,0.0081
2746.00,0.0081
2743.00,0.0082
2740.00,0.0082
2737.00,0.0082
2734.00,0.0082
2731.00,0.0081
2728.00,0.0081
2725.00,0.0081
2722.00,0.0080
2719.00,0.0080
2716.00,0.0079
2713.00,0.0079
2710.00,0.0079
2707.00,0.0078
2704.00,0.0077
2701.00,0.0077
2698.00,0.0077
2695.00,0.0076
2692.00,0.0076
2689.00,0.0075
2686.00,0.0075
2683.00,0.0075
2680.00,0.0074
2677.00,0.0074
2674.00,0.0074
2671.00,0.0074
2668.00,0.0074
2665.00,0.0075
2662.00,0.0075
2659.00,0.0076
2656.00,0.0077
2653.00,0.0076
2650.00,0.0076
2647.00,0.0076
2644.00,0.0075
2641.00,0.0075
2638.00,0.0075
2635.00,0.0074
2632.00,0.0074
2629.00,0.0074
2626.00,0.0074
2623.00,0.0073
2620.00,0.0073
2617.00,0.0072
2614.00,0.0072
2611.00,0.0072
2608.00,0.0071
2605.00,0.0070
2602.00,0.0070
2599.00,0.0070
2596.00,0.0070
2593.00,0.0070
2590.00,0.0070
2587.00,0.0070
2584.00,0.0070
2581.00,0.0069
2578.00,0.0068
2575.00,0.0068
2572.00,0.0068
2569.00,0.0067
2566.00,0.0067
2563.00,0.0067
2560.00,0.0067
2557.00,0.0066
2554.00,0.0065
2551.00,0.0065
2548.00,0.0065
2545.00,0.0065
2542.00,0.0064
2539.00,0.0063
2536.00,0.0063
2533.00,0.0062
2530.00,0.0062
2527.00,0.0061
2524.00,0.0061
2521.00,0.0061
2518.00,0.0060
2515.00,0.0059
2512.00,0.0058
2509.00,0.0059
2506.00,0.0058
2503.00,0.0058
2500.00,0.0058
2497.00,0.0057
2494.00,0.0057
2491.00,0.0057
2488.00,0.0057
2485.00,0.0057
2482.00,0.0057
2479.00,0.0057
2476.00,0.0056
2473.00,0.0056
2470.00,0.0057
2467.00,0.0057
2464.00,0.0057
2461.00,0.0057
2458.00,0.0058
2455.00,0.0058
2452.00,0.0057
2449.00,0.0057
2446.00,0.0055
2443.00,0.0056
2440.00,0.0057
2437.00,0.0056
2434.00,0.0055
2431.00,0.0055
2428.00,0.0055
2425.00,0.0055
2422.00,0.0055
2419.00,0.0055
2416.00,0.0054
2413.00,0.0055
2410.00,0.0054
2407.00,0.0053
2404.00,0.0053
2401.00,0.0053
2398.00,0.0053
2395.00,0.0053
2392.00,0.0053
2389.00,0.0052
2386.00,0.0051
2383.00,0.0049
2380.00,0.0046
2377.00,0.0046
2374.00,0.0046
2371.00,0.0045
2368.00,0.0044
2365.00,0.0045
2362.00,0.0045
2359.00,0.0045
2356.00,0.0045
2353.00,0.0046
2350.00,0.0045
2347.00,0.0046
2344.00,0.0048
2341.00,0.0049
2338.00,0.0050
2335.00,0.0051
2332.00,0.0051
2329.00,0.0052
2326.00,0.0062
2323.00,0.0061
2320.00,0.0057
2317.00,0.0056
2314.00,0.0055
2311.00,0.0053
2308.00,0.0053
2305.00,0.0054
2302.00,0.0054
2299.00,0.0055
2296.00,0.0058
2293.00,0.0060
2290.00,0.0063
2287.00,0.0064
2284.00,0.0063
2281.00,0.0061
2278.00,0.0059
2275.00,0.0059
2272.00,0.0060
2269.00,0.0058
2266.00,0.0056
2263.00,0.0056
2260.00,0.0057
2257.00,0.0057
2254.00,0.0055
2251.00,0.0055
2248.00,0.0055
2245.00,0.0055
2242.00,0.0055
2239.00,0.0056
2236.00,0.0057
2233.00,0.0056
2230.00,0.0055
2227.00,0.0057
2224.00,0.0057
2221.00,0.0056
2218.00,0.0056
2215.00,0.0057
2212.00,0.0056
2209.00,0.0054
2206.00,0.0055
2203.00,0.0053
2200.00,0.0054
2197.00,0.0055
2194.00,0.0058
2191.00,0.0060
2188.00,0.0058
2185.00,0.0057
2182.00,0.0051
2179.00,0.0054
2176.00,0.0052
2173.00,0.0054
2170.00,0.0060
2167.00,0.0064
2164.00,0.0069
2161.00,0.0054
2158.00,0.0024
2155.00,0.0033
2152.00,0.0038
2149.00,0.0036
2146.00,0.0035
2143.00,0.0038
2140.00,0.0038
2137.00,0.0034
2134.00,0.0032
2131.00,0.0037
2128.00,0.0042
2125.00,0.0045
2122.00,0.0047
2119.00,0.0049
2116.00,0.0052
2113.00,0.0054
2110.00,0.0052
2107.00,0.0051
2104.00,0.0051
2101.00,0.0051
2098.00,0.0050
2095.00,0.0047
2092.00,0.0048
2089.00,0.0050
2086.00,0.0051
2083.00,0.0055
2080.00,0.0055
2077.00,0.0053
2074.00,0.0052
2071.00,0.0052
2068.00,0.0049
2065.00,0.0048
2062.00,0.0049
2059.00,0.0052
2056.00,0.0052
2053.00,0.0055
2050.00,0.0057
2047.00,0.0052
2044.00,0.0051
2041.00,0.0052
2038.00,0.0054
2035.00,0.0051
2032.00,0.0044
2029.00,0.0046
2026.00,0.0046
2023.00,0.0044
2020.00,0.0043
2017.00,0.0043
2014.00,0.0044
2011.00,0.0046
2008.00,0.0040
2005.00,0.0035
2002.00,0.0040
1999.00,0.0043
1996.00,0.0045
1993.00,0.0044
1990.00,0.0045
1987.00,0.0048
1984.00,0.0053
1981.00,0.0058
1978.00,0.0044
1975.00,0.0037
1972.00,0.0036
1969.00,0.0035
1966.00,0.0036
1963.00,0.0038
1960.00,0.0034
1957.00,0.0035
1954.00,0.0037
1951.00,0.0037
1948.00,0.0038
1945.00,0.0039
1942.00,0.0040
1939.00,0.0040
1936.00,0.0040
1933.00,0.0040
1930.00,0.0039
1927.00,0.0039
1924.00,0.0041
1921.00,0.0041
1918.00,0.0041
1915.00,0.0041
1912.00,0.0042
1909.00,0.0042
1906.00,0.0042
1903.00,0.0043
1900.00,0.0043
1897.00,0.0043
1894.00,0.0043
1891.00,0.0043
1888.00,0.0043
1885.00,0.0042
1882.00,0.0042
1879.00,0.0043
1876.00,0.0043
1873.00,0.0042
1870.00,0.0041
1867.00,0.0041
1864.00,0.0042
1861.00,0.0043
1858.00,0.0042
1855.00,0.0043
1852.00,0.0043
1849.00,0.0043
1846.00,0.0042
1843.00,0.0042
1840.00,0.0042
1837.00,0.0042
1834.00,0.0041
1831.00,0.0041
1828.00,0.0041
1825.00,0.0041
1822.00,0.0042
1819.00,0.0040
1816.00,0.0039
1813.00,0.0041
1810.00,0.0041
1807.00,0.0042
1804.00,0.0043
1801.00,0.0042
1798.00,0.0042
1795.00,0.0043
1792.00,0.0042
1789.00,0.0042
1786.00,0.0044
1783.00,0.0044
1780.00,0.0043
1777.00,0.0043
1774.00,0.0043
1771.00,0.0043
1768.00,0.0043
1765.00,0.0045
1762.00,0.0045
1759.00,0.0045
1756.00,0.0046
1753.00,0.0047
1750.00,0.0047
1747.00,0.0047
1744.00,0.0049
1741.00,0.0049
1738.00,0.0051
1735.00,0.0052
1732.00,0.0053
1729.00,0.0057
1726.00,0.0061
1723.00,0.0066
1720.00,0.0069
1717.00,0.0072
1714.00,0.0080
1711.00,0.0094
1708.00,0.0111
1705.00,0.0139
1702.00,0.0173
1699.00,0.0247
1696.00,0.0329
1693.00,0.0433
1690.00,0.0541
1687.00,0.0643
1684.00,0.0762
1681.00,0.0848
1678.00,0.0918
1675.00,0.0976
1672.00,0.1012
1669.00,0.1050
1666.00,0.1080
1663.00,0.1117
1660.00,0.1140
1657.00,0.1155
1654.00,0.1155
1651.00,0.1100
1648.00,0.1061
1645.00,0.0961
1642.00,0.0876
1639.00,0.0784
1636.00,0.0682
1633.00,0.0584
1630.00,0.0527
1627.00,0.0483
1624.00,0.0474
1621.00,0.0489
1618.00,0.0490
1615.00,0.0459
1612.00,0.0431
1609.00,0.0404
1606.00,0.0360
1603.00,0.0307
1600.00,0.0264
1597.00,0.0239
1594.00,0.0237
1591.00,0.0262
1588.00,0.0303
1585.00,0.0322
1582.00,0.0299
1579.00,0.0262
1576.00,0.0226
1573.00,0.0206
1570.00,0.0192
1567.00,0.0178
1564.00,0.0167
1561.00,0.0157
1558.00,0.0144
1555.00,0.0139
1552.00,0.0138
1549.00,0.0136
1546.00,0.0131
1543.00,0.0126
1540.00,0.0121
1537.00,0.0121
1534.00,0.0122
1531.00,0.0123
1528.00,0.0125
1525.00,0.0127
1522.00,0.0130
1519.00,0.0136
1516.00,0.0144
1513.00,0.0149
1510.00,0.0152
1507.00,0.0159
1504.00,0.0183
1501.00,0.0219
1498.00,0.0268
1495.00,0.0305
1492.00,0.0303
1489.00,0.0265
1486.00,0.0221
1483.00,0.0192
1480.00,0.0176
1477.00,0.0176
1474.00,0.0195
1471.00,0.0252
1468.00,0.0324
1465.00,0.0419
1462.00,0.0493
1459.00,0.0508
1456.00,0.0444
1453.00,0.0397
1450.00,0.0383
1447.00,0.0415
1444.00,0.0473
1441.00,0.0538
1438.00,0.0591
1435.00,0.0637
1432.00,0.0660
1429.00,0.0685
1426.00,0.0731
1423.00,0.0784
1420.00,0.0770
1417.00,0.0655
1414.00,0.0544
1411.00,0.0463
1408.00,0.0425
1405.00,0.0416
1402.00,0.0411
1399.00,0.0384
1396.00,0.0335
1393.00,0.0289
1390.00,0.0269
1387.00,0.0270
1384.00,0.0290
1381.00,0.0318
1378.00,0.0335
1375.00,0.0336
1372.00,0.0328
1369.00,0.0319
1366.00,0.0311
1363.00,0.0312
1360.00,0.0308
1357.00,0.0280
1354.00,0.0243
1351.00,0.0224
1348.00,0.0215
1345.00,0.0211
1342.00,0.0209
1339.00,0.0212
1336.00,0.0220
1333.00,0.0231
1330.00,0.0244
1327.00,0.0262
1324.00,0.0288
1321.00,0.0316
1318.00,0.0332
1315.00,0.0330
1312.00,0.0314
1309.00,0.0302
1306.00,0.0304
1303.00,0.0324
1300.00,0.0373
1297.00,0.0468
1294.00,0.0606
1291.00,0.0749
1288.00,0.0851
1285.00,0.0879
1282.00,0.0839
1279.00,0.0786
1276.00,0.0769
1273.00,0.0776
1270.00,0.0761
1267.00,0.0702
1264.00,0.0616
1261.00,0.0530
1258.00,0.0457
1255.00,0.0402
1252.00,0.0366
1249.00,0.0350
1246.00,0.0355
1243.00,0.0375
1240.00,0.0395
1237.00,0.0411
1234.00,0.0422
1231.00,0.0428
1228.00,0.0427
1225.00,0.0425
1222.00,0.0426
1219.00,0.0427
1216.00,0.0414
1213.00,0.0385
1210.00,0.0350
1207.00,0.0323
1204.00,0.0312
1201.00,0.0316
1198.00,0.0334
1195.00,0.0352
1192.00,0.0347
1189.00,0.0318
1186.00,0.0288
1183.00,0.0269
1180.00,0.0261
1177.00,0.0263
1174.00,0.0272
1171.00,0.0281
1168.00,0.0287
1165.00,0.0290
1162.00,0.0301
1159.00,0.0322
1156.00,0.0332
1153.00,0.0314
1150.00,0.0280
1147.00,0.0247
1144.00,0.0223
1141.00,0.0210
1138.00,0.0211
1135.00,0.0234
1132.00,0.0279
1129.00,0.0302
1126.00,0.0271
1123.00,0.0229
1120.00,0.0207
1117.00,0.0200
1114.00,0.0199
1111.00,0.0202
1108.00,0.0207
1105.00,0.0218
1102.00,0.0233
1099.00,0.0237
1096.00,0.0226
1093.00,0.0211
1090.00,0.0200
1087.00,0.0192
1084.00,0.0191
1081.00,0.0195
1078.00,0.0204
1075.00,0.0217
1072.00,0.0232
1069.00,0.0256
1066.00,0.0300
1063.00,0.0362
1060.00,0.0422
1057.00,0.0440
1054.00,0.0394
1051.00,0.0325
1048.00,0.0279
1045.00,0.0263
1042.00,0.0264
1039.00,0.0270
1036.00,0.0276
1033.00,0.0284
1030.00,0.0288
1027.00,0.0273
1024.00,0.0256
1021.00,0.0251
1018.00,0.0250
1015.00,0.0239
1012.00,0.0221
1009.00,0.0214
1006.00,0.0225
1003.00,0.0240
1000.00,0.0235
997.00,0.0220
994.00,0.0205
991.00,0.0194
988.00,0.0182
985.00,0.0173
982.00,0.0168
979.00,0.0167
976.00,0.0167
973.00,0.0163
970.00,0.0158
967.00,0.0154
964.00,0.0151
961.00,0.0149
958.00,0.0147
955.00,0.0144
952.00,0.0142
949.00,0.0141
946.00,0.0143
943.00,0.0148
940.00,0.0160
937.00,0.0181
934.00,0.0199
931.00,0.0201
928.00,0.0195
925.00,0.0192
922.00,0.0186
919.00,0.0179
916.00,0.0173
913.00,0.0168
910.00,0.0167
907.00,0.0172
904.00,0.0182
901.00,0.0200
898.00,0.0211
895.00,0.0209
892.00,0.0198
889.00,0.0188
886.00,0.0182
883.00,0.0184
880.00,0.0195
877.00,0.0211
874.00,0.0230
871.00,0.0243
868.00,0.0247
865.00,0.0249
862.00,0.0253
859.00,0.0259
856.00,0.0271
853.00,0.0287
850.00,0.0303
847.00,0.0315
844.00,0.0320
841.00,0.0321
838.00,0.0317
835.00,0.0314
832.00,0.0312
829.00,0.0310
826.00,0.0304
823.00,0.0300
820.00,0.0300
817.00,0.0300
814.00,0.0294
811.00,0.0276
808.00,0.0245
805.00,0.0216
802.00,0.0199
799.00,0.0193
796.00,0.0193
793.00,0.0193
790.00,0.0195
787.00,0.0195
784.00,0.0197
781.00,0.0201
778.00,0.0208
775.00,0.0210
772.00,0.0207
769.00,0.0212
766.00,0.0218
763.00,0.0225
760.00,0.0236
757.00,0.0248
754.00,0.0261
751.00,0.0274
748.00,0.0288
745.00,0.0303
742.00,0.0323
739.00,0.0348
736.00,0.0363
733.00,0.0353
730.00,0.0331
727.00,0.0307
724.00,0.0288
721.00,0.0273
718.00,0.0266
715.00,0.0263
712.00,0.0261
709.00,0.0257
706.00,0.0255
703.00,0.0256
700.00,0.0260
697.00,0.0269
694.00,0.0284
691.00,0.0299
688.00,0.0307
685.00,0.0309
682.00,0.0310
679.00,0.0315
676.00,0.0324
673.00,0.0337
670.00,0.0353
667.00,0.0385
664.00,0.0397
661.00,0.0420
658.00,0.0447
655.00,0.0474
652.00,0.0497
649.00,0.0509
646.00,0.0507
643.00,0.0492
640.00,0.0470
637.00,0.0447
634.00,0.0431
631.00,0.0416
628.00,0.0409
625.00,0.0407
622.00,0.0402
619.00,0.0396
616.00,0.0393
613.00,0.0396
610.00,0.0398
607.00,0.0401
604.00,0.0410
601.00,0.0413
598.00,0.0420
595.00,0.0423
592.00,0.0426
589.00,0.0445
586.00,0.0483
583.00,0.0522
580.00,0.0543
577.00,0.0552
574.00,0.0555
571.00,0.0550
568.00,0.0549
565.00,0.0540
562.00,0.0523
559.00,0.0507
556.00,0.0495
553.00,0.0484
550.00,0.0471
547.00,0.0461
544.00,0.0449
541.00,0.0442
538.00,0.0442
535.00,0.0456
532.00,0.0465
529.00,0.0462
526.00,0.0452
523.00,0.0437
520.00,0.0432
517.00,0.0432
514.00,0.0426
511.00,0.0426
508.00,0.0430
505.00,0.0437
502.00,0.0432
499.00,0.0426
496.00,0.0430
493.00,0.0435
490.00,0.0435
487.00,0.0436
484.00,0.0437
481.00,0.0439
478.00,0.0438
475.00,0.0438
472.00,0.0441
469.00,0.0443
466.00,0.0435
463.00,0.0431
460.00,0.0431
457.00,0.0426
454.00,0.0421
451.00,0.0418
448.00,0.0419
445.00,0.0411
442.00,0.0406
439.00,0.0392
436.00,0.0386
433.00,0.0400
430.00,0.0402
427.00,0.0389
424.00,0.0384
421.00,0.0388
418.00,0.0395
415.00,0.0394
412.00,0.0413
409.00,0.0408
406.00,0.0391
403.00,0.0382
400.00,0.0398