File: FTIR/Olivia/2025_08_06_Polystyrene_film_scan2.csv
Created as New Dataset,Sample 1083 By YargerLab Date Wednesday, August 06 2025
cm-1,A
4000.00,0.0007
3997.00,0.0007
3994.00,0.0007
3991.00,0.0007
3988.00,0.0007
3985.00,0.0007
3982.00,0.0007
3979.00,0.0007
3976.00,0.0007
3973.00,0.0007
3970.00,0.0007
3967.00,0.0007
3964.00,0.0007
3961.00,0.0007
3958.00,0.0007
3955.00,0.0007
3952.00,0.0007
3949.00,0.0007
3946.00,0.0008
3943.00,0.0007
3940.00,0.0007
3937.00,0.0006
3934.00,0.0007
3931.00,0.0007
3928.00,0.0007
3925.00,0.0007
3922.00,0.0008
3919.00,0.0008
3916.00,0.0007
3913.00,0.0007
3910.00,0.0007
3907.00,0.0008
3904.00,0.0009
3901.00,0.0009
3898.00,0.0008
3895.00,0.0008
3892.00,0.0008
3889.00,0.0008
3886.00,0.0008
3883.00,0.0008
3880.00,0.0008
3877.00,0.0008
3874.00,0.0008
3871.00,0.0009
3868.00,0.0009
3865.00,0.0009
3862.00,0.0008
3859.00,0.0008
3856.00,0.0010
3853.00,0.0011
3850.00,0.0010
3847.00,0.0008
3844.00,0.0008
3841.00,0.0009
3838.00,0.0009
3835.00,0.0010
3832.00,0.0009
3829.00,0.0008
3826.00,0.0008
3823.00,0.0010
3820.00,0.0010
3817.00,0.0010
3814.00,0.0009
3811.00,0.0009
3808.00,0.0009
3805.00,0.0010
3802.00,0.0009
3799.00,0.0010
3796.00,0.0009
3793.00,0.0008
3790.00,0.0007
3787.00,0.0008
3784.00,0.0008
3781.00,0.0008
3778.00,0.0007
3775.00,0.0008
3772.00,0.0009
3769.00,0.0008
3766.00,0.0008
3763.00,0.0008
3760.00,0.0008
3757.00,0.0008
3754.00,0.0010
3751.00,0.0011
3748.00,0.0011
3745.00,0.0011
3742.00,0.0010
3739.00,0.0010
3736.00,0.0010
3733.00,0.0010
3730.00,0.0009
3727.00,0.0008
3724.00,0.0008
3721.00,0.0008
3718.00,0.0008
3715.00,0.0008
3712.00,0.0008
3709.00,0.0009
3706.00,0.0008
3703.00,0.0007
3700.00,0.0007
3697.00,0.0007
3694.00,0.0008
3691.00,0.0009
3688.00,0.0009
3685.00,0.0008
3682.00,0.0008
3679.00,0.0009
3676.00,0.0010
3673.00,0.0010
3670.00,0.0009
3667.00,0.0009
3664.00,0.0008
3661.00,0.0008
3658.00,0.0009
3655.00,0.0010
3652.00,0.0012
3649.00,0.0012
3646.00,0.0011
3643.00,0.0009
3640.00,0.0008
3637.00,0.0008
3634.00,0.0008
3631.00,0.0009
3628.00,0.0009
3625.00,0.0008
3622.00,0.0008
3619.00,0.0008
3616.00,0.0008
3613.00,0.0008
3610.00,0.0008
3607.00,0.0008
3604.00,0.0007
3601.00,0.0008
3598.00,0.0008
3595.00,0.0008
3592.00,0.0009
3589.00,0.0009
3586.00,0.0008
3583.00,0.0008
3580.00,0.0008
3577.00,0.0008
3574.00,0.0008
3571.00,0.0008
3568.00,0.0008
3565.00,0.0008
3562.00,0.0008
3559.00,0.0009
3556.00,0.0008
3553.00,0.0009
3550.00,0.0009
3547.00,0.0009
3544.00,0.0009
3541.00,0.0010
3538.00,0.0010
3535.00,0.0010
3532.00,0.0010
3529.00,0.0010
3526.00,0.0011
3523.00,0.0011
3520.00,0.0011
3517.00,0.0010
3514.00,0.0010
3511.00,0.0011
3508.00,0.0011
3505.00,0.0011
3502.00,0.0011
3499.00,0.0011
3496.00,0.0011
3493.00,0.0011
3490.00,0.0011
3487.00,0.0010
3484.00,0.0010
3481.00,0.0011
3478.00,0.0012
3475.00,0.0012
3472.00,0.0012
3469.00,0.0012
3466.00,0.0012
3463.00,0.0012
3460.00,0.0012
3457.00,0.0012
3454.00,0.0012
3451.00,0.0012
3448.00,0.0012
3445.00,0.0012
3442.00,0.0012
3439.00,0.0012
3436.00,0.0012
3433.00,0.0012
3430.00,0.0012
3427.00,0.0012
3424.00,0.0012
3421.00,0.0012
3418.00,0.0012
3415.00,0.0012
3412.00,0.0011
3409.00,0.0011
3406.00,0.0012
3403.00,0.0012
3400.00,0.0012
3397.00,0.0012
3394.00,0.0011
3391.00,0.0011
3388.00,0.0011
3385.00,0.0011
3382.00,0.0011
3379.00,0.0012
3376.00,0.0012
3373.00,0.0011
3370.00,0.0011
3367.00,0.0012
3364.00,0.0012
3361.00,0.0012
3358.00,0.0011
3355.00,0.0011
3352.00,0.0011
3349.00,0.0011
3346.00,0.0011
3343.00,0.0011
3340.00,0.0011
3337.00,0.0011
3334.00,0.0011
3331.00,0.0011
3328.00,0.0011
3325.00,0.0011
3322.00,0.0010
3319.00,0.0010
3316.00,0.0011
3313.00,0.0011
3310.00,0.0011
3307.00,0.0011
3304.00,0.0011
3301.00,0.0010
3298.00,0.0010
3295.00,0.0010
3292.00,0.0010
3289.00,0.0010
3286.00,0.0010
3283.00,0.0010
3280.00,0.0011
3277.00,0.0011
3274.00,0.0011
3271.00,0.0010
3268.00,0.0010
3265.00,0.0010
3262.00,0.0010
3259.00,0.0010
3256.00,0.0010
3253.00,0.0010
3250.00,0.0010
3247.00,0.0010
3244.00,0.0010
3241.00,0.0010
3238.00,0.0009
3235.00,0.0009
3232.00,0.0010
3229.00,0.0010
3226.00,0.0009
3223.00,0.0009
3220.00,0.0009
3217.00,0.0009
3214.00,0.0009
3211.00,0.0009
3208.00,0.0010
3205.00,0.0010
3202.00,0.0010
3199.00,0.0009
3196.00,0.0009
3193.00,0.0010
3190.00,0.0009
3187.00,0.0008
3184.00,0.0008
3181.00,0.0008
3178.00,0.0008
3175.00,0.0009
3172.00,0.0009
3169.00,0.0008
3166.00,0.0009
3163.00,0.0009
3160.00,0.0009
3157.00,0.0009
3154.00,0.0008
3151.00,0.0009
3148.00,0.0008
3145.00,0.0008
3142.00,0.0008
3139.00,0.0008
3136.00,0.0008
3133.00,0.0008
3130.00,0.0008
3127.00,0.0008
3124.00,0.0008
3121.00,0.0010
3118.00,0.0010
3115.00,0.0011
3112.00,0.0014
3109.00,0.0018
3106.00,0.0023
3103.00,0.0025
3100.00,0.0025
3097.00,0.0023
3094.00,0.0024
3091.00,0.0030
3088.00,0.0042
3085.00,0.0056
3082.00,0.0064
3079.00,0.0059
3076.00,0.0049
3073.00,0.0046
3070.00,0.0049
3067.00,0.0059
3064.00,0.0074
3061.00,0.0087
3058.00,0.0086
3055.00,0.0073
3052.00,0.0059
3049.00,0.0049
3046.00,0.0044
3043.00,0.0045
3040.00,0.0051
3037.00,0.0064
3034.00,0.0086
3031.00,0.0119
3028.00,0.0156
3025.00,0.0172
3022.00,0.0150
3019.00,0.0107
3016.00,0.0071
3013.00,0.0051
3010.00,0.0043
3007.00,0.0043
3004.00,0.0049
3001.00,0.0052
2998.00,0.0047
2995.00,0.0039
2992.00,0.0033
2989.00,0.0031
2986.00,0.0031
2983.00,0.0033
2980.00,0.0035
2977.00,0.0034
2974.00,0.0034
2971.00,0.0035
2968.00,0.0034
2965.00,0.0035
2962.00,0.0037
2959.00,0.0040
2956.00,0.0044
2953.00,0.0050
2950.00,0.0057
2947.00,0.0068
2944.00,0.0080
2941.00,0.0095
2938.00,0.0112
2935.00,0.0132
2932.00,0.0153
2929.00,0.0172
2926.00,0.0186
2923.00,0.0194
2920.00,0.0196
2917.00,0.0191
2914.00,0.0181
2911.00,0.0167
2908.00,0.0153
2905.00,0.0139
2902.00,0.0123
2899.00,0.0108
2896.00,0.0094
2893.00,0.0085
2890.00,0.0077
2887.00,0.0072
2884.00,0.0067
2881.00,0.0062
2878.00,0.0057
2875.00,0.0051
2872.00,0.0048
2869.00,0.0048
2866.00,0.0049
2863.00,0.0052
2860.00,0.0059
2857.00,0.0067
2854.00,0.0075
2851.00,0.0082
2848.00,0.0084
2845.00,0.0078
2842.00,0.0065
2839.00,0.0050
2836.00,0.0037
2833.00,0.0028
2830.00,0.0024
2827.00,0.0021
2824.00,0.0019
2821.00,0.0018
2818.00,0.0017
2815.00,0.0017
2812.00,0.0016
2809.00,0.0016
2806.00,0.0016
2803.00,0.0016
2800.00,0.0015
2797.00,0.0014
2794.00,0.0014
2791.00,0.0013
2788.00,0.0013
2785.00,0.0013
2782.00,0.0013
2779.00,0.0013
2776.00,0.0013
2773.00,0.0013
2770.00,0.0012
2767.00,0.0012
2764.00,0.0012
2761.00,0.0012
2758.00,0.0012
2755.00,0.0011
2752.00,0.0011
2749.00,0.0011
2746.00,0.0011
2743.00,0.0011
2740.00,0.0011
2737.00,0.0011
2734.00,0.0011
2731.00,0.0011
2728.00,0.0011
2725.00,0.0011
2722.00,0.0012
2719.00,0.0012
2716.00,0.0012
2713.00,0.0012
2710.00,0.0012
2707.00,0.0011
2704.00,0.0012
2701.00,0.0011
2698.00,0.0011
2695.00,0.0012
2692.00,0.0011
2689.00,0.0012
2686.00,0.0012
2683.00,0.0011
2680.00,0.0011
2677.00,0.0011
2674.00,0.0011
2671.00,0.0012
2668.00,0.0012
2665.00,0.0013
2662.00,0.0015
2659.00,0.0015
2656.00,0.0016
2653.00,0.0016
2650.00,0.0016
2647.00,0.0016
2644.00,0.0016
2641.00,0.0016
2638.00,0.0016
2635.00,0.0017
2632.00,0.0017
2629.00,0.0016
2626.00,0.0016
2623.00,0.0015
2620.00,0.0014
2617.00,0.0014
2614.00,0.0014
2611.00,0.0014
2608.00,0.0014
2605.00,0.0014
2602.00,0.0014
2599.00,0.0014
2596.00,0.0014
2593.00,0.0013
2590.00,0.0012
2587.00,0.0012
2584.00,0.0012
2581.00,0.0012
2578.00,0.0011
2575.00,0.0011
2572.00,0.0010
2569.00,0.0010
2566.00,0.0011
2563.00,0.0010
2560.00,0.0010
2557.00,0.0010
2554.00,0.0009
2551.00,0.0009
2548.00,0.0009
2545.00,0.0009
2542.00,0.0009
2539.00,0.0009
2536.00,0.0009
2533.00,0.0008
2530.00,0.0009
2527.00,0.0009
2524.00,0.0008
2521.00,0.0008
2518.00,0.0009
2515.00,0.0010
2512.00,0.0009
2509.00,0.0009
2506.00,0.0008
2503.00,0.0008
2500.00,0.0007
2497.00,0.0008
2494.00,0.0008
2491.00,0.0007
2488.00,0.0008
2485.00,0.0008
2482.00,0.0007
2479.00,0.0008
2476.00,0.0007
2473.00,0.0008
2470.00,0.0008
2467.00,0.0008
2464.00,0.0007
2461.00,0.0007
2458.00,0.0009
2455.00,0.0008
2452.00,0.0007
2449.00,0.0007
2446.00,0.0007
2443.00,0.0006
2440.00,0.0007
2437.00,0.0006
2434.00,0.0005
2431.00,0.0005
2428.00,0.0005
2425.00,0.0005
2422.00,0.0005
2419.00,0.0005
2416.00,0.0005
2413.00,0.0005
2410.00,0.0005
2407.00,0.0003
2404.00,0.0003
2401.00,0.0004
2398.00,0.0003
2395.00,0.0003
2392.00,0.0003
2389.00,0.0004
2386.00,0.0003
2383.00,0.0003
2380.00,0.0003
2377.00,0.0003
2374.00,0.0003
2371.00,0.0003
2368.00,0.0002
2365.00,0.0003
2362.00,0.0004
2359.00,0.0005
2356.00,0.0005
2353.00,0.0005
2350.00,0.0005
2347.00,0.0007
2344.00,0.0009
2341.00,0.0009
2338.00,0.0010
2335.00,0.0009
2332.00,0.0009
2329.00,0.0011
2326.00,0.0020
2323.00,0.0019
2320.00,0.0015
2317.00,0.0014
2314.00,0.0013
2311.00,0.0013
2308.00,0.0012
2305.00,0.0012
2302.00,0.0012
2299.00,0.0013
2296.00,0.0013
2293.00,0.0015
2290.00,0.0016
2287.00,0.0017
2284.00,0.0016
2281.00,0.0013
2278.00,0.0012
2275.00,0.0011
2272.00,0.0013
2269.00,0.0012
2266.00,0.0010
2263.00,0.0010
2260.00,0.0011
2257.00,0.0009
2254.00,0.0007
2251.00,0.0007
2248.00,0.0007
2245.00,0.0008
2242.00,0.0008
2239.00,0.0008
2236.00,0.0009
2233.00,0.0009
2230.00,0.0010
2227.00,0.0009
2224.00,0.0009
2221.00,0.0008
2218.00,0.0008
2215.00,0.0006
2212.00,0.0006
2209.00,0.0006
2206.00,0.0006
2203.00,0.0007
2200.00,0.0005
2197.00,0.0009
2194.00,0.0010
2191.00,0.0009
2188.00,0.0008
2185.00,0.0009
2182.00,0.0003
2179.00,0.0002
2176.00,-0.0001
2173.00,0.0001
2170.00,0.0011
2167.00,0.0015
2164.00,0.0019
2161.00,0.0005
2158.00,-0.0026
2155.00,-0.0019
2152.00,-0.0013
2149.00,-0.0014
2146.00,-0.0013
2143.00,-0.0014
2140.00,-0.0013
2137.00,-0.0015
2134.00,-0.0020
2131.00,-0.0014
2128.00,-0.0007
2125.00,-0.0005
2122.00,-0.0003
2119.00,-0.0000
2116.00,0.0002
2113.00,0.0004
2110.00,0.0004
2107.00,0.0003
2104.00,0.0002
2101.00,0.0003
2098.00,0.0000
2095.00,-0.0003
2092.00,-0.0000
2089.00,0.0002
2086.00,0.0004
2083.00,0.0005
2080.00,0.0005
2077.00,0.0005
2074.00,0.0005
2071.00,0.0004
2068.00,0.0001
2065.00,0.0001
2062.00,0.0002
2059.00,0.0002
2056.00,0.0003
2053.00,0.0009
2050.00,0.0010
2047.00,0.0002
2044.00,0.0004
2041.00,0.0005
2038.00,0.0005
2035.00,0.0005
2032.00,-0.0002
2029.00,-0.0004
2026.00,-0.0002
2023.00,-0.0004
2020.00,-0.0007
2017.00,-0.0006
2014.00,-0.0002
2011.00,-0.0002
2008.00,-0.0007
2005.00,-0.0011
2002.00,-0.0004
1999.00,-0.0001
1996.00,-0.0001
1993.00,0.0001
1990.00,0.0002
1987.00,0.0006
1984.00,0.0009
1981.00,0.0016
1978.00,0.0002
1975.00,-0.0003
1972.00,-0.0002
1969.00,-0.0001
1966.00,0.0003
1963.00,0.0007
1960.00,0.0004
1957.00,0.0004
1954.00,0.0011
1951.00,0.0014
1948.00,0.0017
1945.00,0.0019
1942.00,0.0019
1939.00,0.0018
1936.00,0.0013
1933.00,0.0008
1930.00,0.0005
1927.00,0.0002
1924.00,0.0001
1921.00,0.0001
1918.00,0.0000
1915.00,0.0001
1912.00,0.0002
1909.00,0.0001
1906.00,0.0001
1903.00,0.0003
1900.00,0.0004
1897.00,0.0005
1894.00,0.0007
1891.00,0.0010
1888.00,0.0013
1885.00,0.0015
1882.00,0.0016
1879.00,0.0017
1876.00,0.0019
1873.00,0.0020
1870.00,0.0020
1867.00,0.0019
1864.00,0.0017
1861.00,0.0015
1858.00,0.0011
1855.00,0.0008
1852.00,0.0007
1849.00,0.0006
1846.00,0.0004
1843.00,0.0003
1840.00,0.0003
1837.00,0.0004
1834.00,0.0004
1831.00,0.0005
1828.00,0.0007
1825.00,0.0009
1822.00,0.0012
1819.00,0.0011
1816.00,0.0013
1813.00,0.0016
1810.00,0.0020
1807.00,0.0023
1804.00,0.0025
1801.00,0.0025
1798.00,0.0024
1795.00,0.0021
1792.00,0.0017
1789.00,0.0014
1786.00,0.0013
1783.00,0.0013
1780.00,0.0013
1777.00,0.0013
1774.00,0.0014
1771.00,0.0014
1768.00,0.0015
1765.00,0.0016
1762.00,0.0017
1759.00,0.0020
1756.00,0.0022
1753.00,0.0025
1750.00,0.0026
1747.00,0.0028
1744.00,0.0030
1741.00,0.0031
1738.00,0.0030
1735.00,0.0029
1732.00,0.0026
1729.00,0.0024
1726.00,0.0024
1723.00,0.0022
1720.00,0.0021
1717.00,0.0020
1714.00,0.0019
1711.00,0.0019
1708.00,0.0019
1705.00,0.0019
1702.00,0.0020
1699.00,0.0019
1696.00,0.0019
1693.00,0.0021
1690.00,0.0021
1687.00,0.0022
1684.00,0.0024
1681.00,0.0024
1678.00,0.0026
1675.00,0.0028
1672.00,0.0029
1669.00,0.0032
1666.00,0.0032
1663.00,0.0031
1660.00,0.0030
1657.00,0.0028
1654.00,0.0026
1651.00,0.0026
1648.00,0.0022
1645.00,0.0022
1642.00,0.0021
1639.00,0.0019
1636.00,0.0018
1633.00,0.0018
1630.00,0.0019
1627.00,0.0020
1624.00,0.0020
1621.00,0.0021
1618.00,0.0024
1615.00,0.0028
1612.00,0.0035
1609.00,0.0056
1606.00,0.0103
1603.00,0.0164
1600.00,0.0179
1597.00,0.0128
1594.00,0.0081
1591.00,0.0058
1588.00,0.0053
1585.00,0.0069
1582.00,0.0074
1579.00,0.0050
1576.00,0.0033
1573.00,0.0026
1570.00,0.0022
1567.00,0.0019
1564.00,0.0018
1561.00,0.0018
1558.00,0.0018
1555.00,0.0019
1552.00,0.0022
1549.00,0.0025
1546.00,0.0027
1543.00,0.0028
1540.00,0.0028
1537.00,0.0027
1534.00,0.0024
1531.00,0.0020
1528.00,0.0018
1525.00,0.0017
1522.00,0.0017
1519.00,0.0018
1516.00,0.0018
1513.00,0.0020
1510.00,0.0023
1507.00,0.0026
1504.00,0.0039
1501.00,0.0062
1498.00,0.0137
1495.00,0.0353
1492.00,0.0467
1489.00,0.0281
1486.00,0.0144
1483.00,0.0089
1480.00,0.0062
1477.00,0.0051
1474.00,0.0047
1471.00,0.0047
1468.00,0.0050
1465.00,0.0055
1462.00,0.0067
1459.00,0.0097
1456.00,0.0260
1453.00,0.0445
1450.00,0.0444
1447.00,0.0335
1444.00,0.0263
1441.00,0.0204
1438.00,0.0160
1435.00,0.0110
1432.00,0.0082
1429.00,0.0062
1426.00,0.0052
1423.00,0.0045
1420.00,0.0042
1417.00,0.0039
1414.00,0.0038
1411.00,0.0037
1408.00,0.0038
1405.00,0.0037
1402.00,0.0039
1399.00,0.0040
1396.00,0.0042
1393.00,0.0048
1390.00,0.0057
1387.00,0.0067
1384.00,0.0078
1381.00,0.0087
1378.00,0.0096
1375.00,0.0103
1372.00,0.0105
1369.00,0.0104
1366.00,0.0101
1363.00,0.0097
1360.00,0.0093
1357.00,0.0090
1354.00,0.0087
1351.00,0.0086
1348.00,0.0085
1345.00,0.0082
1342.00,0.0077
1339.00,0.0073
1336.00,0.0074
1333.00,0.0081
1330.00,0.0087
1327.00,0.0088
1324.00,0.0084
1321.00,0.0081
1318.00,0.0081
1315.00,0.0083
1312.00,0.0085
1309.00,0.0084
1306.00,0.0080
1303.00,0.0075
1300.00,0.0071
1297.00,0.0071
1294.00,0.0070
1291.00,0.0068
1288.00,0.0064
1285.00,0.0062
1282.00,0.0062
1279.00,0.0061
1276.00,0.0058
1273.00,0.0053
1270.00,0.0050
1267.00,0.0048
1264.00,0.0047
1261.00,0.0045
1258.00,0.0046
1255.00,0.0047
1252.00,0.0048
1249.00,0.0049
1246.00,0.0049
1243.00,0.0048
1240.00,0.0048
1237.00,0.0047
1234.00,0.0046
1231.00,0.0046
1228.00,0.0046
1225.00,0.0047
1222.00,0.0047
1219.00,0.0047
1216.00,0.0047
1213.00,0.0050
1210.00,0.0052
1207.00,0.0056
1204.00,0.0062
1201.00,0.0068
1198.00,0.0072
1195.00,0.0074
1192.00,0.0075
1189.00,0.0078
1186.00,0.0087
1183.00,0.0101
1180.00,0.0104
1177.00,0.0085
1174.00,0.0069
1171.00,0.0063
1168.00,0.0063
1165.00,0.0064
1162.00,0.0069
1159.00,0.0085
1156.00,0.0106
1153.00,0.0107
1150.00,0.0083
1147.00,0.0064
1144.00,0.0055
1141.00,0.0049
1138.00,0.0045
1135.00,0.0045
1132.00,0.0045
1129.00,0.0045
1126.00,0.0045
1123.00,0.0046
1120.00,0.0050
1117.00,0.0055
1114.00,0.0059
1111.00,0.0060
1108.00,0.0059
1105.00,0.0058
1102.00,0.0059
1099.00,0.0062
1096.00,0.0065
1093.00,0.0070
1090.00,0.0073
1087.00,0.0078
1084.00,0.0086
1081.00,0.0098
1078.00,0.0108
1075.00,0.0123
1072.00,0.0142
1069.00,0.0152
1066.00,0.0145
1063.00,0.0128
1060.00,0.0111
1057.00,0.0098
1054.00,0.0089
1051.00,0.0081
1048.00,0.0077
1045.00,0.0074
1042.00,0.0072
1039.00,0.0079
1036.00,0.0108
1033.00,0.0172
1030.00,0.0238
1027.00,0.0251
1024.00,0.0205
1021.00,0.0160
1018.00,0.0134
1015.00,0.0116
1012.00,0.0105
1009.00,0.0100
1006.00,0.0104
1003.00,0.0109
1000.00,0.0095
997.00,0.0080
994.00,0.0077
991.00,0.0077
988.00,0.0081
985.00,0.0089
982.00,0.0097
979.00,0.0100
976.00,0.0096
973.00,0.0092
970.00,0.0098
967.00,0.0109
964.00,0.0113
961.00,0.0106
958.00,0.0093
955.00,0.0085
952.00,0.0084
949.00,0.0087
946.00,0.0089
943.00,0.0091
940.00,0.0088
937.00,0.0079
934.00,0.0070
931.00,0.0063
928.00,0.0060
925.00,0.0062
922.00,0.0065
919.00,0.0073
916.00,0.0090
913.00,0.0118
910.00,0.0153
907.00,0.0176
904.00,0.0165
901.00,0.0130
898.00,0.0092
895.00,0.0071
892.00,0.0061
889.00,0.0055
886.00,0.0051
883.00,0.0047
880.00,0.0046
877.00,0.0046
874.00,0.0043
871.00,0.0040
868.00,0.0040
865.00,0.0040
862.00,0.0041
859.00,0.0040
856.00,0.0042
853.00,0.0048
850.00,0.0058
847.00,0.0073
844.00,0.0086
841.00,0.0090
838.00,0.0081
835.00,0.0063
832.00,0.0049
829.00,0.0042
826.00,0.0040
823.00,0.0039
820.00,0.0040
817.00,0.0041
814.00,0.0041
811.00,0.0041
808.00,0.0043
805.00,0.0044
802.00,0.0046
799.00,0.0050
796.00,0.0058
793.00,0.0069
790.00,0.0083
787.00,0.0100
784.00,0.0121
781.00,0.0149
778.00,0.0189
775.00,0.0247
772.00,0.0323
769.00,0.0415
766.00,0.0506
763.00,0.0595
760.00,0.0686
757.00,0.0758
754.00,0.0775
751.00,0.0766
748.00,0.0759
745.00,0.0695
742.00,0.0549
739.00,0.0403
736.00,0.0288
733.00,0.0193
730.00,0.0129
727.00,0.0099
724.00,0.0088
721.00,0.0087
718.00,0.0093
715.00,0.0113
712.00,0.0169
709.00,0.0313
706.00,0.0606
703.00,0.1069
700.00,0.1664
697.00,0.2250
694.00,0.2349
691.00,0.1692
688.00,0.1069
685.00,0.0744
682.00,0.0567
679.00,0.0457
676.00,0.0390
673.00,0.0345
670.00,0.0312
667.00,0.0277
664.00,0.0247
661.00,0.0218
658.00,0.0190
655.00,0.0166
652.00,0.0149
649.00,0.0134
646.00,0.0124
643.00,0.0118
640.00,0.0118
637.00,0.0126
634.00,0.0136
631.00,0.0145
628.00,0.0152
625.00,0.0157
622.00,0.0165
619.00,0.0162
616.00,0.0148
613.00,0.0140
610.00,0.0133
607.00,0.0128
604.00,0.0129
601.00,0.0133
598.00,0.0138
595.00,0.0143
592.00,0.0149
589.00,0.0158
586.00,0.0164
583.00,0.0171
580.00,0.0193
577.00,0.0219
574.00,0.0250
571.00,0.0281
568.00,0.0315
565.00,0.0348
562.00,0.0379
559.00,0.0410
556.00,0.0444
553.00,0.0480
550.00,0.0524
547.00,0.0586
544.00,0.0665
541.00,0.0741
538.00,0.0778
535.00,0.0732
532.00,0.0625
529.00,0.0512
526.00,0.0412
523.00,0.0342
520.00,0.0298
517.00,0.0266
514.00,0.0242
511.00,0.0220
508.00,0.0195
505.00,0.0180
502.00,0.0166
499.00,0.0152
496.00,0.0146
493.00,0.0140
490.00,0.0134
487.00,0.0124
484.00,0.0121
481.00,0.0114
478.00,0.0111
475.00,0.0102
472.00,0.0105
469.00,0.0109
466.00,0.0103
463.00,0.0104
460.00,0.0100
457.00,0.0093
454.00,0.0089
451.00,0.0088
448.00,0.0095
445.00,0.0091
442.00,0.0091
439.00,0.0089
436.00,0.0088
433.00,0.0091
430.00,0.0084
427.00,0.0070
424.00,0.0073
421.00,0.0078
418.00,0.0073
415.00,0.0078
412.00,0.0075
409.00,0.0085
406.00,0.0095
403.00,0.0073
400.00,0.0074