File: FTIR/Olivia/2025_07_28_Polystyrene_Std_scan3.csv
Created as New Dataset,Sample 934 By YargerLab Date Monday, July 28 2025
cm-1,A
4000.00,0.0019
3997.00,0.0018
3994.00,0.0019
3991.00,0.0019
3988.00,0.0018
3985.00,0.0018
3982.00,0.0018
3979.00,0.0018
3976.00,0.0018
3973.00,0.0019
3970.00,0.0018
3967.00,0.0018
3964.00,0.0018
3961.00,0.0018
3958.00,0.0019
3955.00,0.0018
3952.00,0.0018
3949.00,0.0017
3946.00,0.0017
3943.00,0.0018
3940.00,0.0018
3937.00,0.0018
3934.00,0.0017
3931.00,0.0018
3928.00,0.0017
3925.00,0.0017
3922.00,0.0018
3919.00,0.0017
3916.00,0.0017
3913.00,0.0018
3910.00,0.0018
3907.00,0.0018
3904.00,0.0017
3901.00,0.0016
3898.00,0.0016
3895.00,0.0017
3892.00,0.0017
3889.00,0.0017
3886.00,0.0016
3883.00,0.0016
3880.00,0.0016
3877.00,0.0016
3874.00,0.0016
3871.00,0.0016
3868.00,0.0016
3865.00,0.0015
3862.00,0.0016
3859.00,0.0016
3856.00,0.0019
3853.00,0.0018
3850.00,0.0015
3847.00,0.0016
3844.00,0.0016
3841.00,0.0016
3838.00,0.0016
3835.00,0.0016
3832.00,0.0016
3829.00,0.0016
3826.00,0.0017
3823.00,0.0016
3820.00,0.0017
3817.00,0.0016
3814.00,0.0017
3811.00,0.0017
3808.00,0.0018
3805.00,0.0017
3802.00,0.0016
3799.00,0.0017
3796.00,0.0017
3793.00,0.0017
3790.00,0.0018
3787.00,0.0018
3784.00,0.0018
3781.00,0.0017
3778.00,0.0017
3775.00,0.0017
3772.00,0.0017
3769.00,0.0017
3766.00,0.0017
3763.00,0.0017
3760.00,0.0017
3757.00,0.0016
3754.00,0.0016
3751.00,0.0015
3748.00,0.0015
3745.00,0.0014
3742.00,0.0015
3739.00,0.0014
3736.00,0.0014
3733.00,0.0014
3730.00,0.0015
3727.00,0.0015
3724.00,0.0016
3721.00,0.0015
3718.00,0.0016
3715.00,0.0016
3712.00,0.0015
3709.00,0.0016
3706.00,0.0016
3703.00,0.0016
3700.00,0.0016
3697.00,0.0016
3694.00,0.0016
3691.00,0.0015
3688.00,0.0014
3685.00,0.0014
3682.00,0.0015
3679.00,0.0016
3676.00,0.0015
3673.00,0.0014
3670.00,0.0014
3667.00,0.0015
3664.00,0.0014
3661.00,0.0015
3658.00,0.0015
3655.00,0.0015
3652.00,0.0014
3649.00,0.0014
3646.00,0.0014
3643.00,0.0015
3640.00,0.0016
3637.00,0.0015
3634.00,0.0015
3631.00,0.0015
3628.00,0.0015
3625.00,0.0014
3622.00,0.0016
3619.00,0.0016
3616.00,0.0015
3613.00,0.0014
3610.00,0.0013
3607.00,0.0014
3604.00,0.0015
3601.00,0.0015
3598.00,0.0015
3595.00,0.0015
3592.00,0.0015
3589.00,0.0014
3586.00,0.0014
3583.00,0.0015
3580.00,0.0016
3577.00,0.0016
3574.00,0.0016
3571.00,0.0015
3568.00,0.0014
3565.00,0.0014
3562.00,0.0015
3559.00,0.0016
3556.00,0.0017
3553.00,0.0017
3550.00,0.0017
3547.00,0.0016
3544.00,0.0017
3541.00,0.0019
3538.00,0.0018
3535.00,0.0018
3532.00,0.0018
3529.00,0.0018
3526.00,0.0018
3523.00,0.0019
3520.00,0.0019
3517.00,0.0019
3514.00,0.0020
3511.00,0.0020
3508.00,0.0020
3505.00,0.0019
3502.00,0.0020
3499.00,0.0020
3496.00,0.0020
3493.00,0.0020
3490.00,0.0020
3487.00,0.0021
3484.00,0.0021
3481.00,0.0021
3478.00,0.0021
3475.00,0.0021
3472.00,0.0021
3469.00,0.0021
3466.00,0.0021
3463.00,0.0021
3460.00,0.0021
3457.00,0.0021
3454.00,0.0022
3451.00,0.0022
3448.00,0.0022
3445.00,0.0022
3442.00,0.0022
3439.00,0.0022
3436.00,0.0021
3433.00,0.0021
3430.00,0.0021
3427.00,0.0021
3424.00,0.0020
3421.00,0.0020
3418.00,0.0021
3415.00,0.0021
3412.00,0.0021
3409.00,0.0021
3406.00,0.0021
3403.00,0.0020
3400.00,0.0020
3397.00,0.0020
3394.00,0.0020
3391.00,0.0020
3388.00,0.0020
3385.00,0.0020
3382.00,0.0020
3379.00,0.0020
3376.00,0.0020
3373.00,0.0020
3370.00,0.0020
3367.00,0.0019
3364.00,0.0019
3361.00,0.0019
3358.00,0.0019
3355.00,0.0019
3352.00,0.0020
3349.00,0.0019
3346.00,0.0019
3343.00,0.0019
3340.00,0.0019
3337.00,0.0019
3334.00,0.0019
3331.00,0.0019
3328.00,0.0020
3325.00,0.0019
3322.00,0.0018
3319.00,0.0019
3316.00,0.0019
3313.00,0.0018
3310.00,0.0017
3307.00,0.0018
3304.00,0.0018
3301.00,0.0018
3298.00,0.0018
3295.00,0.0018
3292.00,0.0018
3289.00,0.0018
3286.00,0.0018
3283.00,0.0017
3280.00,0.0017
3277.00,0.0017
3274.00,0.0017
3271.00,0.0017
3268.00,0.0017
3265.00,0.0017
3262.00,0.0017
3259.00,0.0017
3256.00,0.0017
3253.00,0.0017
3250.00,0.0017
3247.00,0.0016
3244.00,0.0016
3241.00,0.0017
3238.00,0.0016
3235.00,0.0016
3232.00,0.0016
3229.00,0.0016
3226.00,0.0016
3223.00,0.0016
3220.00,0.0016
3217.00,0.0016
3214.00,0.0016
3211.00,0.0017
3208.00,0.0018
3205.00,0.0018
3202.00,0.0018
3199.00,0.0017
3196.00,0.0017
3193.00,0.0017
3190.00,0.0016
3187.00,0.0016
3184.00,0.0016
3181.00,0.0016
3178.00,0.0016
3175.00,0.0016
3172.00,0.0017
3169.00,0.0018
3166.00,0.0018
3163.00,0.0019
3160.00,0.0018
3157.00,0.0017
3154.00,0.0017
3151.00,0.0017
3148.00,0.0016
3145.00,0.0016
3142.00,0.0016
3139.00,0.0016
3136.00,0.0016
3133.00,0.0017
3130.00,0.0017
3127.00,0.0017
3124.00,0.0018
3121.00,0.0019
3118.00,0.0021
3115.00,0.0024
3112.00,0.0030
3109.00,0.0038
3106.00,0.0045
3103.00,0.0048
3100.00,0.0047
3097.00,0.0046
3094.00,0.0050
3091.00,0.0064
3088.00,0.0087
3085.00,0.0113
3082.00,0.0121
3079.00,0.0108
3076.00,0.0093
3073.00,0.0089
3070.00,0.0098
3067.00,0.0119
3064.00,0.0148
3061.00,0.0168
3058.00,0.0162
3055.00,0.0136
3052.00,0.0110
3049.00,0.0093
3046.00,0.0086
3043.00,0.0089
3040.00,0.0104
3037.00,0.0130
3034.00,0.0175
3031.00,0.0241
3028.00,0.0306
3025.00,0.0325
3022.00,0.0273
3019.00,0.0191
3016.00,0.0129
3013.00,0.0095
3010.00,0.0081
3007.00,0.0081
3004.00,0.0088
3001.00,0.0088
2998.00,0.0073
2995.00,0.0054
2992.00,0.0043
2989.00,0.0038
2986.00,0.0036
2983.00,0.0031
2980.00,0.0030
2977.00,0.0033
2974.00,0.0036
2971.00,0.0037
2968.00,0.0041
2965.00,0.0047
2962.00,0.0054
2959.00,0.0063
2956.00,0.0075
2953.00,0.0089
2950.00,0.0107
2947.00,0.0129
2944.00,0.0154
2941.00,0.0184
2938.00,0.0219
2935.00,0.0258
2932.00,0.0299
2929.00,0.0335
2926.00,0.0362
2923.00,0.0375
2920.00,0.0372
2917.00,0.0359
2914.00,0.0338
2911.00,0.0314
2908.00,0.0287
2905.00,0.0257
2902.00,0.0227
2899.00,0.0198
2896.00,0.0174
2893.00,0.0155
2890.00,0.0141
2887.00,0.0131
2884.00,0.0121
2881.00,0.0112
2878.00,0.0104
2875.00,0.0097
2872.00,0.0092
2869.00,0.0091
2866.00,0.0095
2863.00,0.0103
2860.00,0.0116
2857.00,0.0133
2854.00,0.0149
2851.00,0.0159
2848.00,0.0159
2845.00,0.0148
2842.00,0.0124
2839.00,0.0096
2836.00,0.0072
2833.00,0.0057
2830.00,0.0048
2827.00,0.0044
2824.00,0.0041
2821.00,0.0039
2818.00,0.0038
2815.00,0.0037
2812.00,0.0036
2809.00,0.0035
2806.00,0.0034
2803.00,0.0033
2800.00,0.0033
2797.00,0.0032
2794.00,0.0031
2791.00,0.0030
2788.00,0.0030
2785.00,0.0030
2782.00,0.0030
2779.00,0.0029
2776.00,0.0028
2773.00,0.0028
2770.00,0.0028
2767.00,0.0027
2764.00,0.0026
2761.00,0.0026
2758.00,0.0026
2755.00,0.0026
2752.00,0.0026
2749.00,0.0026
2746.00,0.0026
2743.00,0.0025
2740.00,0.0025
2737.00,0.0025
2734.00,0.0025
2731.00,0.0025
2728.00,0.0025
2725.00,0.0025
2722.00,0.0025
2719.00,0.0025
2716.00,0.0025
2713.00,0.0025
2710.00,0.0025
2707.00,0.0025
2704.00,0.0025
2701.00,0.0025
2698.00,0.0025
2695.00,0.0025
2692.00,0.0025
2689.00,0.0025
2686.00,0.0025
2683.00,0.0025
2680.00,0.0025
2677.00,0.0025
2674.00,0.0025
2671.00,0.0025
2668.00,0.0025
2665.00,0.0027
2662.00,0.0028
2659.00,0.0029
2656.00,0.0030
2653.00,0.0030
2650.00,0.0030
2647.00,0.0030
2644.00,0.0030
2641.00,0.0031
2638.00,0.0031
2635.00,0.0032
2632.00,0.0032
2629.00,0.0031
2626.00,0.0029
2623.00,0.0029
2620.00,0.0029
2617.00,0.0028
2614.00,0.0028
2611.00,0.0028
2608.00,0.0028
2605.00,0.0028
2602.00,0.0028
2599.00,0.0027
2596.00,0.0026
2593.00,0.0025
2590.00,0.0025
2587.00,0.0025
2584.00,0.0025
2581.00,0.0025
2578.00,0.0025
2575.00,0.0024
2572.00,0.0023
2569.00,0.0023
2566.00,0.0023
2563.00,0.0022
2560.00,0.0021
2557.00,0.0021
2554.00,0.0022
2551.00,0.0021
2548.00,0.0021
2545.00,0.0021
2542.00,0.0021
2539.00,0.0021
2536.00,0.0021
2533.00,0.0021
2530.00,0.0021
2527.00,0.0020
2524.00,0.0021
2521.00,0.0020
2518.00,0.0020
2515.00,0.0021
2512.00,0.0020
2509.00,0.0019
2506.00,0.0020
2503.00,0.0019
2500.00,0.0019
2497.00,0.0018
2494.00,0.0019
2491.00,0.0019
2488.00,0.0019
2485.00,0.0018
2482.00,0.0018
2479.00,0.0018
2476.00,0.0017
2473.00,0.0017
2470.00,0.0018
2467.00,0.0018
2464.00,0.0018
2461.00,0.0018
2458.00,0.0018
2455.00,0.0019
2452.00,0.0018
2449.00,0.0017
2446.00,0.0017
2443.00,0.0017
2440.00,0.0017
2437.00,0.0016
2434.00,0.0016
2431.00,0.0015
2428.00,0.0014
2425.00,0.0014
2422.00,0.0013
2419.00,0.0013
2416.00,0.0014
2413.00,0.0014
2410.00,0.0014
2407.00,0.0012
2404.00,0.0012
2401.00,0.0012
2398.00,0.0013
2395.00,0.0012
2392.00,0.0011
2389.00,0.0011
2386.00,0.0011
2383.00,0.0011
2380.00,0.0011
2377.00,0.0012
2374.00,0.0011
2371.00,0.0010
2368.00,0.0011
2365.00,0.0013
2362.00,0.0014
2359.00,0.0016
2356.00,0.0016
2353.00,0.0016
2350.00,0.0017
2347.00,0.0019
2344.00,0.0019
2341.00,0.0020
2338.00,0.0022
2335.00,0.0022
2332.00,0.0021
2329.00,0.0023
2326.00,0.0034
2323.00,0.0032
2320.00,0.0028
2317.00,0.0026
2314.00,0.0025
2311.00,0.0025
2308.00,0.0024
2305.00,0.0024
2302.00,0.0022
2299.00,0.0022
2296.00,0.0024
2293.00,0.0027
2290.00,0.0029
2287.00,0.0029
2284.00,0.0026
2281.00,0.0022
2278.00,0.0021
2275.00,0.0020
2272.00,0.0021
2269.00,0.0019
2266.00,0.0017
2263.00,0.0019
2260.00,0.0019
2257.00,0.0018
2254.00,0.0016
2251.00,0.0017
2248.00,0.0016
2245.00,0.0016
2242.00,0.0016
2239.00,0.0015
2236.00,0.0015
2233.00,0.0016
2230.00,0.0016
2227.00,0.0015
2224.00,0.0014
2221.00,0.0015
2218.00,0.0013
2215.00,0.0012
2212.00,0.0012
2209.00,0.0015
2206.00,0.0013
2203.00,0.0013
2200.00,0.0014
2197.00,0.0014
2194.00,0.0016
2191.00,0.0017
2188.00,0.0018
2185.00,0.0015
2182.00,0.0010
2179.00,0.0011
2176.00,0.0005
2173.00,0.0007
2170.00,0.0016
2167.00,0.0020
2164.00,0.0024
2161.00,0.0002
2158.00,-0.0030
2155.00,-0.0021
2152.00,-0.0012
2149.00,-0.0010
2146.00,-0.0009
2143.00,-0.0008
2140.00,-0.0011
2137.00,-0.0014
2134.00,-0.0016
2131.00,-0.0011
2128.00,-0.0004
2125.00,-0.0000
2122.00,0.0001
2119.00,0.0004
2116.00,0.0009
2113.00,0.0010
2110.00,0.0009
2107.00,0.0010
2104.00,0.0009
2101.00,0.0010
2098.00,0.0006
2095.00,0.0002
2092.00,0.0005
2089.00,0.0008
2086.00,0.0010
2083.00,0.0010
2080.00,0.0011
2077.00,0.0012
2074.00,0.0009
2071.00,0.0009
2068.00,0.0007
2065.00,0.0006
2062.00,0.0006
2059.00,0.0005
2056.00,0.0005
2053.00,0.0014
2050.00,0.0014
2047.00,0.0006
2044.00,0.0005
2041.00,0.0008
2038.00,0.0009
2035.00,0.0006
2032.00,-0.0002
2029.00,-0.0005
2026.00,-0.0000
2023.00,0.0001
2020.00,-0.0001
2017.00,-0.0001
2014.00,0.0000
2011.00,0.0003
2008.00,-0.0002
2005.00,-0.0008
2002.00,-0.0004
1999.00,0.0000
1996.00,0.0005
1993.00,0.0011
1990.00,0.0013
1987.00,0.0016
1984.00,0.0022
1981.00,0.0025
1978.00,0.0006
1975.00,0.0003
1972.00,0.0003
1969.00,0.0008
1966.00,0.0011
1963.00,0.0015
1960.00,0.0016
1957.00,0.0021
1954.00,0.0026
1951.00,0.0030
1948.00,0.0036
1945.00,0.0042
1942.00,0.0044
1939.00,0.0039
1936.00,0.0033
1933.00,0.0024
1930.00,0.0018
1927.00,0.0015
1924.00,0.0011
1921.00,0.0010
1918.00,0.0008
1915.00,0.0008
1912.00,0.0009
1909.00,0.0010
1906.00,0.0010
1903.00,0.0010
1900.00,0.0012
1897.00,0.0017
1894.00,0.0021
1891.00,0.0024
1888.00,0.0028
1885.00,0.0031
1882.00,0.0034
1879.00,0.0037
1876.00,0.0039
1873.00,0.0040
1870.00,0.0042
1867.00,0.0040
1864.00,0.0035
1861.00,0.0030
1858.00,0.0024
1855.00,0.0019
1852.00,0.0015
1849.00,0.0013
1846.00,0.0012
1843.00,0.0011
1840.00,0.0010
1837.00,0.0011
1834.00,0.0012
1831.00,0.0015
1828.00,0.0018
1825.00,0.0022
1822.00,0.0025
1819.00,0.0026
1816.00,0.0029
1813.00,0.0035
1810.00,0.0041
1807.00,0.0045
1804.00,0.0048
1801.00,0.0049
1798.00,0.0045
1795.00,0.0039
1792.00,0.0032
1789.00,0.0027
1786.00,0.0024
1783.00,0.0024
1780.00,0.0023
1777.00,0.0023
1774.00,0.0025
1771.00,0.0025
1768.00,0.0025
1765.00,0.0026
1762.00,0.0031
1759.00,0.0035
1756.00,0.0039
1753.00,0.0044
1750.00,0.0051
1747.00,0.0056
1744.00,0.0060
1741.00,0.0060
1738.00,0.0061
1735.00,0.0059
1732.00,0.0056
1729.00,0.0053
1726.00,0.0050
1723.00,0.0046
1720.00,0.0042
1717.00,0.0040
1714.00,0.0038
1711.00,0.0037
1708.00,0.0037
1705.00,0.0036
1702.00,0.0034
1699.00,0.0032
1696.00,0.0031
1693.00,0.0030
1690.00,0.0031
1687.00,0.0031
1684.00,0.0033
1681.00,0.0035
1678.00,0.0034
1675.00,0.0034
1672.00,0.0034
1669.00,0.0032
1666.00,0.0030
1663.00,0.0028
1660.00,0.0026
1657.00,0.0024
1654.00,0.0023
1651.00,0.0022
1648.00,0.0021
1645.00,0.0021
1642.00,0.0022
1639.00,0.0023
1636.00,0.0022
1633.00,0.0024
1630.00,0.0024
1627.00,0.0025
1624.00,0.0026
1621.00,0.0027
1618.00,0.0030
1615.00,0.0040
1612.00,0.0055
1609.00,0.0095
1606.00,0.0180
1603.00,0.0281
1600.00,0.0292
1597.00,0.0203
1594.00,0.0128
1591.00,0.0092
1588.00,0.0085
1585.00,0.0112
1582.00,0.0114
1579.00,0.0074
1576.00,0.0048
1573.00,0.0037
1570.00,0.0031
1567.00,0.0028
1564.00,0.0027
1561.00,0.0027
1558.00,0.0027
1555.00,0.0030
1552.00,0.0034
1549.00,0.0039
1546.00,0.0042
1543.00,0.0044
1540.00,0.0041
1537.00,0.0038
1534.00,0.0035
1531.00,0.0031
1528.00,0.0028
1525.00,0.0027
1522.00,0.0026
1519.00,0.0027
1516.00,0.0029
1513.00,0.0030
1510.00,0.0036
1507.00,0.0043
1504.00,0.0060
1501.00,0.0100
1498.00,0.0237
1495.00,0.0600
1492.00,0.0735
1489.00,0.0433
1486.00,0.0224
1483.00,0.0134
1480.00,0.0092
1477.00,0.0075
1474.00,0.0067
1471.00,0.0066
1468.00,0.0068
1465.00,0.0076
1462.00,0.0098
1459.00,0.0159
1456.00,0.0449
1453.00,0.0735
1450.00,0.0705
1447.00,0.0531
1444.00,0.0410
1441.00,0.0311
1438.00,0.0239
1435.00,0.0168
1432.00,0.0122
1429.00,0.0090
1426.00,0.0073
1423.00,0.0064
1420.00,0.0059
1417.00,0.0057
1414.00,0.0053
1411.00,0.0051
1408.00,0.0050
1405.00,0.0049
1402.00,0.0048
1399.00,0.0050
1396.00,0.0055
1393.00,0.0064
1390.00,0.0077
1387.00,0.0094
1384.00,0.0109
1381.00,0.0123
1378.00,0.0136
1375.00,0.0150
1372.00,0.0156
1369.00,0.0154
1366.00,0.0150
1363.00,0.0147
1360.00,0.0140
1357.00,0.0133
1354.00,0.0131
1351.00,0.0130
1348.00,0.0129
1345.00,0.0123
1342.00,0.0117
1339.00,0.0113
1336.00,0.0115
1333.00,0.0122
1330.00,0.0131
1327.00,0.0132
1324.00,0.0126
1321.00,0.0122
1318.00,0.0122
1315.00,0.0126
1312.00,0.0129
1309.00,0.0125
1306.00,0.0118
1303.00,0.0110
1300.00,0.0103
1297.00,0.0099
1294.00,0.0096
1291.00,0.0093
1288.00,0.0090
1285.00,0.0088
1282.00,0.0088
1279.00,0.0086
1276.00,0.0080
1273.00,0.0074
1270.00,0.0069
1267.00,0.0066
1264.00,0.0063
1261.00,0.0061
1258.00,0.0062
1255.00,0.0063
1252.00,0.0065
1249.00,0.0067
1246.00,0.0068
1243.00,0.0067
1240.00,0.0066
1237.00,0.0064
1234.00,0.0063
1231.00,0.0064
1228.00,0.0066
1225.00,0.0067
1222.00,0.0067
1219.00,0.0067
1216.00,0.0068
1213.00,0.0071
1210.00,0.0075
1207.00,0.0081
1204.00,0.0090
1201.00,0.0098
1198.00,0.0104
1195.00,0.0106
1192.00,0.0108
1189.00,0.0111
1186.00,0.0125
1183.00,0.0147
1180.00,0.0148
1177.00,0.0119
1174.00,0.0095
1171.00,0.0086
1168.00,0.0082
1165.00,0.0083
1162.00,0.0090
1159.00,0.0113
1156.00,0.0142
1153.00,0.0140
1150.00,0.0105
1147.00,0.0079
1144.00,0.0067
1141.00,0.0059
1138.00,0.0054
1135.00,0.0052
1132.00,0.0050
1129.00,0.0050
1126.00,0.0052
1123.00,0.0055
1120.00,0.0061
1117.00,0.0069
1114.00,0.0075
1111.00,0.0077
1108.00,0.0075
1105.00,0.0073
1102.00,0.0074
1099.00,0.0077
1096.00,0.0081
1093.00,0.0085
1090.00,0.0090
1087.00,0.0098
1084.00,0.0110
1081.00,0.0124
1078.00,0.0139
1075.00,0.0161
1072.00,0.0187
1069.00,0.0200
1066.00,0.0188
1063.00,0.0162
1060.00,0.0138
1057.00,0.0122
1054.00,0.0113
1051.00,0.0106
1048.00,0.0100
1045.00,0.0096
1042.00,0.0097
1039.00,0.0109
1036.00,0.0152
1033.00,0.0245
1030.00,0.0338
1027.00,0.0351
1024.00,0.0281
1021.00,0.0217
1018.00,0.0180
1015.00,0.0156
1012.00,0.0140
1009.00,0.0133
1006.00,0.0139
1003.00,0.0147
1000.00,0.0126
997.00,0.0105
994.00,0.0101
991.00,0.0102
988.00,0.0109
985.00,0.0119
982.00,0.0130
979.00,0.0131
976.00,0.0124
973.00,0.0117
970.00,0.0123
967.00,0.0138
964.00,0.0144
961.00,0.0132
958.00,0.0112
955.00,0.0099
952.00,0.0096
949.00,0.0100
946.00,0.0106
943.00,0.0109
940.00,0.0105
937.00,0.0095
934.00,0.0084
931.00,0.0077
928.00,0.0075
925.00,0.0077
922.00,0.0084
919.00,0.0095
916.00,0.0118
913.00,0.0160
910.00,0.0209
907.00,0.0241
904.00,0.0226
901.00,0.0176
898.00,0.0124
895.00,0.0093
892.00,0.0079
889.00,0.0071
886.00,0.0065
883.00,0.0061
880.00,0.0058
877.00,0.0055
874.00,0.0052
871.00,0.0050
868.00,0.0050
865.00,0.0049
862.00,0.0049
859.00,0.0050
856.00,0.0053
853.00,0.0060
850.00,0.0074
847.00,0.0093
844.00,0.0112
841.00,0.0117
838.00,0.0104
835.00,0.0080
832.00,0.0058
829.00,0.0050
826.00,0.0046
823.00,0.0045
820.00,0.0044
817.00,0.0043
814.00,0.0046
811.00,0.0046
808.00,0.0048
805.00,0.0049
802.00,0.0054
799.00,0.0059
796.00,0.0071
793.00,0.0087
790.00,0.0106
787.00,0.0131
784.00,0.0161
781.00,0.0199
778.00,0.0256
775.00,0.0337
772.00,0.0442
769.00,0.0566
766.00,0.0692
763.00,0.0816
760.00,0.0948
757.00,0.1050
754.00,0.1078
751.00,0.1064
748.00,0.1046
745.00,0.0950
742.00,0.0747
739.00,0.0548
736.00,0.0389
733.00,0.0256
730.00,0.0169
727.00,0.0130
724.00,0.0115
721.00,0.0111
718.00,0.0120
715.00,0.0151
712.00,0.0230
709.00,0.0427
706.00,0.0807
703.00,0.1377
700.00,0.2095
697.00,0.2853
694.00,0.3062
691.00,0.2211
688.00,0.1373
685.00,0.0936
682.00,0.0708
679.00,0.0570
676.00,0.0485
673.00,0.0429
670.00,0.0389
667.00,0.0344
664.00,0.0304
661.00,0.0265
658.00,0.0232
655.00,0.0204
652.00,0.0185
649.00,0.0170
646.00,0.0156
643.00,0.0149
640.00,0.0146
637.00,0.0155
634.00,0.0168
631.00,0.0180
628.00,0.0191
625.00,0.0199
622.00,0.0209
619.00,0.0206
616.00,0.0187
613.00,0.0173
610.00,0.0164
607.00,0.0161
604.00,0.0161
601.00,0.0164
598.00,0.0172
595.00,0.0178
592.00,0.0186
589.00,0.0194
586.00,0.0204
583.00,0.0220
580.00,0.0244
577.00,0.0277
574.00,0.0317
571.00,0.0365
568.00,0.0402
565.00,0.0443
562.00,0.0481
559.00,0.0523
556.00,0.0566
553.00,0.0613
550.00,0.0671
547.00,0.0748
544.00,0.0847
541.00,0.0945
538.00,0.0991
535.00,0.0927
532.00,0.0783
529.00,0.0633
526.00,0.0507
523.00,0.0413
520.00,0.0357
517.00,0.0319
514.00,0.0287
511.00,0.0258
508.00,0.0230
505.00,0.0212
502.00,0.0194
499.00,0.0178
496.00,0.0168
493.00,0.0156
490.00,0.0151
487.00,0.0144
484.00,0.0140
481.00,0.0133
478.00,0.0127
475.00,0.0124
472.00,0.0117
469.00,0.0119
466.00,0.0116
463.00,0.0119
460.00,0.0118
457.00,0.0119
454.00,0.0116
451.00,0.0114
448.00,0.0109
445.00,0.0107
442.00,0.0105
439.00,0.0099
436.00,0.0099
433.00,0.0098
430.00,0.0097
427.00,0.0097
424.00,0.0102
421.00,0.0102
418.00,0.0096
415.00,0.0096
412.00,0.0090
409.00,0.0098
406.00,0.0099
403.00,0.0101
400.00,0.0043