File: FTIR/Olivia/2025_08_05_silicon_dish_scan3.csv
Created as New Dataset,Sample 1074 By YargerLab Date Tuesday, August 05 2025
cm-1,A
4000.00,0.0007
3997.00,0.0007
3994.00,0.0006
3991.00,0.0007
3988.00,0.0007
3985.00,0.0007
3982.00,0.0007
3979.00,0.0007
3976.00,0.0006
3973.00,0.0006
3970.00,0.0007
3967.00,0.0007
3964.00,0.0006
3961.00,0.0006
3958.00,0.0007
3955.00,0.0007
3952.00,0.0006
3949.00,0.0006
3946.00,0.0006
3943.00,0.0006
3940.00,0.0006
3937.00,0.0006
3934.00,0.0006
3931.00,0.0006
3928.00,0.0006
3925.00,0.0006
3922.00,0.0006
3919.00,0.0006
3916.00,0.0006
3913.00,0.0006
3910.00,0.0006
3907.00,0.0006
3904.00,0.0006
3901.00,0.0006
3898.00,0.0006
3895.00,0.0006
3892.00,0.0006
3889.00,0.0006
3886.00,0.0006
3883.00,0.0006
3880.00,0.0005
3877.00,0.0006
3874.00,0.0006
3871.00,0.0006
3868.00,0.0006
3865.00,0.0006
3862.00,0.0006
3859.00,0.0007
3856.00,0.0007
3853.00,0.0006
3850.00,0.0006
3847.00,0.0007
3844.00,0.0007
3841.00,0.0007
3838.00,0.0007
3835.00,0.0007
3832.00,0.0007
3829.00,0.0007
3826.00,0.0008
3823.00,0.0008
3820.00,0.0008
3817.00,0.0007
3814.00,0.0007
3811.00,0.0007
3808.00,0.0008
3805.00,0.0009
3802.00,0.0008
3799.00,0.0008
3796.00,0.0008
3793.00,0.0009
3790.00,0.0010
3787.00,0.0011
3784.00,0.0011
3781.00,0.0011
3778.00,0.0012
3775.00,0.0012
3772.00,0.0012
3769.00,0.0013
3766.00,0.0013
3763.00,0.0012
3760.00,0.0013
3757.00,0.0013
3754.00,0.0013
3751.00,0.0012
3748.00,0.0011
3745.00,0.0010
3742.00,0.0011
3739.00,0.0011
3736.00,0.0011
3733.00,0.0012
3730.00,0.0013
3727.00,0.0013
3724.00,0.0014
3721.00,0.0015
3718.00,0.0016
3715.00,0.0017
3712.00,0.0018
3709.00,0.0019
3706.00,0.0021
3703.00,0.0022
3700.00,0.0025
3697.00,0.0026
3694.00,0.0027
3691.00,0.0028
3688.00,0.0030
3685.00,0.0032
3682.00,0.0034
3679.00,0.0036
3676.00,0.0038
3673.00,0.0041
3670.00,0.0043
3667.00,0.0046
3664.00,0.0049
3661.00,0.0051
3658.00,0.0052
3655.00,0.0054
3652.00,0.0056
3649.00,0.0058
3646.00,0.0058
3643.00,0.0059
3640.00,0.0060
3637.00,0.0061
3634.00,0.0061
3631.00,0.0060
3628.00,0.0061
3625.00,0.0062
3622.00,0.0062
3619.00,0.0062
3616.00,0.0062
3613.00,0.0062
3610.00,0.0063
3607.00,0.0064
3604.00,0.0065
3601.00,0.0066
3598.00,0.0067
3595.00,0.0068
3592.00,0.0068
3589.00,0.0069
3586.00,0.0069
3583.00,0.0070
3580.00,0.0071
3577.00,0.0072
3574.00,0.0072
3571.00,0.0072
3568.00,0.0074
3565.00,0.0075
3562.00,0.0076
3559.00,0.0077
3556.00,0.0078
3553.00,0.0079
3550.00,0.0081
3547.00,0.0082
3544.00,0.0083
3541.00,0.0084
3538.00,0.0085
3535.00,0.0087
3532.00,0.0089
3529.00,0.0090
3526.00,0.0091
3523.00,0.0093
3520.00,0.0094
3517.00,0.0095
3514.00,0.0096
3511.00,0.0097
3508.00,0.0099
3505.00,0.0100
3502.00,0.0101
3499.00,0.0103
3496.00,0.0104
3493.00,0.0105
3490.00,0.0106
3487.00,0.0108
3484.00,0.0108
3481.00,0.0110
3478.00,0.0111
3475.00,0.0112
3472.00,0.0113
3469.00,0.0114
3466.00,0.0115
3463.00,0.0116
3460.00,0.0116
3457.00,0.0117
3454.00,0.0118
3451.00,0.0118
3448.00,0.0119
3445.00,0.0120
3442.00,0.0120
3439.00,0.0121
3436.00,0.0122
3433.00,0.0122
3430.00,0.0123
3427.00,0.0123
3424.00,0.0124
3421.00,0.0124
3418.00,0.0124
3415.00,0.0125
3412.00,0.0125
3409.00,0.0126
3406.00,0.0126
3403.00,0.0126
3400.00,0.0126
3397.00,0.0126
3394.00,0.0126
3391.00,0.0127
3388.00,0.0127
3385.00,0.0126
3382.00,0.0126
3379.00,0.0126
3376.00,0.0126
3373.00,0.0126
3370.00,0.0126
3367.00,0.0126
3364.00,0.0126
3361.00,0.0126
3358.00,0.0126
3355.00,0.0125
3352.00,0.0125
3349.00,0.0125
3346.00,0.0125
3343.00,0.0124
3340.00,0.0124
3337.00,0.0124
3334.00,0.0124
3331.00,0.0124
3328.00,0.0123
3325.00,0.0122
3322.00,0.0122
3319.00,0.0121
3316.00,0.0121
3313.00,0.0121
3310.00,0.0121
3307.00,0.0120
3304.00,0.0120
3301.00,0.0120
3298.00,0.0120
3295.00,0.0120
3292.00,0.0120
3289.00,0.0119
3286.00,0.0119
3283.00,0.0119
3280.00,0.0118
3277.00,0.0118
3274.00,0.0117
3271.00,0.0117
3268.00,0.0117
3265.00,0.0117
3262.00,0.0116
3259.00,0.0116
3256.00,0.0115
3253.00,0.0115
3250.00,0.0114
3247.00,0.0114
3244.00,0.0113
3241.00,0.0113
3238.00,0.0113
3235.00,0.0112
3232.00,0.0111
3229.00,0.0111
3226.00,0.0111
3223.00,0.0110
3220.00,0.0109
3217.00,0.0108
3214.00,0.0108
3211.00,0.0107
3208.00,0.0106
3205.00,0.0105
3202.00,0.0105
3199.00,0.0104
3196.00,0.0103
3193.00,0.0103
3190.00,0.0102
3187.00,0.0102
3184.00,0.0101
3181.00,0.0100
3178.00,0.0099
3175.00,0.0098
3172.00,0.0098
3169.00,0.0097
3166.00,0.0097
3163.00,0.0096
3160.00,0.0096
3157.00,0.0095
3154.00,0.0094
3151.00,0.0094
3148.00,0.0094
3145.00,0.0093
3142.00,0.0092
3139.00,0.0092
3136.00,0.0092
3133.00,0.0091
3130.00,0.0090
3127.00,0.0090
3124.00,0.0090
3121.00,0.0090
3118.00,0.0090
3115.00,0.0089
3112.00,0.0089
3109.00,0.0088
3106.00,0.0088
3103.00,0.0087
3100.00,0.0086
3097.00,0.0086
3094.00,0.0085
3091.00,0.0085
3088.00,0.0084
3085.00,0.0083
3082.00,0.0083
3079.00,0.0082
3076.00,0.0082
3073.00,0.0081
3070.00,0.0081
3067.00,0.0080
3064.00,0.0080
3061.00,0.0079
3058.00,0.0079
3055.00,0.0079
3052.00,0.0078
3049.00,0.0077
3046.00,0.0077
3043.00,0.0076
3040.00,0.0075
3037.00,0.0075
3034.00,0.0074
3031.00,0.0074
3028.00,0.0073
3025.00,0.0073
3022.00,0.0073
3019.00,0.0073
3016.00,0.0073
3013.00,0.0073
3010.00,0.0073
3007.00,0.0074
3004.00,0.0075
3001.00,0.0077
2998.00,0.0080
2995.00,0.0084
2992.00,0.0090
2989.00,0.0099
2986.00,0.0112
2983.00,0.0130
2980.00,0.0162
2977.00,0.0212
2974.00,0.0290
2971.00,0.0402
2968.00,0.0544
2965.00,0.0668
2962.00,0.0689
2959.00,0.0578
2956.00,0.0422
2953.00,0.0298
2950.00,0.0220
2947.00,0.0171
2944.00,0.0140
2941.00,0.0119
2938.00,0.0103
2935.00,0.0091
2932.00,0.0082
2929.00,0.0075
2926.00,0.0069
2923.00,0.0066
2920.00,0.0067
2917.00,0.0072
2914.00,0.0084
2911.00,0.0100
2908.00,0.0115
2905.00,0.0118
2902.00,0.0111
2899.00,0.0098
2896.00,0.0086
2893.00,0.0077
2890.00,0.0070
2887.00,0.0066
2884.00,0.0063
2881.00,0.0060
2878.00,0.0058
2875.00,0.0055
2872.00,0.0052
2869.00,0.0050
2866.00,0.0048
2863.00,0.0045
2860.00,0.0042
2857.00,0.0039
2854.00,0.0036
2851.00,0.0034
2848.00,0.0034
2845.00,0.0038
2842.00,0.0041
2839.00,0.0042
2836.00,0.0042
2833.00,0.0043
2830.00,0.0042
2827.00,0.0042
2824.00,0.0041
2821.00,0.0042
2818.00,0.0042
2815.00,0.0042
2812.00,0.0042
2809.00,0.0041
2806.00,0.0041
2803.00,0.0041
2800.00,0.0041
2797.00,0.0040
2794.00,0.0039
2791.00,0.0038
2788.00,0.0036
2785.00,0.0034
2782.00,0.0033
2779.00,0.0031
2776.00,0.0030
2773.00,0.0029
2770.00,0.0028
2767.00,0.0027
2764.00,0.0026
2761.00,0.0025
2758.00,0.0025
2755.00,0.0024
2752.00,0.0024
2749.00,0.0023
2746.00,0.0023
2743.00,0.0023
2740.00,0.0023
2737.00,0.0022
2734.00,0.0022
2731.00,0.0022
2728.00,0.0022
2725.00,0.0021
2722.00,0.0021
2719.00,0.0021
2716.00,0.0021
2713.00,0.0021
2710.00,0.0021
2707.00,0.0021
2704.00,0.0020
2701.00,0.0020
2698.00,0.0020
2695.00,0.0020
2692.00,0.0019
2689.00,0.0020
2686.00,0.0019
2683.00,0.0019
2680.00,0.0020
2677.00,0.0020
2674.00,0.0020
2671.00,0.0020
2668.00,0.0021
2665.00,0.0021
2662.00,0.0021
2659.00,0.0021
2656.00,0.0020
2653.00,0.0019
2650.00,0.0019
2647.00,0.0018
2644.00,0.0017
2641.00,0.0017
2638.00,0.0016
2635.00,0.0015
2632.00,0.0015
2629.00,0.0015
2626.00,0.0014
2623.00,0.0014
2620.00,0.0014
2617.00,0.0014
2614.00,0.0014
2611.00,0.0013
2608.00,0.0013
2605.00,0.0013
2602.00,0.0012
2599.00,0.0012
2596.00,0.0012
2593.00,0.0012
2590.00,0.0012
2587.00,0.0012
2584.00,0.0012
2581.00,0.0012
2578.00,0.0011
2575.00,0.0011
2572.00,0.0011
2569.00,0.0011
2566.00,0.0012
2563.00,0.0012
2560.00,0.0011
2557.00,0.0011
2554.00,0.0012
2551.00,0.0011
2548.00,0.0011
2545.00,0.0011
2542.00,0.0011
2539.00,0.0012
2536.00,0.0012
2533.00,0.0013
2530.00,0.0012
2527.00,0.0013
2524.00,0.0014
2521.00,0.0014
2518.00,0.0014
2515.00,0.0014
2512.00,0.0015
2509.00,0.0015
2506.00,0.0015
2503.00,0.0015
2500.00,0.0015
2497.00,0.0014
2494.00,0.0014
2491.00,0.0013
2488.00,0.0012
2485.00,0.0012
2482.00,0.0012
2479.00,0.0011
2476.00,0.0011
2473.00,0.0011
2470.00,0.0011
2467.00,0.0010
2464.00,0.0010
2461.00,0.0010
2458.00,0.0010
2455.00,0.0010
2452.00,0.0010
2449.00,0.0011
2446.00,0.0011
2443.00,0.0010
2440.00,0.0010
2437.00,0.0010
2434.00,0.0010
2431.00,0.0010
2428.00,0.0010
2425.00,0.0010
2422.00,0.0010
2419.00,0.0010
2416.00,0.0010
2413.00,0.0010
2410.00,0.0010
2407.00,0.0010
2404.00,0.0009
2401.00,0.0009
2398.00,0.0010
2395.00,0.0010
2392.00,0.0010
2389.00,0.0010
2386.00,0.0010
2383.00,0.0010
2380.00,0.0009
2377.00,0.0009
2374.00,0.0010
2371.00,0.0010
2368.00,0.0010
2365.00,0.0010
2362.00,0.0010
2359.00,0.0011
2356.00,0.0010
2353.00,0.0010
2350.00,0.0011
2347.00,0.0011
2344.00,0.0012
2341.00,0.0011
2338.00,0.0011
2335.00,0.0012
2332.00,0.0011
2329.00,0.0012
2326.00,0.0013
2323.00,0.0013
2320.00,0.0013
2317.00,0.0012
2314.00,0.0012
2311.00,0.0011
2308.00,0.0011
2305.00,0.0011
2302.00,0.0011
2299.00,0.0011
2296.00,0.0012
2293.00,0.0012
2290.00,0.0011
2287.00,0.0010
2284.00,0.0010
2281.00,0.0009
2278.00,0.0008
2275.00,0.0008
2272.00,0.0008
2269.00,0.0007
2266.00,0.0007
2263.00,0.0007
2260.00,0.0007
2257.00,0.0006
2254.00,0.0005
2251.00,0.0004
2248.00,0.0005
2245.00,0.0005
2242.00,0.0003
2239.00,0.0003
2236.00,0.0004
2233.00,0.0003
2230.00,0.0001
2227.00,0.0001
2224.00,0.0000
2221.00,0.0001
2218.00,-0.0000
2215.00,-0.0001
2212.00,-0.0002
2209.00,-0.0003
2206.00,-0.0003
2203.00,-0.0004
2200.00,-0.0006
2197.00,-0.0007
2194.00,-0.0009
2191.00,-0.0009
2188.00,-0.0012
2185.00,-0.0012
2182.00,-0.0013
2179.00,-0.0011
2176.00,-0.0014
2173.00,-0.0014
2170.00,-0.0013
2167.00,-0.0016
2164.00,-0.0021
2161.00,-0.0029
2158.00,-0.0034
2155.00,-0.0026
2152.00,-0.0019
2149.00,-0.0016
2146.00,-0.0015
2143.00,-0.0017
2140.00,-0.0016
2137.00,-0.0013
2134.00,-0.0011
2131.00,-0.0008
2128.00,-0.0008
2125.00,-0.0005
2122.00,-0.0003
2119.00,-0.0004
2116.00,-0.0004
2113.00,-0.0004
2110.00,-0.0004
2107.00,-0.0005
2104.00,-0.0006
2101.00,-0.0006
2098.00,-0.0006
2095.00,-0.0005
2092.00,-0.0005
2089.00,-0.0005
2086.00,-0.0006
2083.00,-0.0006
2080.00,-0.0006
2077.00,-0.0008
2074.00,-0.0008
2071.00,-0.0009
2068.00,-0.0010
2065.00,-0.0011
2062.00,-0.0013
2059.00,-0.0013
2056.00,-0.0013
2053.00,-0.0014
2050.00,-0.0018
2047.00,-0.0025
2044.00,-0.0029
2041.00,-0.0035
2038.00,-0.0038
2035.00,-0.0044
2032.00,-0.0046
2029.00,-0.0048
2026.00,-0.0053
2023.00,-0.0054
2020.00,-0.0053
2017.00,-0.0054
2014.00,-0.0051
2011.00,-0.0050
2008.00,-0.0049
2005.00,-0.0042
2002.00,-0.0035
1999.00,-0.0035
1996.00,-0.0032
1993.00,-0.0035
1990.00,-0.0033
1987.00,-0.0028
1984.00,-0.0026
1981.00,-0.0030
1978.00,-0.0035
1975.00,-0.0031
1972.00,-0.0024
1969.00,-0.0020
1966.00,-0.0017
1963.00,-0.0011
1960.00,-0.0004
1957.00,-0.0001
1954.00,0.0003
1951.00,0.0008
1948.00,0.0010
1945.00,0.0012
1942.00,0.0015
1939.00,0.0017
1936.00,0.0016
1933.00,0.0015
1930.00,0.0015
1927.00,0.0016
1924.00,0.0017
1921.00,0.0018
1918.00,0.0019
1915.00,0.0019
1912.00,0.0018
1909.00,0.0019
1906.00,0.0020
1903.00,0.0022
1900.00,0.0022
1897.00,0.0023
1894.00,0.0025
1891.00,0.0026
1888.00,0.0027
1885.00,0.0028
1882.00,0.0029
1879.00,0.0030
1876.00,0.0030
1873.00,0.0030
1870.00,0.0030
1867.00,0.0030
1864.00,0.0031
1861.00,0.0030
1858.00,0.0029
1855.00,0.0030
1852.00,0.0029
1849.00,0.0028
1846.00,0.0028
1843.00,0.0027
1840.00,0.0027
1837.00,0.0027
1834.00,0.0026
1831.00,0.0027
1828.00,0.0027
1825.00,0.0026
1822.00,0.0027
1819.00,0.0027
1816.00,0.0028
1813.00,0.0029
1810.00,0.0030
1807.00,0.0031
1804.00,0.0032
1801.00,0.0033
1798.00,0.0034
1795.00,0.0035
1792.00,0.0035
1789.00,0.0035
1786.00,0.0036
1783.00,0.0037
1780.00,0.0038
1777.00,0.0038
1774.00,0.0038
1771.00,0.0038
1768.00,0.0038
1765.00,0.0038
1762.00,0.0039
1759.00,0.0038
1756.00,0.0038
1753.00,0.0038
1750.00,0.0038
1747.00,0.0038
1744.00,0.0039
1741.00,0.0040
1738.00,0.0041
1735.00,0.0042
1732.00,0.0043
1729.00,0.0044
1726.00,0.0046
1723.00,0.0047
1720.00,0.0048
1717.00,0.0049
1714.00,0.0050
1711.00,0.0051
1708.00,0.0053
1705.00,0.0055
1702.00,0.0056
1699.00,0.0060
1696.00,0.0063
1693.00,0.0066
1690.00,0.0070
1687.00,0.0073
1684.00,0.0077
1681.00,0.0079
1678.00,0.0082
1675.00,0.0084
1672.00,0.0087
1669.00,0.0089
1666.00,0.0091
1663.00,0.0094
1660.00,0.0096
1657.00,0.0097
1654.00,0.0101
1651.00,0.0104
1648.00,0.0105
1645.00,0.0106
1642.00,0.0108
1639.00,0.0109
1636.00,0.0111
1633.00,0.0112
1630.00,0.0112
1627.00,0.0112
1624.00,0.0111
1621.00,0.0109
1618.00,0.0107
1615.00,0.0104
1612.00,0.0101
1609.00,0.0097
1606.00,0.0093
1603.00,0.0089
1600.00,0.0086
1597.00,0.0084
1594.00,0.0081
1591.00,0.0079
1588.00,0.0077
1585.00,0.0075
1582.00,0.0074
1579.00,0.0073
1576.00,0.0071
1573.00,0.0070
1570.00,0.0068
1567.00,0.0066
1564.00,0.0064
1561.00,0.0063
1558.00,0.0060
1555.00,0.0063
1552.00,0.0063
1549.00,0.0065
1546.00,0.0067
1543.00,0.0067
1540.00,0.0067
1537.00,0.0068
1534.00,0.0068
1531.00,0.0068
1528.00,0.0068
1525.00,0.0068
1522.00,0.0068
1519.00,0.0068
1516.00,0.0069
1513.00,0.0070
1510.00,0.0071
1507.00,0.0072
1504.00,0.0073
1501.00,0.0074
1498.00,0.0075
1495.00,0.0076
1492.00,0.0079
1489.00,0.0082
1486.00,0.0085
1483.00,0.0087
1480.00,0.0089
1477.00,0.0090
1474.00,0.0090
1471.00,0.0090
1468.00,0.0091
1465.00,0.0093
1462.00,0.0096
1459.00,0.0102
1456.00,0.0111
1453.00,0.0121
1450.00,0.0132
1447.00,0.0141
1444.00,0.0143
1441.00,0.0138
1438.00,0.0134
1435.00,0.0131
1432.00,0.0133
1429.00,0.0138
1426.00,0.0149
1423.00,0.0167
1420.00,0.0192
1417.00,0.0226
1414.00,0.0245
1411.00,0.0244
1408.00,0.0231
1405.00,0.0219
1402.00,0.0213
1399.00,0.0204
1396.00,0.0185
1393.00,0.0158
1390.00,0.0139
1387.00,0.0126
1384.00,0.0117
1381.00,0.0111
1378.00,0.0108
1375.00,0.0106
1372.00,0.0104
1369.00,0.0103
1366.00,0.0101
1363.00,0.0100
1360.00,0.0099
1357.00,0.0099
1354.00,0.0099
1351.00,0.0099
1348.00,0.0100
1345.00,0.0100
1342.00,0.0101
1339.00,0.0102
1336.00,0.0103
1333.00,0.0102
1330.00,0.0103
1327.00,0.0105
1324.00,0.0108
1321.00,0.0111
1318.00,0.0114
1315.00,0.0118
1312.00,0.0123
1309.00,0.0128
1306.00,0.0134
1303.00,0.0140
1300.00,0.0147
1297.00,0.0156
1294.00,0.0166
1291.00,0.0178
1288.00,0.0194
1285.00,0.0213
1282.00,0.0240
1279.00,0.0278
1276.00,0.0340
1273.00,0.0445
1270.00,0.0658
1267.00,0.1097
1264.00,0.1839
1261.00,0.2642
1258.00,0.2865
1255.00,0.2236
1252.00,0.1499
1249.00,0.1130
1246.00,0.0989
1243.00,0.0942
1240.00,0.0942
1237.00,0.0961
1234.00,0.0989
1231.00,0.1021
1228.00,0.1054
1225.00,0.1088
1222.00,0.1122
1219.00,0.1154
1216.00,0.1184
1213.00,0.1213
1210.00,0.1241
1207.00,0.1269
1204.00,0.1295
1201.00,0.1320
1198.00,0.1346
1195.00,0.1372
1192.00,0.1397
1189.00,0.1424
1186.00,0.1450
1183.00,0.1477
1180.00,0.1503
1177.00,0.1530
1174.00,0.1558
1171.00,0.1586
1168.00,0.1612
1165.00,0.1637
1162.00,0.1664
1159.00,0.1690
1156.00,0.1715
1153.00,0.1742
1150.00,0.1771
1147.00,0.1801
1144.00,0.1835
1141.00,0.1871
1138.00,0.1912
1135.00,0.1959
1132.00,0.2012
1129.00,0.2073
1126.00,0.2146
1123.00,0.2232
1120.00,0.2339
1117.00,0.2475
1114.00,0.2649
1111.00,0.2866
1108.00,0.3128
1105.00,0.3437
1102.00,0.3784
1099.00,0.4162
1096.00,0.4552
1093.00,0.4938
1090.00,0.5306
1087.00,0.5641
1084.00,0.5932
1081.00,0.6181
1078.00,0.6391
1075.00,0.6559
1072.00,0.6692
1069.00,0.6793
1066.00,0.6871
1063.00,0.6927
1060.00,0.6963
1057.00,0.6983
1054.00,0.6985
1051.00,0.6978
1048.00,0.6970
1045.00,0.6960
1042.00,0.6961
1039.00,0.6988
1036.00,0.7041
1033.00,0.7134
1030.00,0.7278
1027.00,0.7496
1024.00,0.7806
1021.00,0.8239
1018.00,0.8828
1015.00,0.9556
1012.00,1.0275
1009.00,1.0673
1006.00,1.0482
1003.00,0.9730
1000.00,0.8645
997.00,0.7483
994.00,0.6404
991.00,0.5465
988.00,0.4677
985.00,0.4031
982.00,0.3510
979.00,0.3096
976.00,0.2768
973.00,0.2508
970.00,0.2301
967.00,0.2131
964.00,0.1985
961.00,0.1859
958.00,0.1745
955.00,0.1641
952.00,0.1545
949.00,0.1457
946.00,0.1374
943.00,0.1296
940.00,0.1223
937.00,0.1157
934.00,0.1095
931.00,0.1036
928.00,0.0984
925.00,0.0938
922.00,0.0897
919.00,0.0863
916.00,0.0839
913.00,0.0819
910.00,0.0805
907.00,0.0794
904.00,0.0788
901.00,0.0788
898.00,0.0796
895.00,0.0812
892.00,0.0839
889.00,0.0881
886.00,0.0948
883.00,0.1043
880.00,0.1160
877.00,0.1277
874.00,0.1369
871.00,0.1431
868.00,0.1474
865.00,0.1500
862.00,0.1483
859.00,0.1410
856.00,0.1304
853.00,0.1209
850.00,0.1147
847.00,0.1118
844.00,0.1116
841.00,0.1143
838.00,0.1199
835.00,0.1290
832.00,0.1430
829.00,0.1650
826.00,0.1995
823.00,0.2464
820.00,0.2950
817.00,0.3353
814.00,0.3702
811.00,0.4103
808.00,0.4646
805.00,0.5372
802.00,0.6288
799.00,0.7353
796.00,0.8488
793.00,0.9608
790.00,1.0557
787.00,1.0932
784.00,1.0417
781.00,0.9247
778.00,0.7852
775.00,0.6503
772.00,0.5364
769.00,0.4474
766.00,0.3804
763.00,0.3304
760.00,0.2924
757.00,0.2629
754.00,0.2395
751.00,0.2205
748.00,0.2054
745.00,0.1932
742.00,0.1826
739.00,0.1723
736.00,0.1623
733.00,0.1532
730.00,0.1456
727.00,0.1395
724.00,0.1347
721.00,0.1316
718.00,0.1309
715.00,0.1348
712.00,0.1459
709.00,0.1627
706.00,0.1780
703.00,0.1857
700.00,0.1865
697.00,0.1838
694.00,0.1808
691.00,0.1799
688.00,0.1815
685.00,0.1817
682.00,0.1766
679.00,0.1697
676.00,0.1641
673.00,0.1606
670.00,0.1584
667.00,0.1609
664.00,0.1660
661.00,0.1727
658.00,0.1571
655.00,0.1270
652.00,0.1110
649.00,0.1042
646.00,0.1006
643.00,0.0986
640.00,0.0979
637.00,0.0980
634.00,0.0982
631.00,0.0986
628.00,0.0989
625.00,0.0993
622.00,0.0997
619.00,0.0998
616.00,0.1003
613.00,0.1009
610.00,0.1017
607.00,0.1024
604.00,0.1035
601.00,0.1047
598.00,0.1061
595.00,0.1077
592.00,0.1097
589.00,0.1119
586.00,0.1140
583.00,0.1161
580.00,0.1183
577.00,0.1209
574.00,0.1232
571.00,0.1252
568.00,0.1273
565.00,0.1298
562.00,0.1319
559.00,0.1339
556.00,0.1357
553.00,0.1373
550.00,0.1381
547.00,0.1386
544.00,0.1395
541.00,0.1402
538.00,0.1406
535.00,0.1408
532.00,0.1405
529.00,0.1408
526.00,0.1417
523.00,0.1425
520.00,0.1439
517.00,0.1467
514.00,0.1506
511.00,0.1556
508.00,0.1623
505.00,0.1703
502.00,0.1811
499.00,0.1943
496.00,0.2114
493.00,0.2332
490.00,0.2598
487.00,0.2909
484.00,0.3259
481.00,0.3647
478.00,0.4040
475.00,0.4427
472.00,0.4815
469.00,0.5163
466.00,0.5441
463.00,0.5647
460.00,0.5753
457.00,0.5796
454.00,0.5769
451.00,0.5673
448.00,0.5519
445.00,0.5289
442.00,0.5051
439.00,0.4798
436.00,0.4517
433.00,0.4221
430.00,0.3927
427.00,0.3674
424.00,0.3432
421.00,0.3256
418.00,0.3148
415.00,0.3233
412.00,0.3459
409.00,0.3792
406.00,0.4177
403.00,0.4512
400.00,0.4826