File: FTIR/Olivia/2025_08_06_Polystyrene_film_scan3.csv
Created as New Dataset,Sample 1084 By YargerLab Date Wednesday, August 06 2025
cm-1,A
4000.00,0.0004
3997.00,0.0004
3994.00,0.0004
3991.00,0.0004
3988.00,0.0004
3985.00,0.0004
3982.00,0.0003
3979.00,0.0003
3976.00,0.0003
3973.00,0.0004
3970.00,0.0004
3967.00,0.0003
3964.00,0.0004
3961.00,0.0004
3958.00,0.0004
3955.00,0.0004
3952.00,0.0004
3949.00,0.0004
3946.00,0.0004
3943.00,0.0003
3940.00,0.0003
3937.00,0.0003
3934.00,0.0003
3931.00,0.0004
3928.00,0.0004
3925.00,0.0003
3922.00,0.0004
3919.00,0.0004
3916.00,0.0003
3913.00,0.0004
3910.00,0.0004
3907.00,0.0003
3904.00,0.0003
3901.00,0.0002
3898.00,0.0003
3895.00,0.0004
3892.00,0.0003
3889.00,0.0003
3886.00,0.0003
3883.00,0.0003
3880.00,0.0003
3877.00,0.0003
3874.00,0.0003
3871.00,0.0002
3868.00,0.0003
3865.00,0.0003
3862.00,0.0003
3859.00,0.0003
3856.00,0.0003
3853.00,0.0002
3850.00,0.0002
3847.00,0.0003
3844.00,0.0003
3841.00,0.0003
3838.00,0.0002
3835.00,0.0003
3832.00,0.0003
3829.00,0.0004
3826.00,0.0003
3823.00,0.0003
3820.00,0.0003
3817.00,0.0003
3814.00,0.0003
3811.00,0.0003
3808.00,0.0003
3805.00,0.0003
3802.00,0.0003
3799.00,0.0004
3796.00,0.0004
3793.00,0.0004
3790.00,0.0004
3787.00,0.0004
3784.00,0.0004
3781.00,0.0003
3778.00,0.0003
3775.00,0.0003
3772.00,0.0004
3769.00,0.0004
3766.00,0.0003
3763.00,0.0003
3760.00,0.0003
3757.00,0.0003
3754.00,0.0003
3751.00,0.0003
3748.00,0.0002
3745.00,0.0002
3742.00,0.0002
3739.00,0.0002
3736.00,0.0002
3733.00,0.0002
3730.00,0.0002
3727.00,0.0002
3724.00,0.0003
3721.00,0.0003
3718.00,0.0003
3715.00,0.0003
3712.00,0.0002
3709.00,0.0002
3706.00,0.0003
3703.00,0.0003
3700.00,0.0003
3697.00,0.0003
3694.00,0.0003
3691.00,0.0003
3688.00,0.0002
3685.00,0.0003
3682.00,0.0003
3679.00,0.0003
3676.00,0.0003
3673.00,0.0003
3670.00,0.0002
3667.00,0.0003
3664.00,0.0004
3661.00,0.0004
3658.00,0.0004
3655.00,0.0003
3652.00,0.0004
3649.00,0.0004
3646.00,0.0004
3643.00,0.0004
3640.00,0.0004
3637.00,0.0003
3634.00,0.0003
3631.00,0.0002
3628.00,0.0002
3625.00,0.0002
3622.00,0.0003
3619.00,0.0002
3616.00,0.0002
3613.00,0.0002
3610.00,0.0001
3607.00,0.0002
3604.00,0.0002
3601.00,0.0002
3598.00,0.0001
3595.00,0.0002
3592.00,0.0002
3589.00,0.0002
3586.00,0.0002
3583.00,0.0002
3580.00,0.0003
3577.00,0.0003
3574.00,0.0003
3571.00,0.0002
3568.00,0.0002
3565.00,0.0002
3562.00,0.0002
3559.00,0.0003
3556.00,0.0003
3553.00,0.0004
3550.00,0.0003
3547.00,0.0003
3544.00,0.0003
3541.00,0.0003
3538.00,0.0003
3535.00,0.0003
3532.00,0.0004
3529.00,0.0004
3526.00,0.0005
3523.00,0.0004
3520.00,0.0004
3517.00,0.0004
3514.00,0.0004
3511.00,0.0004
3508.00,0.0004
3505.00,0.0004
3502.00,0.0004
3499.00,0.0004
3496.00,0.0004
3493.00,0.0004
3490.00,0.0005
3487.00,0.0004
3484.00,0.0004
3481.00,0.0004
3478.00,0.0005
3475.00,0.0004
3472.00,0.0005
3469.00,0.0005
3466.00,0.0005
3463.00,0.0005
3460.00,0.0004
3457.00,0.0005
3454.00,0.0005
3451.00,0.0005
3448.00,0.0005
3445.00,0.0005
3442.00,0.0005
3439.00,0.0005
3436.00,0.0005
3433.00,0.0005
3430.00,0.0005
3427.00,0.0005
3424.00,0.0004
3421.00,0.0004
3418.00,0.0005
3415.00,0.0004
3412.00,0.0004
3409.00,0.0004
3406.00,0.0004
3403.00,0.0005
3400.00,0.0004
3397.00,0.0004
3394.00,0.0004
3391.00,0.0004
3388.00,0.0004
3385.00,0.0004
3382.00,0.0004
3379.00,0.0004
3376.00,0.0004
3373.00,0.0004
3370.00,0.0004
3367.00,0.0004
3364.00,0.0004
3361.00,0.0004
3358.00,0.0004
3355.00,0.0004
3352.00,0.0004
3349.00,0.0004
3346.00,0.0004
3343.00,0.0005
3340.00,0.0004
3337.00,0.0004
3334.00,0.0004
3331.00,0.0004
3328.00,0.0004
3325.00,0.0004
3322.00,0.0003
3319.00,0.0004
3316.00,0.0004
3313.00,0.0005
3310.00,0.0004
3307.00,0.0004
3304.00,0.0004
3301.00,0.0003
3298.00,0.0003
3295.00,0.0003
3292.00,0.0003
3289.00,0.0003
3286.00,0.0003
3283.00,0.0003
3280.00,0.0004
3277.00,0.0004
3274.00,0.0004
3271.00,0.0003
3268.00,0.0003
3265.00,0.0003
3262.00,0.0003
3259.00,0.0003
3256.00,0.0004
3253.00,0.0004
3250.00,0.0003
3247.00,0.0003
3244.00,0.0003
3241.00,0.0003
3238.00,0.0003
3235.00,0.0003
3232.00,0.0003
3229.00,0.0003
3226.00,0.0003
3223.00,0.0003
3220.00,0.0003
3217.00,0.0003
3214.00,0.0003
3211.00,0.0003
3208.00,0.0003
3205.00,0.0003
3202.00,0.0003
3199.00,0.0003
3196.00,0.0003
3193.00,0.0003
3190.00,0.0003
3187.00,0.0002
3184.00,0.0002
3181.00,0.0002
3178.00,0.0002
3175.00,0.0003
3172.00,0.0002
3169.00,0.0002
3166.00,0.0003
3163.00,0.0003
3160.00,0.0003
3157.00,0.0003
3154.00,0.0003
3151.00,0.0003
3148.00,0.0003
3145.00,0.0003
3142.00,0.0003
3139.00,0.0003
3136.00,0.0002
3133.00,0.0002
3130.00,0.0002
3127.00,0.0002
3124.00,0.0003
3121.00,0.0004
3118.00,0.0004
3115.00,0.0004
3112.00,0.0006
3109.00,0.0009
3106.00,0.0012
3103.00,0.0014
3100.00,0.0013
3097.00,0.0012
3094.00,0.0013
3091.00,0.0016
3088.00,0.0023
3085.00,0.0033
3082.00,0.0038
3079.00,0.0035
3076.00,0.0029
3073.00,0.0027
3070.00,0.0029
3067.00,0.0034
3064.00,0.0044
3061.00,0.0052
3058.00,0.0053
3055.00,0.0045
3052.00,0.0036
3049.00,0.0029
3046.00,0.0026
3043.00,0.0026
3040.00,0.0030
3037.00,0.0038
3034.00,0.0051
3031.00,0.0072
3028.00,0.0095
3025.00,0.0107
3022.00,0.0095
3019.00,0.0068
3016.00,0.0044
3013.00,0.0031
3010.00,0.0025
3007.00,0.0024
3004.00,0.0028
3001.00,0.0031
2998.00,0.0028
2995.00,0.0022
2992.00,0.0018
2989.00,0.0016
2986.00,0.0016
2983.00,0.0018
2980.00,0.0019
2977.00,0.0018
2974.00,0.0017
2971.00,0.0017
2968.00,0.0016
2965.00,0.0016
2962.00,0.0015
2959.00,0.0017
2956.00,0.0019
2953.00,0.0023
2950.00,0.0027
2947.00,0.0034
2944.00,0.0042
2941.00,0.0050
2938.00,0.0060
2935.00,0.0071
2932.00,0.0082
2929.00,0.0092
2926.00,0.0100
2923.00,0.0104
2920.00,0.0106
2917.00,0.0103
2914.00,0.0099
2911.00,0.0093
2908.00,0.0086
2905.00,0.0077
2902.00,0.0068
2899.00,0.0058
2896.00,0.0051
2893.00,0.0045
2890.00,0.0041
2887.00,0.0038
2884.00,0.0035
2881.00,0.0032
2878.00,0.0029
2875.00,0.0025
2872.00,0.0023
2869.00,0.0022
2866.00,0.0023
2863.00,0.0024
2860.00,0.0027
2857.00,0.0030
2854.00,0.0035
2851.00,0.0039
2848.00,0.0041
2845.00,0.0041
2842.00,0.0035
2839.00,0.0026
2836.00,0.0019
2833.00,0.0013
2830.00,0.0011
2827.00,0.0010
2824.00,0.0009
2821.00,0.0008
2818.00,0.0008
2815.00,0.0008
2812.00,0.0007
2809.00,0.0007
2806.00,0.0007
2803.00,0.0007
2800.00,0.0007
2797.00,0.0006
2794.00,0.0006
2791.00,0.0006
2788.00,0.0006
2785.00,0.0006
2782.00,0.0006
2779.00,0.0006
2776.00,0.0006
2773.00,0.0006
2770.00,0.0005
2767.00,0.0005
2764.00,0.0005
2761.00,0.0005
2758.00,0.0005
2755.00,0.0005
2752.00,0.0005
2749.00,0.0005
2746.00,0.0005
2743.00,0.0005
2740.00,0.0005
2737.00,0.0005
2734.00,0.0005
2731.00,0.0005
2728.00,0.0005
2725.00,0.0005
2722.00,0.0005
2719.00,0.0005
2716.00,0.0005
2713.00,0.0005
2710.00,0.0005
2707.00,0.0005
2704.00,0.0005
2701.00,0.0005
2698.00,0.0005
2695.00,0.0005
2692.00,0.0005
2689.00,0.0005
2686.00,0.0005
2683.00,0.0005
2680.00,0.0005
2677.00,0.0005
2674.00,0.0006
2671.00,0.0006
2668.00,0.0006
2665.00,0.0007
2662.00,0.0008
2659.00,0.0009
2656.00,0.0009
2653.00,0.0010
2650.00,0.0010
2647.00,0.0011
2644.00,0.0010
2641.00,0.0010
2638.00,0.0010
2635.00,0.0010
2632.00,0.0010
2629.00,0.0010
2626.00,0.0010
2623.00,0.0009
2620.00,0.0009
2617.00,0.0008
2614.00,0.0008
2611.00,0.0008
2608.00,0.0008
2605.00,0.0008
2602.00,0.0008
2599.00,0.0008
2596.00,0.0008
2593.00,0.0007
2590.00,0.0006
2587.00,0.0007
2584.00,0.0007
2581.00,0.0006
2578.00,0.0006
2575.00,0.0005
2572.00,0.0006
2569.00,0.0005
2566.00,0.0006
2563.00,0.0005
2560.00,0.0005
2557.00,0.0005
2554.00,0.0004
2551.00,0.0004
2548.00,0.0004
2545.00,0.0004
2542.00,0.0004
2539.00,0.0005
2536.00,0.0004
2533.00,0.0004
2530.00,0.0004
2527.00,0.0003
2524.00,0.0003
2521.00,0.0004
2518.00,0.0004
2515.00,0.0005
2512.00,0.0004
2509.00,0.0004
2506.00,0.0004
2503.00,0.0003
2500.00,0.0003
2497.00,0.0003
2494.00,0.0003
2491.00,0.0003
2488.00,0.0004
2485.00,0.0003
2482.00,0.0003
2479.00,0.0003
2476.00,0.0003
2473.00,0.0003
2470.00,0.0003
2467.00,0.0004
2464.00,0.0004
2461.00,0.0003
2458.00,0.0004
2455.00,0.0005
2452.00,0.0004
2449.00,0.0003
2446.00,0.0003
2443.00,0.0002
2440.00,0.0002
2437.00,0.0002
2434.00,0.0002
2431.00,0.0002
2428.00,0.0002
2425.00,0.0002
2422.00,0.0001
2419.00,0.0001
2416.00,0.0001
2413.00,0.0001
2410.00,0.0001
2407.00,-0.0000
2404.00,-0.0000
2401.00,-0.0000
2398.00,-0.0001
2395.00,-0.0000
2392.00,-0.0000
2389.00,-0.0001
2386.00,-0.0001
2383.00,-0.0002
2380.00,-0.0002
2377.00,-0.0002
2374.00,-0.0002
2371.00,-0.0003
2368.00,-0.0003
2365.00,-0.0002
2362.00,-0.0001
2359.00,-0.0001
2356.00,-0.0001
2353.00,-0.0000
2350.00,-0.0000
2347.00,0.0001
2344.00,0.0002
2341.00,0.0003
2338.00,0.0003
2335.00,0.0003
2332.00,0.0003
2329.00,0.0005
2326.00,0.0013
2323.00,0.0013
2320.00,0.0009
2317.00,0.0008
2314.00,0.0008
2311.00,0.0007
2308.00,0.0006
2305.00,0.0007
2302.00,0.0008
2299.00,0.0008
2296.00,0.0008
2293.00,0.0010
2290.00,0.0013
2287.00,0.0013
2284.00,0.0011
2281.00,0.0010
2278.00,0.0009
2275.00,0.0007
2272.00,0.0007
2269.00,0.0006
2266.00,0.0005
2263.00,0.0005
2260.00,0.0005
2257.00,0.0004
2254.00,0.0003
2251.00,0.0004
2248.00,0.0003
2245.00,0.0003
2242.00,0.0005
2239.00,0.0005
2236.00,0.0005
2233.00,0.0005
2230.00,0.0005
2227.00,0.0007
2224.00,0.0006
2221.00,0.0005
2218.00,0.0004
2215.00,0.0002
2212.00,0.0002
2209.00,0.0004
2206.00,0.0003
2203.00,0.0002
2200.00,0.0004
2197.00,0.0005
2194.00,0.0006
2191.00,0.0007
2188.00,0.0005
2185.00,0.0006
2182.00,-0.0000
2179.00,-0.0000
2176.00,-0.0001
2173.00,-0.0000
2170.00,0.0007
2167.00,0.0012
2164.00,0.0015
2161.00,0.0004
2158.00,-0.0026
2155.00,-0.0021
2152.00,-0.0014
2149.00,-0.0014
2146.00,-0.0014
2143.00,-0.0016
2140.00,-0.0014
2137.00,-0.0016
2134.00,-0.0021
2131.00,-0.0015
2128.00,-0.0009
2125.00,-0.0007
2122.00,-0.0004
2119.00,-0.0002
2116.00,-0.0001
2113.00,0.0000
2110.00,-0.0000
2107.00,-0.0001
2104.00,0.0000
2101.00,0.0001
2098.00,-0.0003
2095.00,-0.0006
2092.00,-0.0003
2089.00,0.0001
2086.00,0.0002
2083.00,0.0003
2080.00,-0.0001
2077.00,0.0002
2074.00,0.0002
2071.00,-0.0001
2068.00,-0.0002
2065.00,-0.0000
2062.00,-0.0001
2059.00,0.0001
2056.00,0.0002
2053.00,0.0006
2050.00,0.0007
2047.00,0.0002
2044.00,0.0003
2041.00,0.0004
2038.00,0.0005
2035.00,0.0006
2032.00,-0.0003
2029.00,-0.0007
2026.00,-0.0006
2023.00,-0.0005
2020.00,-0.0008
2017.00,-0.0006
2014.00,-0.0004
2011.00,-0.0003
2008.00,-0.0006
2005.00,-0.0013
2002.00,-0.0004
1999.00,-0.0003
1996.00,-0.0004
1993.00,-0.0002
1990.00,-0.0000
1987.00,0.0003
1984.00,0.0007
1981.00,0.0011
1978.00,-0.0001
1975.00,-0.0006
1972.00,-0.0006
1969.00,-0.0004
1966.00,-0.0004
1963.00,-0.0003
1960.00,-0.0003
1957.00,-0.0003
1954.00,0.0001
1951.00,0.0002
1948.00,0.0007
1945.00,0.0007
1942.00,0.0008
1939.00,0.0009
1936.00,0.0004
1933.00,0.0002
1930.00,-0.0001
1927.00,-0.0002
1924.00,-0.0002
1921.00,-0.0003
1918.00,-0.0004
1915.00,-0.0002
1912.00,-0.0001
1909.00,-0.0003
1906.00,-0.0003
1903.00,-0.0001
1900.00,-0.0001
1897.00,-0.0000
1894.00,0.0001
1891.00,0.0003
1888.00,0.0005
1885.00,0.0006
1882.00,0.0008
1879.00,0.0009
1876.00,0.0009
1873.00,0.0009
1870.00,0.0011
1867.00,0.0009
1864.00,0.0008
1861.00,0.0006
1858.00,0.0004
1855.00,0.0003
1852.00,0.0002
1849.00,0.0002
1846.00,0.0001
1843.00,-0.0000
1840.00,-0.0000
1837.00,0.0000
1834.00,0.0001
1831.00,0.0002
1828.00,0.0003
1825.00,0.0003
1822.00,0.0005
1819.00,0.0005
1816.00,0.0005
1813.00,0.0009
1810.00,0.0011
1807.00,0.0013
1804.00,0.0014
1801.00,0.0015
1798.00,0.0013
1795.00,0.0013
1792.00,0.0010
1789.00,0.0007
1786.00,0.0007
1783.00,0.0007
1780.00,0.0007
1777.00,0.0007
1774.00,0.0008
1771.00,0.0008
1768.00,0.0008
1765.00,0.0008
1762.00,0.0010
1759.00,0.0011
1756.00,0.0013
1753.00,0.0015
1750.00,0.0017
1747.00,0.0017
1744.00,0.0018
1741.00,0.0018
1738.00,0.0017
1735.00,0.0018
1732.00,0.0015
1729.00,0.0014
1726.00,0.0013
1723.00,0.0012
1720.00,0.0011
1717.00,0.0012
1714.00,0.0010
1711.00,0.0010
1708.00,0.0010
1705.00,0.0009
1702.00,0.0009
1699.00,0.0006
1696.00,0.0004
1693.00,0.0001
1690.00,-0.0000
1687.00,-0.0002
1684.00,-0.0001
1681.00,-0.0001
1678.00,-0.0001
1675.00,0.0001
1672.00,0.0003
1669.00,0.0005
1666.00,0.0006
1663.00,0.0005
1660.00,0.0005
1657.00,0.0006
1654.00,0.0005
1651.00,0.0006
1648.00,0.0006
1645.00,0.0007
1642.00,0.0007
1639.00,0.0007
1636.00,0.0007
1633.00,0.0008
1630.00,0.0008
1627.00,0.0009
1624.00,0.0010
1621.00,0.0010
1618.00,0.0012
1615.00,0.0014
1612.00,0.0019
1609.00,0.0033
1606.00,0.0063
1603.00,0.0102
1600.00,0.0113
1597.00,0.0082
1594.00,0.0051
1591.00,0.0035
1588.00,0.0031
1585.00,0.0041
1582.00,0.0045
1579.00,0.0031
1576.00,0.0018
1573.00,0.0014
1570.00,0.0012
1567.00,0.0010
1564.00,0.0010
1561.00,0.0011
1558.00,0.0011
1555.00,0.0011
1552.00,0.0013
1549.00,0.0015
1546.00,0.0018
1543.00,0.0020
1540.00,0.0018
1537.00,0.0016
1534.00,0.0016
1531.00,0.0013
1528.00,0.0013
1525.00,0.0012
1522.00,0.0012
1519.00,0.0012
1516.00,0.0013
1513.00,0.0014
1510.00,0.0017
1507.00,0.0020
1504.00,0.0024
1501.00,0.0039
1498.00,0.0086
1495.00,0.0220
1492.00,0.0305
1489.00,0.0188
1486.00,0.0093
1483.00,0.0056
1480.00,0.0038
1477.00,0.0032
1474.00,0.0030
1471.00,0.0027
1468.00,0.0027
1465.00,0.0030
1462.00,0.0037
1459.00,0.0058
1456.00,0.0159
1453.00,0.0280
1450.00,0.0287
1447.00,0.0214
1444.00,0.0165
1441.00,0.0126
1438.00,0.0099
1435.00,0.0064
1432.00,0.0046
1429.00,0.0033
1426.00,0.0026
1423.00,0.0022
1420.00,0.0021
1417.00,0.0020
1414.00,0.0020
1411.00,0.0021
1408.00,0.0021
1405.00,0.0021
1402.00,0.0023
1399.00,0.0025
1396.00,0.0027
1393.00,0.0030
1390.00,0.0036
1387.00,0.0043
1384.00,0.0049
1381.00,0.0055
1378.00,0.0060
1375.00,0.0065
1372.00,0.0066
1369.00,0.0066
1366.00,0.0064
1363.00,0.0063
1360.00,0.0059
1357.00,0.0057
1354.00,0.0055
1351.00,0.0054
1348.00,0.0054
1345.00,0.0052
1342.00,0.0050
1339.00,0.0047
1336.00,0.0047
1333.00,0.0051
1330.00,0.0055
1327.00,0.0055
1324.00,0.0053
1321.00,0.0051
1318.00,0.0051
1315.00,0.0053
1312.00,0.0054
1309.00,0.0053
1306.00,0.0050
1303.00,0.0047
1300.00,0.0044
1297.00,0.0042
1294.00,0.0040
1291.00,0.0038
1288.00,0.0035
1285.00,0.0034
1282.00,0.0035
1279.00,0.0034
1276.00,0.0033
1273.00,0.0030
1270.00,0.0029
1267.00,0.0028
1264.00,0.0027
1261.00,0.0026
1258.00,0.0027
1255.00,0.0029
1252.00,0.0031
1249.00,0.0031
1246.00,0.0031
1243.00,0.0030
1240.00,0.0030
1237.00,0.0029
1234.00,0.0028
1231.00,0.0028
1228.00,0.0029
1225.00,0.0029
1222.00,0.0029
1219.00,0.0029
1216.00,0.0030
1213.00,0.0031
1210.00,0.0034
1207.00,0.0036
1204.00,0.0040
1201.00,0.0045
1198.00,0.0047
1195.00,0.0048
1192.00,0.0050
1189.00,0.0052
1186.00,0.0057
1183.00,0.0068
1180.00,0.0070
1177.00,0.0057
1174.00,0.0046
1171.00,0.0042
1168.00,0.0041
1165.00,0.0042
1162.00,0.0046
1159.00,0.0056
1156.00,0.0070
1153.00,0.0072
1150.00,0.0056
1147.00,0.0043
1144.00,0.0036
1141.00,0.0032
1138.00,0.0030
1135.00,0.0030
1132.00,0.0029
1129.00,0.0029
1126.00,0.0029
1123.00,0.0029
1120.00,0.0032
1117.00,0.0036
1114.00,0.0038
1111.00,0.0038
1108.00,0.0037
1105.00,0.0038
1102.00,0.0039
1099.00,0.0040
1096.00,0.0043
1093.00,0.0047
1090.00,0.0049
1087.00,0.0052
1084.00,0.0059
1081.00,0.0066
1078.00,0.0073
1075.00,0.0083
1072.00,0.0097
1069.00,0.0103
1066.00,0.0098
1063.00,0.0086
1060.00,0.0074
1057.00,0.0065
1054.00,0.0059
1051.00,0.0055
1048.00,0.0052
1045.00,0.0049
1042.00,0.0049
1039.00,0.0053
1036.00,0.0073
1033.00,0.0116
1030.00,0.0162
1027.00,0.0172
1024.00,0.0140
1021.00,0.0110
1018.00,0.0091
1015.00,0.0079
1012.00,0.0071
1009.00,0.0068
1006.00,0.0070
1003.00,0.0075
1000.00,0.0066
997.00,0.0056
994.00,0.0053
991.00,0.0053
988.00,0.0057
985.00,0.0063
982.00,0.0068
979.00,0.0070
976.00,0.0068
973.00,0.0065
970.00,0.0069
967.00,0.0077
964.00,0.0081
961.00,0.0076
958.00,0.0067
955.00,0.0060
952.00,0.0059
949.00,0.0061
946.00,0.0063
943.00,0.0065
940.00,0.0063
937.00,0.0057
934.00,0.0050
931.00,0.0045
928.00,0.0043
925.00,0.0045
922.00,0.0046
919.00,0.0052
916.00,0.0064
913.00,0.0084
910.00,0.0109
907.00,0.0124
904.00,0.0118
901.00,0.0093
898.00,0.0066
895.00,0.0050
892.00,0.0043
889.00,0.0039
886.00,0.0036
883.00,0.0033
880.00,0.0032
877.00,0.0032
874.00,0.0030
871.00,0.0028
868.00,0.0028
865.00,0.0028
862.00,0.0029
859.00,0.0028
856.00,0.0029
853.00,0.0033
850.00,0.0040
847.00,0.0050
844.00,0.0060
841.00,0.0064
838.00,0.0058
835.00,0.0045
832.00,0.0035
829.00,0.0030
826.00,0.0028
823.00,0.0027
820.00,0.0026
817.00,0.0027
814.00,0.0028
811.00,0.0029
808.00,0.0030
805.00,0.0030
802.00,0.0031
799.00,0.0036
796.00,0.0041
793.00,0.0048
790.00,0.0058
787.00,0.0072
784.00,0.0087
781.00,0.0107
778.00,0.0136
775.00,0.0177
772.00,0.0231
769.00,0.0297
766.00,0.0362
763.00,0.0424
760.00,0.0489
757.00,0.0541
754.00,0.0553
751.00,0.0547
748.00,0.0545
745.00,0.0502
742.00,0.0398
739.00,0.0292
736.00,0.0209
733.00,0.0139
730.00,0.0093
727.00,0.0071
724.00,0.0064
721.00,0.0063
718.00,0.0067
715.00,0.0082
712.00,0.0123
709.00,0.0228
706.00,0.0442
703.00,0.0784
700.00,0.1215
697.00,0.1626
694.00,0.1722
691.00,0.1281
688.00,0.0827
685.00,0.0580
682.00,0.0444
679.00,0.0355
676.00,0.0300
673.00,0.0266
670.00,0.0241
667.00,0.0214
664.00,0.0189
661.00,0.0167
658.00,0.0147
655.00,0.0128
652.00,0.0112
649.00,0.0101
646.00,0.0094
643.00,0.0087
640.00,0.0087
637.00,0.0093
634.00,0.0100
631.00,0.0108
628.00,0.0112
625.00,0.0117
622.00,0.0123
619.00,0.0122
616.00,0.0110
613.00,0.0103
610.00,0.0099
607.00,0.0097
604.00,0.0098
601.00,0.0099
598.00,0.0104
595.00,0.0108
592.00,0.0112
589.00,0.0116
586.00,0.0121
583.00,0.0128
580.00,0.0144
577.00,0.0164
574.00,0.0189
571.00,0.0211
568.00,0.0238
565.00,0.0258
562.00,0.0286
559.00,0.0310
556.00,0.0335
553.00,0.0364
550.00,0.0398
547.00,0.0444
544.00,0.0505
541.00,0.0564
538.00,0.0596
535.00,0.0564
532.00,0.0488
529.00,0.0400
526.00,0.0324
523.00,0.0267
520.00,0.0234
517.00,0.0211
514.00,0.0193
511.00,0.0180
508.00,0.0158
505.00,0.0146
502.00,0.0133
499.00,0.0120
496.00,0.0118
493.00,0.0115
490.00,0.0110
487.00,0.0100
484.00,0.0097
481.00,0.0101
478.00,0.0098
475.00,0.0090
472.00,0.0081
469.00,0.0088
466.00,0.0086
463.00,0.0084
460.00,0.0084
457.00,0.0085
454.00,0.0074
451.00,0.0073
448.00,0.0080
445.00,0.0077
442.00,0.0072
439.00,0.0074
436.00,0.0073
433.00,0.0076
430.00,0.0071
427.00,0.0064
424.00,0.0069
421.00,0.0070
418.00,0.0065
415.00,0.0066
412.00,0.0058
409.00,0.0072
406.00,0.0094
403.00,0.0081
400.00,0.0083