File: FTIR/Olivia/2025_08_01_1CBN_3PVP90_mortar_dry_scan1.csv
Created as New Dataset,Sample 1026 By YargerLab Date Friday, August 01 2025
cm-1,A
4000.00,0.0043
3997.00,0.0043
3994.00,0.0042
3991.00,0.0042
3988.00,0.0043
3985.00,0.0043
3982.00,0.0043
3979.00,0.0043
3976.00,0.0043
3973.00,0.0043
3970.00,0.0043
3967.00,0.0043
3964.00,0.0043
3961.00,0.0043
3958.00,0.0042
3955.00,0.0042
3952.00,0.0043
3949.00,0.0043
3946.00,0.0043
3943.00,0.0043
3940.00,0.0043
3937.00,0.0043
3934.00,0.0043
3931.00,0.0043
3928.00,0.0043
3925.00,0.0043
3922.00,0.0042
3919.00,0.0043
3916.00,0.0043
3913.00,0.0042
3910.00,0.0042
3907.00,0.0043
3904.00,0.0043
3901.00,0.0044
3898.00,0.0043
3895.00,0.0043
3892.00,0.0043
3889.00,0.0042
3886.00,0.0042
3883.00,0.0043
3880.00,0.0042
3877.00,0.0042
3874.00,0.0042
3871.00,0.0043
3868.00,0.0042
3865.00,0.0042
3862.00,0.0042
3859.00,0.0042
3856.00,0.0043
3853.00,0.0042
3850.00,0.0043
3847.00,0.0042
3844.00,0.0043
3841.00,0.0043
3838.00,0.0043
3835.00,0.0043
3832.00,0.0043
3829.00,0.0043
3826.00,0.0042
3823.00,0.0043
3820.00,0.0042
3817.00,0.0043
3814.00,0.0042
3811.00,0.0042
3808.00,0.0043
3805.00,0.0042
3802.00,0.0043
3799.00,0.0042
3796.00,0.0041
3793.00,0.0042
3790.00,0.0042
3787.00,0.0042
3784.00,0.0042
3781.00,0.0042
3778.00,0.0042
3775.00,0.0042
3772.00,0.0043
3769.00,0.0043
3766.00,0.0043
3763.00,0.0042
3760.00,0.0043
3757.00,0.0043
3754.00,0.0043
3751.00,0.0043
3748.00,0.0042
3745.00,0.0042
3742.00,0.0042
3739.00,0.0042
3736.00,0.0042
3733.00,0.0040
3730.00,0.0041
3727.00,0.0041
3724.00,0.0041
3721.00,0.0040
3718.00,0.0040
3715.00,0.0040
3712.00,0.0041
3709.00,0.0041
3706.00,0.0041
3703.00,0.0040
3700.00,0.0039
3697.00,0.0040
3694.00,0.0040
3691.00,0.0041
3688.00,0.0041
3685.00,0.0041
3682.00,0.0042
3679.00,0.0042
3676.00,0.0043
3673.00,0.0044
3670.00,0.0044
3667.00,0.0044
3664.00,0.0044
3661.00,0.0044
3658.00,0.0046
3655.00,0.0046
3652.00,0.0046
3649.00,0.0045
3646.00,0.0047
3643.00,0.0047
3640.00,0.0047
3637.00,0.0048
3634.00,0.0048
3631.00,0.0049
3628.00,0.0050
3625.00,0.0050
3622.00,0.0051
3619.00,0.0052
3616.00,0.0054
3613.00,0.0054
3610.00,0.0056
3607.00,0.0056
3604.00,0.0057
3601.00,0.0057
3598.00,0.0058
3595.00,0.0059
3592.00,0.0060
3589.00,0.0061
3586.00,0.0063
3583.00,0.0064
3580.00,0.0065
3577.00,0.0066
3574.00,0.0067
3571.00,0.0069
3568.00,0.0071
3565.00,0.0073
3562.00,0.0074
3559.00,0.0076
3556.00,0.0077
3553.00,0.0079
3550.00,0.0080
3547.00,0.0082
3544.00,0.0084
3541.00,0.0085
3538.00,0.0087
3535.00,0.0089
3532.00,0.0090
3529.00,0.0091
3526.00,0.0093
3523.00,0.0096
3520.00,0.0097
3517.00,0.0099
3514.00,0.0101
3511.00,0.0102
3508.00,0.0104
3505.00,0.0106
3502.00,0.0108
3499.00,0.0110
3496.00,0.0111
3493.00,0.0113
3490.00,0.0115
3487.00,0.0118
3484.00,0.0121
3481.00,0.0123
3478.00,0.0126
3475.00,0.0129
3472.00,0.0132
3469.00,0.0135
3466.00,0.0139
3463.00,0.0142
3460.00,0.0145
3457.00,0.0149
3454.00,0.0153
3451.00,0.0157
3448.00,0.0161
3445.00,0.0165
3442.00,0.0169
3439.00,0.0174
3436.00,0.0179
3433.00,0.0184
3430.00,0.0190
3427.00,0.0196
3424.00,0.0202
3421.00,0.0209
3418.00,0.0216
3415.00,0.0222
3412.00,0.0227
3409.00,0.0232
3406.00,0.0236
3403.00,0.0239
3400.00,0.0240
3397.00,0.0241
3394.00,0.0240
3391.00,0.0239
3388.00,0.0235
3385.00,0.0233
3382.00,0.0229
3379.00,0.0225
3376.00,0.0221
3373.00,0.0217
3370.00,0.0213
3367.00,0.0209
3364.00,0.0206
3361.00,0.0202
3358.00,0.0199
3355.00,0.0197
3352.00,0.0194
3349.00,0.0192
3346.00,0.0191
3343.00,0.0189
3340.00,0.0188
3337.00,0.0187
3334.00,0.0186
3331.00,0.0186
3328.00,0.0185
3325.00,0.0186
3322.00,0.0187
3319.00,0.0187
3316.00,0.0188
3313.00,0.0189
3310.00,0.0189
3307.00,0.0190
3304.00,0.0192
3301.00,0.0195
3298.00,0.0196
3295.00,0.0197
3292.00,0.0200
3289.00,0.0203
3286.00,0.0205
3283.00,0.0208
3280.00,0.0210
3277.00,0.0213
3274.00,0.0214
3271.00,0.0216
3268.00,0.0219
3265.00,0.0222
3262.00,0.0224
3259.00,0.0226
3256.00,0.0229
3253.00,0.0232
3250.00,0.0233
3247.00,0.0234
3244.00,0.0237
3241.00,0.0238
3238.00,0.0238
3235.00,0.0237
3232.00,0.0237
3229.00,0.0238
3226.00,0.0238
3223.00,0.0237
3220.00,0.0235
3217.00,0.0234
3214.00,0.0231
3211.00,0.0228
3208.00,0.0225
3205.00,0.0221
3202.00,0.0218
3199.00,0.0215
3196.00,0.0211
3193.00,0.0206
3190.00,0.0202
3187.00,0.0199
3184.00,0.0195
3181.00,0.0191
3178.00,0.0187
3175.00,0.0183
3172.00,0.0179
3169.00,0.0174
3166.00,0.0170
3163.00,0.0166
3160.00,0.0161
3157.00,0.0156
3154.00,0.0151
3151.00,0.0147
3148.00,0.0145
3145.00,0.0141
3142.00,0.0137
3139.00,0.0133
3136.00,0.0130
3133.00,0.0127
3130.00,0.0125
3127.00,0.0122
3124.00,0.0120
3121.00,0.0118
3118.00,0.0116
3115.00,0.0113
3112.00,0.0109
3109.00,0.0107
3106.00,0.0105
3103.00,0.0102
3100.00,0.0100
3097.00,0.0099
3094.00,0.0099
3091.00,0.0099
3088.00,0.0100
3085.00,0.0100
3082.00,0.0099
3079.00,0.0098
3076.00,0.0097
3073.00,0.0096
3070.00,0.0095
3067.00,0.0094
3064.00,0.0093
3061.00,0.0094
3058.00,0.0094
3055.00,0.0094
3052.00,0.0094
3049.00,0.0093
3046.00,0.0093
3043.00,0.0092
3040.00,0.0094
3037.00,0.0096
3034.00,0.0098
3031.00,0.0098
3028.00,0.0095
3025.00,0.0092
3022.00,0.0089
3019.00,0.0087
3016.00,0.0087
3013.00,0.0087
3010.00,0.0089
3007.00,0.0094
3004.00,0.0101
3001.00,0.0110
2998.00,0.0121
2995.00,0.0134
2992.00,0.0144
2989.00,0.0151
2986.00,0.0163
2983.00,0.0182
2980.00,0.0205
2977.00,0.0215
2974.00,0.0230
2971.00,0.0259
2968.00,0.0276
2965.00,0.0289
2962.00,0.0306
2959.00,0.0307
2956.00,0.0287
2953.00,0.0262
2950.00,0.0247
2947.00,0.0246
2944.00,0.0259
2941.00,0.0282
2938.00,0.0318
2935.00,0.0371
2932.00,0.0430
2929.00,0.0479
2926.00,0.0493
2923.00,0.0469
2920.00,0.0429
2917.00,0.0384
2914.00,0.0344
2911.00,0.0312
2908.00,0.0287
2905.00,0.0266
2902.00,0.0249
2899.00,0.0234
2896.00,0.0221
2893.00,0.0211
2890.00,0.0203
2887.00,0.0195
2884.00,0.0191
2881.00,0.0194
2878.00,0.0207
2875.00,0.0225
2872.00,0.0235
2869.00,0.0232
2866.00,0.0237
2863.00,0.0263
2860.00,0.0307
2857.00,0.0340
2854.00,0.0344
2851.00,0.0320
2848.00,0.0270
2845.00,0.0219
2842.00,0.0181
2839.00,0.0155
2836.00,0.0139
2833.00,0.0129
2830.00,0.0120
2827.00,0.0113
2824.00,0.0107
2821.00,0.0102
2818.00,0.0098
2815.00,0.0095
2812.00,0.0092
2809.00,0.0090
2806.00,0.0088
2803.00,0.0087
2800.00,0.0085
2797.00,0.0083
2794.00,0.0081
2791.00,0.0079
2788.00,0.0078
2785.00,0.0077
2782.00,0.0076
2779.00,0.0074
2776.00,0.0073
2773.00,0.0073
2770.00,0.0073
2767.00,0.0072
2764.00,0.0072
2761.00,0.0072
2758.00,0.0072
2755.00,0.0072
2752.00,0.0072
2749.00,0.0072
2746.00,0.0073
2743.00,0.0073
2740.00,0.0074
2737.00,0.0075
2734.00,0.0078
2731.00,0.0079
2728.00,0.0078
2725.00,0.0077
2722.00,0.0076
2719.00,0.0076
2716.00,0.0075
2713.00,0.0074
2710.00,0.0073
2707.00,0.0073
2704.00,0.0072
2701.00,0.0072
2698.00,0.0071
2695.00,0.0070
2692.00,0.0070
2689.00,0.0069
2686.00,0.0069
2683.00,0.0068
2680.00,0.0067
2677.00,0.0068
2674.00,0.0068
2671.00,0.0069
2668.00,0.0070
2665.00,0.0071
2662.00,0.0073
2659.00,0.0074
2656.00,0.0074
2653.00,0.0075
2650.00,0.0075
2647.00,0.0075
2644.00,0.0074
2641.00,0.0073
2638.00,0.0073
2635.00,0.0072
2632.00,0.0071
2629.00,0.0070
2626.00,0.0069
2623.00,0.0068
2620.00,0.0067
2617.00,0.0066
2614.00,0.0067
2611.00,0.0067
2608.00,0.0067
2605.00,0.0067
2602.00,0.0068
2599.00,0.0069
2596.00,0.0069
2593.00,0.0069
2590.00,0.0069
2587.00,0.0068
2584.00,0.0068
2581.00,0.0067
2578.00,0.0067
2575.00,0.0066
2572.00,0.0065
2569.00,0.0066
2566.00,0.0065
2563.00,0.0064
2560.00,0.0064
2557.00,0.0063
2554.00,0.0062
2551.00,0.0061
2548.00,0.0061
2545.00,0.0062
2542.00,0.0061
2539.00,0.0062
2536.00,0.0062
2533.00,0.0061
2530.00,0.0060
2527.00,0.0059
2524.00,0.0060
2521.00,0.0059
2518.00,0.0058
2515.00,0.0058
2512.00,0.0057
2509.00,0.0057
2506.00,0.0057
2503.00,0.0056
2500.00,0.0056
2497.00,0.0056
2494.00,0.0056
2491.00,0.0055
2488.00,0.0054
2485.00,0.0054
2482.00,0.0053
2479.00,0.0054
2476.00,0.0054
2473.00,0.0054
2470.00,0.0053
2467.00,0.0052
2464.00,0.0053
2461.00,0.0054
2458.00,0.0054
2455.00,0.0055
2452.00,0.0055
2449.00,0.0054
2446.00,0.0054
2443.00,0.0052
2440.00,0.0052
2437.00,0.0052
2434.00,0.0052
2431.00,0.0052
2428.00,0.0051
2425.00,0.0051
2422.00,0.0051
2419.00,0.0050
2416.00,0.0050
2413.00,0.0051
2410.00,0.0051
2407.00,0.0050
2404.00,0.0050
2401.00,0.0050
2398.00,0.0049
2395.00,0.0049
2392.00,0.0049
2389.00,0.0048
2386.00,0.0048
2383.00,0.0046
2380.00,0.0044
2377.00,0.0042
2374.00,0.0043
2371.00,0.0042
2368.00,0.0041
2365.00,0.0041
2362.00,0.0041
2359.00,0.0041
2356.00,0.0041
2353.00,0.0042
2350.00,0.0042
2347.00,0.0043
2344.00,0.0043
2341.00,0.0044
2338.00,0.0046
2335.00,0.0046
2332.00,0.0046
2329.00,0.0049
2326.00,0.0059
2323.00,0.0058
2320.00,0.0053
2317.00,0.0051
2314.00,0.0050
2311.00,0.0048
2308.00,0.0048
2305.00,0.0050
2302.00,0.0051
2299.00,0.0052
2296.00,0.0054
2293.00,0.0058
2290.00,0.0062
2287.00,0.0063
2284.00,0.0060
2281.00,0.0057
2278.00,0.0056
2275.00,0.0056
2272.00,0.0055
2269.00,0.0053
2266.00,0.0050
2263.00,0.0049
2260.00,0.0050
2257.00,0.0047
2254.00,0.0046
2251.00,0.0049
2248.00,0.0050
2245.00,0.0048
2242.00,0.0048
2239.00,0.0050
2236.00,0.0050
2233.00,0.0049
2230.00,0.0048
2227.00,0.0050
2224.00,0.0051
2221.00,0.0050
2218.00,0.0048
2215.00,0.0049
2212.00,0.0050
2209.00,0.0049
2206.00,0.0049
2203.00,0.0049
2200.00,0.0048
2197.00,0.0047
2194.00,0.0050
2191.00,0.0052
2188.00,0.0054
2185.00,0.0052
2182.00,0.0048
2179.00,0.0046
2176.00,0.0043
2173.00,0.0046
2170.00,0.0054
2167.00,0.0059
2164.00,0.0064
2161.00,0.0041
2158.00,0.0010
2155.00,0.0020
2152.00,0.0028
2149.00,0.0030
2146.00,0.0030
2143.00,0.0033
2140.00,0.0034
2137.00,0.0028
2134.00,0.0024
2131.00,0.0031
2128.00,0.0035
2125.00,0.0037
2122.00,0.0038
2119.00,0.0041
2116.00,0.0045
2113.00,0.0044
2110.00,0.0043
2107.00,0.0043
2104.00,0.0042
2101.00,0.0043
2098.00,0.0040
2095.00,0.0036
2092.00,0.0040
2089.00,0.0042
2086.00,0.0043
2083.00,0.0045
2080.00,0.0046
2077.00,0.0046
2074.00,0.0045
2071.00,0.0043
2068.00,0.0044
2065.00,0.0043
2062.00,0.0041
2059.00,0.0039
2056.00,0.0038
2053.00,0.0043
2050.00,0.0043
2047.00,0.0040
2044.00,0.0040
2041.00,0.0042
2038.00,0.0040
2035.00,0.0039
2032.00,0.0038
2029.00,0.0035
2026.00,0.0034
2023.00,0.0033
2020.00,0.0031
2017.00,0.0033
2014.00,0.0032
2011.00,0.0032
2008.00,0.0022
2005.00,0.0024
2002.00,0.0029
1999.00,0.0032
1996.00,0.0039
1993.00,0.0037
1990.00,0.0038
1987.00,0.0040
1984.00,0.0044
1981.00,0.0054
1978.00,0.0033
1975.00,0.0026
1972.00,0.0028
1969.00,0.0030
1966.00,0.0031
1963.00,0.0033
1960.00,0.0031
1957.00,0.0029
1954.00,0.0032
1951.00,0.0033
1948.00,0.0034
1945.00,0.0033
1942.00,0.0033
1939.00,0.0034
1936.00,0.0035
1933.00,0.0035
1930.00,0.0035
1927.00,0.0035
1924.00,0.0037
1921.00,0.0040
1918.00,0.0039
1915.00,0.0039
1912.00,0.0045
1909.00,0.0052
1906.00,0.0049
1903.00,0.0045
1900.00,0.0042
1897.00,0.0042
1894.00,0.0045
1891.00,0.0044
1888.00,0.0043
1885.00,0.0042
1882.00,0.0041
1879.00,0.0041
1876.00,0.0041
1873.00,0.0040
1870.00,0.0041
1867.00,0.0042
1864.00,0.0043
1861.00,0.0042
1858.00,0.0042
1855.00,0.0043
1852.00,0.0044
1849.00,0.0046
1846.00,0.0048
1843.00,0.0043
1840.00,0.0043
1837.00,0.0044
1834.00,0.0043
1831.00,0.0043
1828.00,0.0042
1825.00,0.0043
1822.00,0.0043
1819.00,0.0041
1816.00,0.0041
1813.00,0.0043
1810.00,0.0044
1807.00,0.0045
1804.00,0.0045
1801.00,0.0047
1798.00,0.0047
1795.00,0.0049
1792.00,0.0047
1789.00,0.0046
1786.00,0.0047
1783.00,0.0047
1780.00,0.0049
1777.00,0.0050
1774.00,0.0052
1771.00,0.0049
1768.00,0.0049
1765.00,0.0050
1762.00,0.0052
1759.00,0.0053
1756.00,0.0052
1753.00,0.0051
1750.00,0.0052
1747.00,0.0054
1744.00,0.0056
1741.00,0.0055
1738.00,0.0053
1735.00,0.0054
1732.00,0.0055
1729.00,0.0062
1726.00,0.0064
1723.00,0.0068
1720.00,0.0069
1717.00,0.0070
1714.00,0.0074
1711.00,0.0080
1708.00,0.0085
1705.00,0.0091
1702.00,0.0097
1699.00,0.0106
1696.00,0.0134
1693.00,0.0159
1690.00,0.0191
1687.00,0.0218
1684.00,0.0252
1681.00,0.0282
1678.00,0.0308
1675.00,0.0332
1672.00,0.0356
1669.00,0.0388
1666.00,0.0414
1663.00,0.0437
1660.00,0.0461
1657.00,0.0471
1654.00,0.0471
1651.00,0.0489
1648.00,0.0489
1645.00,0.0490
1642.00,0.0482
1639.00,0.0469
1636.00,0.0452
1633.00,0.0459
1630.00,0.0506
1627.00,0.0619
1624.00,0.0714
1621.00,0.0759
1618.00,0.0693
1615.00,0.0602
1612.00,0.0586
1609.00,0.0566
1606.00,0.0483
1603.00,0.0390
1600.00,0.0323
1597.00,0.0288
1594.00,0.0292
1591.00,0.0346
1588.00,0.0437
1585.00,0.0503
1582.00,0.0506
1579.00,0.0462
1576.00,0.0395
1573.00,0.0341
1570.00,0.0312
1567.00,0.0284
1564.00,0.0239
1561.00,0.0197
1558.00,0.0156
1555.00,0.0146
1552.00,0.0142
1549.00,0.0140
1546.00,0.0133
1543.00,0.0125
1540.00,0.0121
1537.00,0.0118
1534.00,0.0115
1531.00,0.0113
1528.00,0.0115
1525.00,0.0118
1522.00,0.0121
1519.00,0.0131
1516.00,0.0150
1513.00,0.0164
1510.00,0.0175
1507.00,0.0186
1504.00,0.0194
1501.00,0.0234
1498.00,0.0324
1495.00,0.0375
1492.00,0.0318
1489.00,0.0247
1486.00,0.0197
1483.00,0.0170
1480.00,0.0160
1477.00,0.0163
1474.00,0.0183
1471.00,0.0256
1468.00,0.0356
1465.00,0.0431
1462.00,0.0442
1459.00,0.0432
1456.00,0.0399
1453.00,0.0369
1450.00,0.0375
1447.00,0.0414
1444.00,0.0469
1441.00,0.0524
1438.00,0.0551
1435.00,0.0592
1432.00,0.0621
1429.00,0.0646
1426.00,0.0648
1423.00,0.0637
1420.00,0.0591
1417.00,0.0521
1414.00,0.0456
1411.00,0.0430
1408.00,0.0455
1405.00,0.0527
1402.00,0.0594
1399.00,0.0600
1396.00,0.0534
1393.00,0.0438
1390.00,0.0389
1387.00,0.0415
1384.00,0.0395
1381.00,0.0385
1378.00,0.0392
1375.00,0.0363
1372.00,0.0320
1369.00,0.0339
1366.00,0.0404
1363.00,0.0439
1360.00,0.0501
1357.00,0.0442
1354.00,0.0378
1351.00,0.0362
1348.00,0.0366
1345.00,0.0356
1342.00,0.0324
1339.00,0.0291
1336.00,0.0277
1333.00,0.0292
1330.00,0.0312
1327.00,0.0317
1324.00,0.0313
1321.00,0.0315
1318.00,0.0310
1315.00,0.0291
1312.00,0.0280
1309.00,0.0297
1306.00,0.0351
1303.00,0.0445
1300.00,0.0509
1297.00,0.0523
1294.00,0.0563
1291.00,0.0591
1288.00,0.0619
1285.00,0.0660
1282.00,0.0654
1279.00,0.0586
1276.00,0.0523
1273.00,0.0486
1270.00,0.0448
1267.00,0.0409
1264.00,0.0368
1261.00,0.0329
1258.00,0.0299
1255.00,0.0280
1252.00,0.0278
1249.00,0.0300
1246.00,0.0349
1243.00,0.0394
1240.00,0.0425
1237.00,0.0481
1234.00,0.0532
1231.00,0.0510
1228.00,0.0446
1225.00,0.0398
1222.00,0.0377
1219.00,0.0386
1216.00,0.0414
1213.00,0.0414
1210.00,0.0363
1207.00,0.0316
1204.00,0.0317
1201.00,0.0370
1198.00,0.0456
1195.00,0.0532
1192.00,0.0513
1189.00,0.0423
1186.00,0.0332
1183.00,0.0274
1180.00,0.0246
1177.00,0.0234
1174.00,0.0229
1171.00,0.0226
1168.00,0.0223
1165.00,0.0227
1162.00,0.0253
1159.00,0.0337
1156.00,0.0473
1153.00,0.0475
1150.00,0.0329
1147.00,0.0235
1144.00,0.0206
1141.00,0.0201
1138.00,0.0217
1135.00,0.0279
1132.00,0.0429
1129.00,0.0574
1126.00,0.0555
1123.00,0.0437
1120.00,0.0326
1117.00,0.0280
1114.00,0.0270
1111.00,0.0251
1108.00,0.0236
1105.00,0.0259
1102.00,0.0343
1099.00,0.0399
1096.00,0.0326
1093.00,0.0238
1090.00,0.0197
1087.00,0.0181
1084.00,0.0174
1081.00,0.0174
1078.00,0.0179
1075.00,0.0187
1072.00,0.0199
1069.00,0.0216
1066.00,0.0243
1063.00,0.0294
1060.00,0.0404
1057.00,0.0592
1054.00,0.0747
1051.00,0.0792
1048.00,0.0767
1045.00,0.0644
1042.00,0.0493
1039.00,0.0406
1036.00,0.0398
1033.00,0.0428
1030.00,0.0546
1027.00,0.0699
1024.00,0.0637
1021.00,0.0468
1018.00,0.0355
1015.00,0.0291
1012.00,0.0260
1009.00,0.0276
1006.00,0.0336
1003.00,0.0376
1000.00,0.0352
997.00,0.0315
994.00,0.0290
991.00,0.0256
988.00,0.0218
985.00,0.0194
982.00,0.0183
979.00,0.0179
976.00,0.0179
973.00,0.0177
970.00,0.0174
967.00,0.0174
964.00,0.0180
961.00,0.0181
958.00,0.0154
955.00,0.0132
952.00,0.0121
949.00,0.0129
946.00,0.0135
943.00,0.0144
940.00,0.0166
937.00,0.0185
934.00,0.0200
931.00,0.0202
928.00,0.0190
925.00,0.0199
922.00,0.0221
919.00,0.0201
916.00,0.0165
913.00,0.0146
910.00,0.0140
907.00,0.0147
904.00,0.0172
901.00,0.0224
898.00,0.0243
895.00,0.0211
892.00,0.0225
889.00,0.0242
886.00,0.0184
883.00,0.0168
880.00,0.0184
877.00,0.0242
874.00,0.0362
871.00,0.0490
868.00,0.0488
865.00,0.0400
862.00,0.0322
859.00,0.0276
856.00,0.0310
853.00,0.0381
850.00,0.0458
847.00,0.0452
844.00,0.0377
841.00,0.0341
838.00,0.0378
835.00,0.0464
832.00,0.0477
829.00,0.0391
826.00,0.0300
823.00,0.0360
820.00,0.0553
817.00,0.0630
814.00,0.0578
811.00,0.0341
808.00,0.0250
805.00,0.0218
802.00,0.0204
799.00,0.0198
796.00,0.0195
793.00,0.0194
790.00,0.0193
787.00,0.0194
784.00,0.0196
781.00,0.0201
778.00,0.0217
775.00,0.0260
772.00,0.0254
769.00,0.0231
766.00,0.0232
763.00,0.0246
760.00,0.0269
757.00,0.0272
754.00,0.0266
751.00,0.0270
748.00,0.0279
745.00,0.0293
742.00,0.0316
739.00,0.0370
736.00,0.0471
733.00,0.0490
730.00,0.0474
727.00,0.0461
724.00,0.0386
721.00,0.0350
718.00,0.0369
715.00,0.0406
712.00,0.0396
709.00,0.0372
706.00,0.0368
703.00,0.0384
700.00,0.0408
697.00,0.0420
694.00,0.0403
691.00,0.0416
688.00,0.0456
685.00,0.0440
682.00,0.0427
679.00,0.0440
676.00,0.0471
673.00,0.0515
670.00,0.0536
667.00,0.0533
664.00,0.0535
661.00,0.0557
658.00,0.0541
655.00,0.0522
652.00,0.0519
649.00,0.0522
646.00,0.0521
643.00,0.0516
640.00,0.0509
637.00,0.0501
634.00,0.0496
631.00,0.0493
628.00,0.0499
625.00,0.0517
622.00,0.0546
619.00,0.0559
616.00,0.0530
613.00,0.0497
610.00,0.0497
607.00,0.0554
604.00,0.0632
601.00,0.0662
598.00,0.0665
595.00,0.0661
592.00,0.0653
589.00,0.0642
586.00,0.0635
583.00,0.0648
580.00,0.0676
577.00,0.0738
574.00,0.0730
571.00,0.0668
568.00,0.0636
565.00,0.0648
562.00,0.0690
559.00,0.0713
556.00,0.0677
553.00,0.0651
550.00,0.0673
547.00,0.0725
544.00,0.0722
541.00,0.0671
538.00,0.0641
535.00,0.0652
532.00,0.0700
529.00,0.0695
526.00,0.0639
523.00,0.0594
520.00,0.0572
517.00,0.0560
514.00,0.0550
511.00,0.0549
508.00,0.0563
505.00,0.0567
502.00,0.0552
499.00,0.0537
496.00,0.0538
493.00,0.0552
490.00,0.0550
487.00,0.0533
484.00,0.0519
481.00,0.0515
478.00,0.0512
475.00,0.0503
472.00,0.0507
469.00,0.0506
466.00,0.0500
463.00,0.0496
460.00,0.0498
457.00,0.0493
454.00,0.0491
451.00,0.0488
448.00,0.0481
445.00,0.0481
442.00,0.0492
439.00,0.0494
436.00,0.0483
433.00,0.0472
430.00,0.0473
427.00,0.0479
424.00,0.0481
421.00,0.0465
418.00,0.0467
415.00,0.0504
412.00,0.0520
409.00,0.0523
406.00,0.0476
403.00,0.0469
400.00,0.0484