File: FTIR/Olivia/2025_07_21_Polystyrene_Std_scan1.csv
Created as New Dataset,Sample 840 By YargerLab Date Friday, July 18 2025
cm-1,A
4000.00,0.0007
3997.00,0.0007
3994.00,0.0007
3991.00,0.0007
3988.00,0.0007
3985.00,0.0007
3982.00,0.0006
3979.00,0.0006
3976.00,0.0007
3973.00,0.0007
3970.00,0.0007
3967.00,0.0007
3964.00,0.0007
3961.00,0.0007
3958.00,0.0007
3955.00,0.0007
3952.00,0.0007
3949.00,0.0007
3946.00,0.0007
3943.00,0.0007
3940.00,0.0007
3937.00,0.0007
3934.00,0.0007
3931.00,0.0006
3928.00,0.0006
3925.00,0.0006
3922.00,0.0006
3919.00,0.0006
3916.00,0.0006
3913.00,0.0006
3910.00,0.0007
3907.00,0.0006
3904.00,0.0006
3901.00,0.0006
3898.00,0.0006
3895.00,0.0006
3892.00,0.0006
3889.00,0.0007
3886.00,0.0006
3883.00,0.0005
3880.00,0.0005
3877.00,0.0005
3874.00,0.0006
3871.00,0.0005
3868.00,0.0006
3865.00,0.0006
3862.00,0.0006
3859.00,0.0006
3856.00,0.0006
3853.00,0.0005
3850.00,0.0005
3847.00,0.0006
3844.00,0.0006
3841.00,0.0005
3838.00,0.0005
3835.00,0.0006
3832.00,0.0006
3829.00,0.0006
3826.00,0.0007
3823.00,0.0006
3820.00,0.0006
3817.00,0.0005
3814.00,0.0006
3811.00,0.0007
3808.00,0.0006
3805.00,0.0006
3802.00,0.0005
3799.00,0.0005
3796.00,0.0006
3793.00,0.0006
3790.00,0.0007
3787.00,0.0007
3784.00,0.0007
3781.00,0.0007
3778.00,0.0007
3775.00,0.0007
3772.00,0.0007
3769.00,0.0007
3766.00,0.0006
3763.00,0.0007
3760.00,0.0007
3757.00,0.0007
3754.00,0.0007
3751.00,0.0006
3748.00,0.0005
3745.00,0.0005
3742.00,0.0006
3739.00,0.0007
3736.00,0.0006
3733.00,0.0005
3730.00,0.0005
3727.00,0.0005
3724.00,0.0005
3721.00,0.0006
3718.00,0.0007
3715.00,0.0006
3712.00,0.0005
3709.00,0.0005
3706.00,0.0006
3703.00,0.0006
3700.00,0.0006
3697.00,0.0006
3694.00,0.0006
3691.00,0.0005
3688.00,0.0005
3685.00,0.0006
3682.00,0.0007
3679.00,0.0006
3676.00,0.0004
3673.00,0.0003
3670.00,0.0003
3667.00,0.0005
3664.00,0.0005
3661.00,0.0006
3658.00,0.0006
3655.00,0.0005
3652.00,0.0004
3649.00,0.0004
3646.00,0.0004
3643.00,0.0006
3640.00,0.0006
3637.00,0.0005
3634.00,0.0005
3631.00,0.0005
3628.00,0.0005
3625.00,0.0006
3622.00,0.0006
3619.00,0.0005
3616.00,0.0006
3613.00,0.0005
3610.00,0.0005
3607.00,0.0006
3604.00,0.0006
3601.00,0.0006
3598.00,0.0007
3595.00,0.0007
3592.00,0.0007
3589.00,0.0006
3586.00,0.0006
3583.00,0.0006
3580.00,0.0007
3577.00,0.0007
3574.00,0.0007
3571.00,0.0007
3568.00,0.0006
3565.00,0.0006
3562.00,0.0007
3559.00,0.0007
3556.00,0.0008
3553.00,0.0008
3550.00,0.0008
3547.00,0.0008
3544.00,0.0008
3541.00,0.0008
3538.00,0.0008
3535.00,0.0008
3532.00,0.0008
3529.00,0.0009
3526.00,0.0009
3523.00,0.0009
3520.00,0.0009
3517.00,0.0009
3514.00,0.0010
3511.00,0.0010
3508.00,0.0009
3505.00,0.0010
3502.00,0.0009
3499.00,0.0009
3496.00,0.0010
3493.00,0.0010
3490.00,0.0010
3487.00,0.0011
3484.00,0.0011
3481.00,0.0011
3478.00,0.0010
3475.00,0.0011
3472.00,0.0011
3469.00,0.0011
3466.00,0.0011
3463.00,0.0011
3460.00,0.0011
3457.00,0.0011
3454.00,0.0011
3451.00,0.0011
3448.00,0.0011
3445.00,0.0011
3442.00,0.0010
3439.00,0.0011
3436.00,0.0011
3433.00,0.0011
3430.00,0.0011
3427.00,0.0011
3424.00,0.0011
3421.00,0.0011
3418.00,0.0011
3415.00,0.0011
3412.00,0.0011
3409.00,0.0011
3406.00,0.0011
3403.00,0.0011
3400.00,0.0011
3397.00,0.0011
3394.00,0.0011
3391.00,0.0011
3388.00,0.0011
3385.00,0.0012
3382.00,0.0012
3379.00,0.0011
3376.00,0.0011
3373.00,0.0011
3370.00,0.0010
3367.00,0.0011
3364.00,0.0011
3361.00,0.0011
3358.00,0.0012
3355.00,0.0011
3352.00,0.0011
3349.00,0.0011
3346.00,0.0011
3343.00,0.0011
3340.00,0.0011
3337.00,0.0011
3334.00,0.0011
3331.00,0.0011
3328.00,0.0011
3325.00,0.0011
3322.00,0.0011
3319.00,0.0011
3316.00,0.0011
3313.00,0.0011
3310.00,0.0011
3307.00,0.0011
3304.00,0.0011
3301.00,0.0011
3298.00,0.0011
3295.00,0.0011
3292.00,0.0011
3289.00,0.0010
3286.00,0.0010
3283.00,0.0010
3280.00,0.0011
3277.00,0.0011
3274.00,0.0011
3271.00,0.0010
3268.00,0.0010
3265.00,0.0010
3262.00,0.0010
3259.00,0.0010
3256.00,0.0010
3253.00,0.0010
3250.00,0.0010
3247.00,0.0010
3244.00,0.0010
3241.00,0.0010
3238.00,0.0010
3235.00,0.0010
3232.00,0.0010
3229.00,0.0010
3226.00,0.0009
3223.00,0.0010
3220.00,0.0009
3217.00,0.0009
3214.00,0.0009
3211.00,0.0010
3208.00,0.0010
3205.00,0.0010
3202.00,0.0010
3199.00,0.0010
3196.00,0.0010
3193.00,0.0010
3190.00,0.0010
3187.00,0.0010
3184.00,0.0009
3181.00,0.0009
3178.00,0.0009
3175.00,0.0010
3172.00,0.0010
3169.00,0.0010
3166.00,0.0010
3163.00,0.0010
3160.00,0.0011
3157.00,0.0010
3154.00,0.0010
3151.00,0.0010
3148.00,0.0010
3145.00,0.0010
3142.00,0.0010
3139.00,0.0009
3136.00,0.0009
3133.00,0.0009
3130.00,0.0010
3127.00,0.0010
3124.00,0.0010
3121.00,0.0010
3118.00,0.0011
3115.00,0.0012
3112.00,0.0014
3109.00,0.0017
3106.00,0.0020
3103.00,0.0022
3100.00,0.0022
3097.00,0.0021
3094.00,0.0022
3091.00,0.0026
3088.00,0.0034
3085.00,0.0045
3082.00,0.0051
3079.00,0.0047
3076.00,0.0041
3073.00,0.0038
3070.00,0.0040
3067.00,0.0047
3064.00,0.0058
3061.00,0.0067
3058.00,0.0068
3055.00,0.0059
3052.00,0.0049
3049.00,0.0041
3046.00,0.0037
3043.00,0.0038
3040.00,0.0042
3037.00,0.0051
3034.00,0.0067
3031.00,0.0090
3028.00,0.0117
3025.00,0.0131
3022.00,0.0117
3019.00,0.0085
3016.00,0.0057
3013.00,0.0041
3010.00,0.0034
3007.00,0.0032
3004.00,0.0034
3001.00,0.0035
2998.00,0.0031
2995.00,0.0023
2992.00,0.0018
2989.00,0.0016
2986.00,0.0014
2983.00,0.0011
2980.00,0.0011
2977.00,0.0014
2974.00,0.0016
2971.00,0.0016
2968.00,0.0019
2965.00,0.0022
2962.00,0.0025
2959.00,0.0030
2956.00,0.0034
2953.00,0.0040
2950.00,0.0047
2947.00,0.0055
2944.00,0.0065
2941.00,0.0077
2938.00,0.0091
2935.00,0.0107
2932.00,0.0124
2929.00,0.0140
2926.00,0.0152
2923.00,0.0158
2920.00,0.0159
2917.00,0.0155
2914.00,0.0146
2911.00,0.0134
2908.00,0.0121
2905.00,0.0109
2902.00,0.0097
2899.00,0.0085
2896.00,0.0075
2893.00,0.0066
2890.00,0.0060
2887.00,0.0055
2884.00,0.0051
2881.00,0.0048
2878.00,0.0045
2875.00,0.0043
2872.00,0.0041
2869.00,0.0040
2866.00,0.0041
2863.00,0.0045
2860.00,0.0051
2857.00,0.0058
2854.00,0.0066
2851.00,0.0072
2848.00,0.0072
2845.00,0.0066
2842.00,0.0056
2839.00,0.0043
2836.00,0.0032
2833.00,0.0025
2830.00,0.0021
2827.00,0.0019
2824.00,0.0018
2821.00,0.0017
2818.00,0.0016
2815.00,0.0016
2812.00,0.0016
2809.00,0.0015
2806.00,0.0015
2803.00,0.0015
2800.00,0.0015
2797.00,0.0014
2794.00,0.0013
2791.00,0.0013
2788.00,0.0013
2785.00,0.0013
2782.00,0.0013
2779.00,0.0013
2776.00,0.0013
2773.00,0.0013
2770.00,0.0012
2767.00,0.0012
2764.00,0.0012
2761.00,0.0012
2758.00,0.0012
2755.00,0.0012
2752.00,0.0011
2749.00,0.0011
2746.00,0.0012
2743.00,0.0012
2740.00,0.0012
2737.00,0.0012
2734.00,0.0011
2731.00,0.0012
2728.00,0.0012
2725.00,0.0012
2722.00,0.0012
2719.00,0.0012
2716.00,0.0012
2713.00,0.0012
2710.00,0.0012
2707.00,0.0012
2704.00,0.0012
2701.00,0.0011
2698.00,0.0012
2695.00,0.0011
2692.00,0.0011
2689.00,0.0011
2686.00,0.0012
2683.00,0.0012
2680.00,0.0012
2677.00,0.0012
2674.00,0.0012
2671.00,0.0012
2668.00,0.0012
2665.00,0.0013
2662.00,0.0015
2659.00,0.0015
2656.00,0.0016
2653.00,0.0017
2650.00,0.0017
2647.00,0.0017
2644.00,0.0017
2641.00,0.0017
2638.00,0.0016
2635.00,0.0016
2632.00,0.0017
2629.00,0.0017
2626.00,0.0016
2623.00,0.0016
2620.00,0.0015
2617.00,0.0015
2614.00,0.0015
2611.00,0.0014
2608.00,0.0014
2605.00,0.0015
2602.00,0.0015
2599.00,0.0014
2596.00,0.0014
2593.00,0.0014
2590.00,0.0014
2587.00,0.0013
2584.00,0.0013
2581.00,0.0013
2578.00,0.0012
2575.00,0.0012
2572.00,0.0012
2569.00,0.0011
2566.00,0.0011
2563.00,0.0011
2560.00,0.0011
2557.00,0.0011
2554.00,0.0011
2551.00,0.0011
2548.00,0.0011
2545.00,0.0010
2542.00,0.0010
2539.00,0.0010
2536.00,0.0009
2533.00,0.0010
2530.00,0.0010
2527.00,0.0010
2524.00,0.0010
2521.00,0.0010
2518.00,0.0009
2515.00,0.0009
2512.00,0.0009
2509.00,0.0009
2506.00,0.0009
2503.00,0.0009
2500.00,0.0009
2497.00,0.0010
2494.00,0.0009
2491.00,0.0009
2488.00,0.0009
2485.00,0.0009
2482.00,0.0009
2479.00,0.0010
2476.00,0.0008
2473.00,0.0008
2470.00,0.0008
2467.00,0.0008
2464.00,0.0009
2461.00,0.0009
2458.00,0.0010
2455.00,0.0010
2452.00,0.0010
2449.00,0.0009
2446.00,0.0008
2443.00,0.0008
2440.00,0.0008
2437.00,0.0008
2434.00,0.0007
2431.00,0.0007
2428.00,0.0007
2425.00,0.0007
2422.00,0.0007
2419.00,0.0007
2416.00,0.0006
2413.00,0.0007
2410.00,0.0007
2407.00,0.0005
2404.00,0.0005
2401.00,0.0005
2398.00,0.0006
2395.00,0.0006
2392.00,0.0005
2389.00,0.0005
2386.00,0.0005
2383.00,0.0004
2380.00,0.0003
2377.00,0.0003
2374.00,0.0004
2371.00,0.0003
2368.00,0.0001
2365.00,0.0002
2362.00,0.0004
2359.00,0.0004
2356.00,0.0005
2353.00,0.0005
2350.00,0.0005
2347.00,0.0007
2344.00,0.0008
2341.00,0.0009
2338.00,0.0010
2335.00,0.0009
2332.00,0.0008
2329.00,0.0010
2326.00,0.0020
2323.00,0.0020
2320.00,0.0016
2317.00,0.0015
2314.00,0.0014
2311.00,0.0014
2308.00,0.0013
2305.00,0.0012
2302.00,0.0012
2299.00,0.0013
2296.00,0.0016
2293.00,0.0018
2290.00,0.0019
2287.00,0.0021
2284.00,0.0019
2281.00,0.0016
2278.00,0.0016
2275.00,0.0014
2272.00,0.0013
2269.00,0.0014
2266.00,0.0012
2263.00,0.0011
2260.00,0.0013
2257.00,0.0012
2254.00,0.0009
2251.00,0.0010
2248.00,0.0011
2245.00,0.0011
2242.00,0.0011
2239.00,0.0009
2236.00,0.0010
2233.00,0.0010
2230.00,0.0009
2227.00,0.0010
2224.00,0.0010
2221.00,0.0009
2218.00,0.0009
2215.00,0.0010
2212.00,0.0009
2209.00,0.0010
2206.00,0.0008
2203.00,0.0011
2200.00,0.0010
2197.00,0.0009
2194.00,0.0010
2191.00,0.0011
2188.00,0.0013
2185.00,0.0012
2182.00,0.0007
2179.00,0.0008
2176.00,0.0005
2173.00,0.0009
2170.00,0.0017
2167.00,0.0013
2164.00,0.0016
2161.00,0.0006
2158.00,-0.0023
2155.00,-0.0015
2152.00,-0.0009
2149.00,-0.0009
2146.00,-0.0011
2143.00,-0.0009
2140.00,-0.0008
2137.00,-0.0010
2134.00,-0.0014
2131.00,-0.0010
2128.00,-0.0004
2125.00,-0.0001
2122.00,-0.0001
2119.00,0.0003
2116.00,0.0006
2113.00,0.0007
2110.00,0.0006
2107.00,0.0007
2104.00,0.0007
2101.00,0.0006
2098.00,0.0003
2095.00,0.0001
2092.00,0.0002
2089.00,0.0004
2086.00,0.0004
2083.00,0.0006
2080.00,0.0009
2077.00,0.0008
2074.00,0.0007
2071.00,0.0005
2068.00,0.0004
2065.00,0.0004
2062.00,0.0005
2059.00,0.0004
2056.00,0.0003
2053.00,0.0010
2050.00,0.0012
2047.00,0.0005
2044.00,0.0006
2041.00,0.0006
2038.00,0.0005
2035.00,0.0002
2032.00,0.0003
2029.00,0.0002
2026.00,0.0003
2023.00,0.0001
2020.00,0.0002
2017.00,0.0002
2014.00,0.0002
2011.00,0.0004
2008.00,-0.0001
2005.00,-0.0009
2002.00,-0.0004
1999.00,0.0003
1996.00,0.0002
1993.00,0.0002
1990.00,0.0007
1987.00,0.0009
1984.00,0.0011
1981.00,0.0018
1978.00,0.0005
1975.00,-0.0002
1972.00,-0.0003
1969.00,-0.0002
1966.00,0.0000
1963.00,0.0004
1960.00,-0.0000
1957.00,0.0002
1954.00,0.0008
1951.00,0.0010
1948.00,0.0013
1945.00,0.0017
1942.00,0.0016
1939.00,0.0015
1936.00,0.0012
1933.00,0.0008
1930.00,0.0005
1927.00,0.0004
1924.00,0.0005
1921.00,0.0004
1918.00,0.0003
1915.00,0.0003
1912.00,0.0002
1909.00,0.0003
1906.00,0.0003
1903.00,0.0005
1900.00,0.0006
1897.00,0.0006
1894.00,0.0008
1891.00,0.0010
1888.00,0.0012
1885.00,0.0013
1882.00,0.0014
1879.00,0.0016
1876.00,0.0017
1873.00,0.0018
1870.00,0.0019
1867.00,0.0018
1864.00,0.0015
1861.00,0.0013
1858.00,0.0012
1855.00,0.0009
1852.00,0.0007
1849.00,0.0007
1846.00,0.0007
1843.00,0.0006
1840.00,0.0006
1837.00,0.0005
1834.00,0.0006
1831.00,0.0007
1828.00,0.0009
1825.00,0.0010
1822.00,0.0012
1819.00,0.0012
1816.00,0.0013
1813.00,0.0016
1810.00,0.0019
1807.00,0.0021
1804.00,0.0023
1801.00,0.0023
1798.00,0.0023
1795.00,0.0020
1792.00,0.0017
1789.00,0.0015
1786.00,0.0014
1783.00,0.0014
1780.00,0.0014
1777.00,0.0014
1774.00,0.0016
1771.00,0.0017
1768.00,0.0016
1765.00,0.0017
1762.00,0.0018
1759.00,0.0020
1756.00,0.0022
1753.00,0.0024
1750.00,0.0027
1747.00,0.0028
1744.00,0.0030
1741.00,0.0030
1738.00,0.0029
1735.00,0.0030
1732.00,0.0027
1729.00,0.0026
1726.00,0.0026
1723.00,0.0025
1720.00,0.0024
1717.00,0.0024
1714.00,0.0022
1711.00,0.0022
1708.00,0.0022
1705.00,0.0021
1702.00,0.0021
1699.00,0.0021
1696.00,0.0021
1693.00,0.0022
1690.00,0.0023
1687.00,0.0024
1684.00,0.0025
1681.00,0.0026
1678.00,0.0027
1675.00,0.0028
1672.00,0.0028
1669.00,0.0029
1666.00,0.0029
1663.00,0.0029
1660.00,0.0028
1657.00,0.0027
1654.00,0.0026
1651.00,0.0025
1648.00,0.0023
1645.00,0.0023
1642.00,0.0022
1639.00,0.0022
1636.00,0.0021
1633.00,0.0021
1630.00,0.0022
1627.00,0.0022
1624.00,0.0023
1621.00,0.0024
1618.00,0.0025
1615.00,0.0028
1612.00,0.0033
1609.00,0.0049
1606.00,0.0084
1603.00,0.0130
1600.00,0.0142
1597.00,0.0104
1594.00,0.0069
1591.00,0.0051
1588.00,0.0047
1585.00,0.0059
1582.00,0.0063
1579.00,0.0046
1576.00,0.0033
1573.00,0.0026
1570.00,0.0022
1567.00,0.0021
1564.00,0.0020
1561.00,0.0020
1558.00,0.0021
1555.00,0.0022
1552.00,0.0024
1549.00,0.0026
1546.00,0.0028
1543.00,0.0030
1540.00,0.0028
1537.00,0.0027
1534.00,0.0025
1531.00,0.0023
1528.00,0.0021
1525.00,0.0019
1522.00,0.0020
1519.00,0.0020
1516.00,0.0021
1513.00,0.0023
1510.00,0.0025
1507.00,0.0028
1504.00,0.0036
1501.00,0.0052
1498.00,0.0108
1495.00,0.0267
1492.00,0.0362
1489.00,0.0225
1486.00,0.0117
1483.00,0.0075
1480.00,0.0054
1477.00,0.0046
1474.00,0.0042
1471.00,0.0042
1468.00,0.0045
1465.00,0.0049
1462.00,0.0058
1459.00,0.0083
1456.00,0.0200
1453.00,0.0341
1450.00,0.0347
1447.00,0.0263
1444.00,0.0208
1441.00,0.0164
1438.00,0.0132
1435.00,0.0093
1432.00,0.0072
1429.00,0.0056
1426.00,0.0047
1423.00,0.0043
1420.00,0.0041
1417.00,0.0038
1414.00,0.0037
1411.00,0.0036
1408.00,0.0035
1405.00,0.0034
1402.00,0.0034
1399.00,0.0034
1396.00,0.0036
1393.00,0.0040
1390.00,0.0046
1387.00,0.0054
1384.00,0.0062
1381.00,0.0070
1378.00,0.0078
1375.00,0.0084
1372.00,0.0086
1369.00,0.0087
1366.00,0.0085
1363.00,0.0084
1360.00,0.0080
1357.00,0.0076
1354.00,0.0074
1351.00,0.0073
1348.00,0.0072
1345.00,0.0070
1342.00,0.0067
1339.00,0.0065
1336.00,0.0065
1333.00,0.0069
1330.00,0.0074
1327.00,0.0075
1324.00,0.0073
1321.00,0.0070
1318.00,0.0070
1315.00,0.0072
1312.00,0.0074
1309.00,0.0072
1306.00,0.0069
1303.00,0.0066
1300.00,0.0063
1297.00,0.0061
1294.00,0.0060
1291.00,0.0060
1288.00,0.0058
1285.00,0.0056
1282.00,0.0056
1279.00,0.0054
1276.00,0.0051
1273.00,0.0048
1270.00,0.0045
1267.00,0.0044
1264.00,0.0042
1261.00,0.0041
1258.00,0.0040
1255.00,0.0041
1252.00,0.0041
1249.00,0.0042
1246.00,0.0043
1243.00,0.0043
1240.00,0.0042
1237.00,0.0042
1234.00,0.0042
1231.00,0.0043
1228.00,0.0044
1225.00,0.0044
1222.00,0.0045
1219.00,0.0045
1216.00,0.0046
1213.00,0.0048
1210.00,0.0049
1207.00,0.0053
1204.00,0.0058
1201.00,0.0062
1198.00,0.0066
1195.00,0.0067
1192.00,0.0068
1189.00,0.0069
1186.00,0.0076
1183.00,0.0088
1180.00,0.0089
1177.00,0.0074
1174.00,0.0061
1171.00,0.0057
1168.00,0.0054
1165.00,0.0055
1162.00,0.0059
1159.00,0.0071
1156.00,0.0087
1153.00,0.0087
1150.00,0.0068
1147.00,0.0054
1144.00,0.0047
1141.00,0.0042
1138.00,0.0040
1135.00,0.0040
1132.00,0.0039
1129.00,0.0040
1126.00,0.0042
1123.00,0.0043
1120.00,0.0046
1117.00,0.0051
1114.00,0.0055
1111.00,0.0056
1108.00,0.0055
1105.00,0.0054
1102.00,0.0055
1099.00,0.0058
1096.00,0.0059
1093.00,0.0061
1090.00,0.0065
1087.00,0.0068
1084.00,0.0074
1081.00,0.0083
1078.00,0.0092
1075.00,0.0103
1072.00,0.0118
1069.00,0.0126
1066.00,0.0120
1063.00,0.0107
1060.00,0.0095
1057.00,0.0086
1054.00,0.0080
1051.00,0.0075
1048.00,0.0071
1045.00,0.0068
1042.00,0.0069
1039.00,0.0075
1036.00,0.0097
1033.00,0.0146
1030.00,0.0197
1027.00,0.0209
1024.00,0.0174
1021.00,0.0138
1018.00,0.0117
1015.00,0.0104
1012.00,0.0095
1009.00,0.0090
1006.00,0.0093
1003.00,0.0098
1000.00,0.0087
997.00,0.0074
994.00,0.0071
991.00,0.0073
988.00,0.0076
985.00,0.0081
982.00,0.0088
979.00,0.0089
976.00,0.0084
973.00,0.0080
970.00,0.0084
967.00,0.0092
964.00,0.0096
961.00,0.0089
958.00,0.0077
955.00,0.0072
952.00,0.0070
949.00,0.0071
946.00,0.0075
943.00,0.0077
940.00,0.0074
937.00,0.0069
934.00,0.0063
931.00,0.0059
928.00,0.0057
925.00,0.0058
922.00,0.0062
919.00,0.0069
916.00,0.0082
913.00,0.0104
910.00,0.0133
907.00,0.0152
904.00,0.0144
901.00,0.0115
898.00,0.0085
895.00,0.0068
892.00,0.0060
889.00,0.0054
886.00,0.0050
883.00,0.0048
880.00,0.0046
877.00,0.0045
874.00,0.0043
871.00,0.0042
868.00,0.0042
865.00,0.0041
862.00,0.0041
859.00,0.0042
856.00,0.0043
853.00,0.0047
850.00,0.0055
847.00,0.0069
844.00,0.0080
841.00,0.0083
838.00,0.0075
835.00,0.0061
832.00,0.0048
829.00,0.0042
826.00,0.0039
823.00,0.0038
820.00,0.0038
817.00,0.0039
814.00,0.0039
811.00,0.0039
808.00,0.0041
805.00,0.0043
802.00,0.0045
799.00,0.0050
796.00,0.0056
793.00,0.0064
790.00,0.0077
787.00,0.0090
784.00,0.0107
781.00,0.0128
778.00,0.0162
775.00,0.0210
772.00,0.0272
769.00,0.0346
766.00,0.0421
763.00,0.0495
760.00,0.0571
757.00,0.0628
754.00,0.0645
751.00,0.0640
748.00,0.0637
745.00,0.0586
742.00,0.0468
739.00,0.0347
736.00,0.0250
733.00,0.0168
730.00,0.0115
727.00,0.0091
724.00,0.0082
721.00,0.0082
718.00,0.0086
715.00,0.0101
712.00,0.0148
709.00,0.0268
706.00,0.0513
703.00,0.0900
700.00,0.1389
697.00,0.1868
694.00,0.1998
691.00,0.1497
688.00,0.0968
685.00,0.0679
682.00,0.0521
679.00,0.0423
676.00,0.0361
673.00,0.0319
670.00,0.0288
667.00,0.0256
664.00,0.0231
661.00,0.0205
658.00,0.0179
655.00,0.0159
652.00,0.0143
649.00,0.0128
646.00,0.0118
643.00,0.0112
640.00,0.0112
637.00,0.0118
634.00,0.0128
631.00,0.0135
628.00,0.0142
625.00,0.0145
622.00,0.0153
619.00,0.0153
616.00,0.0138
613.00,0.0130
610.00,0.0125
607.00,0.0122
604.00,0.0120
601.00,0.0124
598.00,0.0129
595.00,0.0134
592.00,0.0140
589.00,0.0143
586.00,0.0150
583.00,0.0162
580.00,0.0177
577.00,0.0195
574.00,0.0224
571.00,0.0251
568.00,0.0281
565.00,0.0306
562.00,0.0333
559.00,0.0363
556.00,0.0393
553.00,0.0423
550.00,0.0463
547.00,0.0518
544.00,0.0582
541.00,0.0649
538.00,0.0685
535.00,0.0656
532.00,0.0568
529.00,0.0467
526.00,0.0383
523.00,0.0320
520.00,0.0278
517.00,0.0244
514.00,0.0226
511.00,0.0210
508.00,0.0191
505.00,0.0172
502.00,0.0161
499.00,0.0153
496.00,0.0144
493.00,0.0135
490.00,0.0132
487.00,0.0128
484.00,0.0124
481.00,0.0118
478.00,0.0114
475.00,0.0112
472.00,0.0117
469.00,0.0111
466.00,0.0104
463.00,0.0105
460.00,0.0101
457.00,0.0098
454.00,0.0091
451.00,0.0096
448.00,0.0097
445.00,0.0090
442.00,0.0087
439.00,0.0094
436.00,0.0091
433.00,0.0083
430.00,0.0089
427.00,0.0085
424.00,0.0086
421.00,0.0086
418.00,0.0082
415.00,0.0082
412.00,0.0091
409.00,0.0090
406.00,0.0108
403.00,0.0120
400.00,0.0092