File: FTIR/Olivia/2025_06_26_Polystyrene_Std_OAG_scan3.csv
Created as New Dataset,Sample 723 By YargerLab Date Thursday, June 26 2025
cm-1,A
4000.00,0.0020
3997.00,0.0020
3994.00,0.0019
3991.00,0.0019
3988.00,0.0019
3985.00,0.0019
3982.00,0.0019
3979.00,0.0019
3976.00,0.0019
3973.00,0.0019
3970.00,0.0019
3967.00,0.0019
3964.00,0.0019
3961.00,0.0019
3958.00,0.0019
3955.00,0.0019
3952.00,0.0019
3949.00,0.0019
3946.00,0.0018
3943.00,0.0019
3940.00,0.0019
3937.00,0.0019
3934.00,0.0019
3931.00,0.0019
3928.00,0.0018
3925.00,0.0019
3922.00,0.0018
3919.00,0.0018
3916.00,0.0019
3913.00,0.0019
3910.00,0.0019
3907.00,0.0019
3904.00,0.0019
3901.00,0.0018
3898.00,0.0018
3895.00,0.0018
3892.00,0.0019
3889.00,0.0019
3886.00,0.0018
3883.00,0.0018
3880.00,0.0018
3877.00,0.0018
3874.00,0.0018
3871.00,0.0018
3868.00,0.0018
3865.00,0.0018
3862.00,0.0018
3859.00,0.0018
3856.00,0.0017
3853.00,0.0017
3850.00,0.0017
3847.00,0.0018
3844.00,0.0019
3841.00,0.0018
3838.00,0.0018
3835.00,0.0018
3832.00,0.0018
3829.00,0.0019
3826.00,0.0019
3823.00,0.0019
3820.00,0.0019
3817.00,0.0018
3814.00,0.0018
3811.00,0.0018
3808.00,0.0019
3805.00,0.0019
3802.00,0.0018
3799.00,0.0018
3796.00,0.0018
3793.00,0.0019
3790.00,0.0019
3787.00,0.0019
3784.00,0.0019
3781.00,0.0019
3778.00,0.0019
3775.00,0.0019
3772.00,0.0020
3769.00,0.0019
3766.00,0.0019
3763.00,0.0019
3760.00,0.0018
3757.00,0.0019
3754.00,0.0019
3751.00,0.0019
3748.00,0.0018
3745.00,0.0017
3742.00,0.0017
3739.00,0.0018
3736.00,0.0017
3733.00,0.0017
3730.00,0.0018
3727.00,0.0017
3724.00,0.0018
3721.00,0.0018
3718.00,0.0018
3715.00,0.0018
3712.00,0.0018
3709.00,0.0017
3706.00,0.0018
3703.00,0.0018
3700.00,0.0017
3697.00,0.0017
3694.00,0.0017
3691.00,0.0017
3688.00,0.0016
3685.00,0.0016
3682.00,0.0016
3679.00,0.0015
3676.00,0.0013
3673.00,0.0011
3670.00,0.0011
3667.00,0.0011
3664.00,0.0012
3661.00,0.0012
3658.00,0.0012
3655.00,0.0012
3652.00,0.0011
3649.00,0.0013
3646.00,0.0013
3643.00,0.0013
3640.00,0.0013
3637.00,0.0013
3634.00,0.0014
3631.00,0.0015
3628.00,0.0015
3625.00,0.0016
3622.00,0.0017
3619.00,0.0017
3616.00,0.0017
3613.00,0.0016
3610.00,0.0017
3607.00,0.0016
3604.00,0.0017
3601.00,0.0017
3598.00,0.0017
3595.00,0.0017
3592.00,0.0017
3589.00,0.0018
3586.00,0.0017
3583.00,0.0017
3580.00,0.0017
3577.00,0.0017
3574.00,0.0017
3571.00,0.0017
3568.00,0.0017
3565.00,0.0016
3562.00,0.0016
3559.00,0.0017
3556.00,0.0017
3553.00,0.0017
3550.00,0.0018
3547.00,0.0018
3544.00,0.0018
3541.00,0.0018
3538.00,0.0018
3535.00,0.0018
3532.00,0.0018
3529.00,0.0018
3526.00,0.0018
3523.00,0.0018
3520.00,0.0018
3517.00,0.0019
3514.00,0.0019
3511.00,0.0019
3508.00,0.0019
3505.00,0.0019
3502.00,0.0019
3499.00,0.0019
3496.00,0.0019
3493.00,0.0019
3490.00,0.0019
3487.00,0.0020
3484.00,0.0019
3481.00,0.0019
3478.00,0.0020
3475.00,0.0020
3472.00,0.0020
3469.00,0.0021
3466.00,0.0020
3463.00,0.0020
3460.00,0.0020
3457.00,0.0020
3454.00,0.0020
3451.00,0.0020
3448.00,0.0020
3445.00,0.0020
3442.00,0.0020
3439.00,0.0020
3436.00,0.0021
3433.00,0.0020
3430.00,0.0021
3427.00,0.0020
3424.00,0.0020
3421.00,0.0020
3418.00,0.0020
3415.00,0.0020
3412.00,0.0020
3409.00,0.0020
3406.00,0.0020
3403.00,0.0020
3400.00,0.0020
3397.00,0.0020
3394.00,0.0020
3391.00,0.0020
3388.00,0.0020
3385.00,0.0020
3382.00,0.0020
3379.00,0.0020
3376.00,0.0021
3373.00,0.0020
3370.00,0.0020
3367.00,0.0020
3364.00,0.0020
3361.00,0.0020
3358.00,0.0021
3355.00,0.0021
3352.00,0.0020
3349.00,0.0020
3346.00,0.0020
3343.00,0.0020
3340.00,0.0021
3337.00,0.0020
3334.00,0.0020
3331.00,0.0020
3328.00,0.0020
3325.00,0.0020
3322.00,0.0020
3319.00,0.0020
3316.00,0.0020
3313.00,0.0020
3310.00,0.0020
3307.00,0.0021
3304.00,0.0021
3301.00,0.0020
3298.00,0.0020
3295.00,0.0020
3292.00,0.0020
3289.00,0.0020
3286.00,0.0020
3283.00,0.0020
3280.00,0.0020
3277.00,0.0019
3274.00,0.0020
3271.00,0.0020
3268.00,0.0019
3265.00,0.0019
3262.00,0.0019
3259.00,0.0019
3256.00,0.0019
3253.00,0.0019
3250.00,0.0019
3247.00,0.0019
3244.00,0.0019
3241.00,0.0018
3238.00,0.0019
3235.00,0.0019
3232.00,0.0019
3229.00,0.0018
3226.00,0.0018
3223.00,0.0018
3220.00,0.0018
3217.00,0.0018
3214.00,0.0018
3211.00,0.0019
3208.00,0.0020
3205.00,0.0020
3202.00,0.0020
3199.00,0.0020
3196.00,0.0019
3193.00,0.0019
3190.00,0.0019
3187.00,0.0019
3184.00,0.0018
3181.00,0.0018
3178.00,0.0018
3175.00,0.0019
3172.00,0.0019
3169.00,0.0019
3166.00,0.0020
3163.00,0.0021
3160.00,0.0020
3157.00,0.0019
3154.00,0.0019
3151.00,0.0019
3148.00,0.0019
3145.00,0.0019
3142.00,0.0019
3139.00,0.0019
3136.00,0.0019
3133.00,0.0019
3130.00,0.0019
3127.00,0.0020
3124.00,0.0020
3121.00,0.0021
3118.00,0.0023
3115.00,0.0026
3112.00,0.0031
3109.00,0.0038
3106.00,0.0046
3103.00,0.0050
3100.00,0.0048
3097.00,0.0046
3094.00,0.0049
3091.00,0.0061
3088.00,0.0083
3085.00,0.0109
3082.00,0.0120
3079.00,0.0108
3076.00,0.0092
3073.00,0.0087
3070.00,0.0095
3067.00,0.0114
3064.00,0.0142
3061.00,0.0163
3058.00,0.0160
3055.00,0.0135
3052.00,0.0109
3049.00,0.0092
3046.00,0.0085
3043.00,0.0087
3040.00,0.0100
3037.00,0.0124
3034.00,0.0165
3031.00,0.0227
3028.00,0.0294
3025.00,0.0319
3022.00,0.0273
3019.00,0.0193
3016.00,0.0128
3013.00,0.0091
3010.00,0.0073
3007.00,0.0068
3004.00,0.0071
3001.00,0.0069
2998.00,0.0053
2995.00,0.0033
2992.00,0.0019
2989.00,0.0013
2986.00,0.0007
2983.00,-0.0008
2980.00,-0.0012
2977.00,-0.0002
2974.00,0.0003
2971.00,0.0005
2968.00,0.0014
2965.00,0.0024
2962.00,0.0035
2959.00,0.0045
2956.00,0.0057
2953.00,0.0073
2950.00,0.0090
2947.00,0.0112
2944.00,0.0139
2941.00,0.0169
2938.00,0.0204
2935.00,0.0244
2932.00,0.0285
2929.00,0.0323
2926.00,0.0352
2923.00,0.0367
2920.00,0.0367
2917.00,0.0355
2914.00,0.0334
2911.00,0.0307
2908.00,0.0277
2905.00,0.0247
2902.00,0.0217
2899.00,0.0188
2896.00,0.0163
2893.00,0.0144
2890.00,0.0129
2887.00,0.0118
2884.00,0.0109
2881.00,0.0102
2878.00,0.0096
2875.00,0.0091
2872.00,0.0086
2869.00,0.0086
2866.00,0.0089
2863.00,0.0099
2860.00,0.0114
2857.00,0.0133
2854.00,0.0150
2851.00,0.0162
2848.00,0.0164
2845.00,0.0152
2842.00,0.0127
2839.00,0.0098
2836.00,0.0074
2833.00,0.0058
2830.00,0.0049
2827.00,0.0044
2824.00,0.0041
2821.00,0.0039
2818.00,0.0037
2815.00,0.0037
2812.00,0.0036
2809.00,0.0035
2806.00,0.0035
2803.00,0.0034
2800.00,0.0033
2797.00,0.0032
2794.00,0.0031
2791.00,0.0031
2788.00,0.0030
2785.00,0.0030
2782.00,0.0030
2779.00,0.0030
2776.00,0.0029
2773.00,0.0029
2770.00,0.0028
2767.00,0.0027
2764.00,0.0027
2761.00,0.0027
2758.00,0.0027
2755.00,0.0026
2752.00,0.0026
2749.00,0.0026
2746.00,0.0026
2743.00,0.0026
2740.00,0.0026
2737.00,0.0027
2734.00,0.0027
2731.00,0.0027
2728.00,0.0027
2725.00,0.0027
2722.00,0.0027
2719.00,0.0027
2716.00,0.0027
2713.00,0.0027
2710.00,0.0027
2707.00,0.0027
2704.00,0.0027
2701.00,0.0026
2698.00,0.0026
2695.00,0.0027
2692.00,0.0027
2689.00,0.0026
2686.00,0.0026
2683.00,0.0026
2680.00,0.0027
2677.00,0.0026
2674.00,0.0026
2671.00,0.0026
2668.00,0.0026
2665.00,0.0027
2662.00,0.0029
2659.00,0.0030
2656.00,0.0030
2653.00,0.0031
2650.00,0.0031
2647.00,0.0030
2644.00,0.0031
2641.00,0.0031
2638.00,0.0031
2635.00,0.0032
2632.00,0.0032
2629.00,0.0032
2626.00,0.0031
2623.00,0.0029
2620.00,0.0028
2617.00,0.0028
2614.00,0.0028
2611.00,0.0028
2608.00,0.0029
2605.00,0.0029
2602.00,0.0029
2599.00,0.0028
2596.00,0.0027
2593.00,0.0026
2590.00,0.0026
2587.00,0.0026
2584.00,0.0026
2581.00,0.0026
2578.00,0.0027
2575.00,0.0025
2572.00,0.0025
2569.00,0.0024
2566.00,0.0023
2563.00,0.0023
2560.00,0.0023
2557.00,0.0023
2554.00,0.0023
2551.00,0.0023
2548.00,0.0023
2545.00,0.0023
2542.00,0.0023
2539.00,0.0022
2536.00,0.0022
2533.00,0.0021
2530.00,0.0022
2527.00,0.0022
2524.00,0.0022
2521.00,0.0022
2518.00,0.0021
2515.00,0.0022
2512.00,0.0021
2509.00,0.0021
2506.00,0.0022
2503.00,0.0022
2500.00,0.0021
2497.00,0.0021
2494.00,0.0021
2491.00,0.0021
2488.00,0.0020
2485.00,0.0021
2482.00,0.0020
2479.00,0.0020
2476.00,0.0020
2473.00,0.0019
2470.00,0.0019
2467.00,0.0019
2464.00,0.0020
2461.00,0.0020
2458.00,0.0020
2455.00,0.0020
2452.00,0.0020
2449.00,0.0020
2446.00,0.0019
2443.00,0.0019
2440.00,0.0019
2437.00,0.0019
2434.00,0.0017
2431.00,0.0017
2428.00,0.0017
2425.00,0.0017
2422.00,0.0016
2419.00,0.0016
2416.00,0.0017
2413.00,0.0016
2410.00,0.0016
2407.00,0.0015
2404.00,0.0015
2401.00,0.0015
2398.00,0.0015
2395.00,0.0015
2392.00,0.0015
2389.00,0.0016
2386.00,0.0016
2383.00,0.0016
2380.00,0.0016
2377.00,0.0016
2374.00,0.0017
2371.00,0.0016
2368.00,0.0016
2365.00,0.0017
2362.00,0.0018
2359.00,0.0019
2356.00,0.0020
2353.00,0.0020
2350.00,0.0020
2347.00,0.0023
2344.00,0.0023
2341.00,0.0024
2338.00,0.0025
2335.00,0.0026
2332.00,0.0024
2329.00,0.0025
2326.00,0.0036
2323.00,0.0035
2320.00,0.0030
2317.00,0.0029
2314.00,0.0029
2311.00,0.0029
2308.00,0.0028
2305.00,0.0026
2302.00,0.0025
2299.00,0.0025
2296.00,0.0027
2293.00,0.0029
2290.00,0.0031
2287.00,0.0031
2284.00,0.0028
2281.00,0.0026
2278.00,0.0025
2275.00,0.0024
2272.00,0.0023
2269.00,0.0022
2266.00,0.0022
2263.00,0.0023
2260.00,0.0023
2257.00,0.0021
2254.00,0.0019
2251.00,0.0020
2248.00,0.0020
2245.00,0.0020
2242.00,0.0020
2239.00,0.0019
2236.00,0.0018
2233.00,0.0018
2230.00,0.0017
2227.00,0.0017
2224.00,0.0019
2221.00,0.0019
2218.00,0.0019
2215.00,0.0019
2212.00,0.0021
2209.00,0.0018
2206.00,0.0016
2203.00,0.0017
2200.00,0.0018
2197.00,0.0018
2194.00,0.0019
2191.00,0.0018
2188.00,0.0019
2185.00,0.0020
2182.00,0.0012
2179.00,0.0013
2176.00,0.0011
2173.00,0.0012
2170.00,0.0023
2167.00,0.0028
2164.00,0.0028
2161.00,0.0010
2158.00,-0.0019
2155.00,-0.0014
2152.00,-0.0007
2149.00,-0.0004
2146.00,-0.0002
2143.00,-0.0003
2140.00,-0.0003
2137.00,-0.0004
2134.00,-0.0007
2131.00,-0.0006
2128.00,-0.0002
2125.00,0.0003
2122.00,0.0006
2119.00,0.0009
2116.00,0.0012
2113.00,0.0013
2110.00,0.0013
2107.00,0.0012
2104.00,0.0012
2101.00,0.0012
2098.00,0.0010
2095.00,0.0008
2092.00,0.0009
2089.00,0.0011
2086.00,0.0013
2083.00,0.0012
2080.00,0.0015
2077.00,0.0014
2074.00,0.0013
2071.00,0.0013
2068.00,0.0013
2065.00,0.0010
2062.00,0.0009
2059.00,0.0010
2056.00,0.0008
2053.00,0.0016
2050.00,0.0021
2047.00,0.0015
2044.00,0.0012
2041.00,0.0010
2038.00,0.0013
2035.00,0.0010
2032.00,0.0004
2029.00,0.0004
2026.00,0.0004
2023.00,0.0002
2020.00,0.0004
2017.00,0.0003
2014.00,0.0004
2011.00,0.0005
2008.00,0.0002
2005.00,-0.0001
2002.00,0.0003
1999.00,0.0006
1996.00,0.0011
1993.00,0.0014
1990.00,0.0016
1987.00,0.0019
1984.00,0.0025
1981.00,0.0028
1978.00,0.0016
1975.00,0.0009
1972.00,0.0008
1969.00,0.0011
1966.00,0.0017
1963.00,0.0022
1960.00,0.0021
1957.00,0.0026
1954.00,0.0031
1951.00,0.0037
1948.00,0.0042
1945.00,0.0046
1942.00,0.0049
1939.00,0.0045
1936.00,0.0036
1933.00,0.0028
1930.00,0.0024
1927.00,0.0019
1924.00,0.0017
1921.00,0.0017
1918.00,0.0015
1915.00,0.0015
1912.00,0.0014
1909.00,0.0013
1906.00,0.0014
1903.00,0.0014
1900.00,0.0017
1897.00,0.0020
1894.00,0.0022
1891.00,0.0027
1888.00,0.0032
1885.00,0.0036
1882.00,0.0039
1879.00,0.0041
1876.00,0.0044
1873.00,0.0046
1870.00,0.0046
1867.00,0.0045
1864.00,0.0041
1861.00,0.0035
1858.00,0.0029
1855.00,0.0024
1852.00,0.0020
1849.00,0.0019
1846.00,0.0017
1843.00,0.0017
1840.00,0.0016
1837.00,0.0016
1834.00,0.0018
1831.00,0.0020
1828.00,0.0022
1825.00,0.0025
1822.00,0.0029
1819.00,0.0030
1816.00,0.0034
1813.00,0.0040
1810.00,0.0045
1807.00,0.0050
1804.00,0.0052
1801.00,0.0053
1798.00,0.0050
1795.00,0.0044
1792.00,0.0038
1789.00,0.0031
1786.00,0.0028
1783.00,0.0027
1780.00,0.0027
1777.00,0.0028
1774.00,0.0027
1771.00,0.0027
1768.00,0.0028
1765.00,0.0029
1762.00,0.0032
1759.00,0.0036
1756.00,0.0042
1753.00,0.0047
1750.00,0.0052
1747.00,0.0056
1744.00,0.0058
1741.00,0.0057
1738.00,0.0056
1735.00,0.0055
1732.00,0.0051
1729.00,0.0047
1726.00,0.0045
1723.00,0.0042
1720.00,0.0040
1717.00,0.0039
1714.00,0.0036
1711.00,0.0035
1708.00,0.0034
1705.00,0.0034
1702.00,0.0034
1699.00,0.0033
1696.00,0.0033
1693.00,0.0033
1690.00,0.0034
1687.00,0.0036
1684.00,0.0037
1681.00,0.0038
1678.00,0.0039
1675.00,0.0040
1672.00,0.0041
1669.00,0.0041
1666.00,0.0041
1663.00,0.0040
1660.00,0.0038
1657.00,0.0036
1654.00,0.0035
1651.00,0.0033
1648.00,0.0031
1645.00,0.0030
1642.00,0.0029
1639.00,0.0029
1636.00,0.0030
1633.00,0.0030
1630.00,0.0031
1627.00,0.0033
1624.00,0.0034
1621.00,0.0037
1618.00,0.0041
1615.00,0.0049
1612.00,0.0063
1609.00,0.0101
1606.00,0.0186
1603.00,0.0293
1600.00,0.0310
1597.00,0.0219
1594.00,0.0141
1591.00,0.0103
1588.00,0.0095
1585.00,0.0123
1582.00,0.0128
1579.00,0.0086
1576.00,0.0057
1573.00,0.0045
1570.00,0.0039
1567.00,0.0036
1564.00,0.0034
1561.00,0.0034
1558.00,0.0035
1555.00,0.0038
1552.00,0.0042
1549.00,0.0046
1546.00,0.0050
1543.00,0.0053
1540.00,0.0051
1537.00,0.0049
1534.00,0.0045
1531.00,0.0040
1528.00,0.0037
1525.00,0.0036
1522.00,0.0036
1519.00,0.0036
1516.00,0.0038
1513.00,0.0041
1510.00,0.0045
1507.00,0.0053
1504.00,0.0070
1501.00,0.0109
1498.00,0.0244
1495.00,0.0623
1492.00,0.0796
1489.00,0.0476
1486.00,0.0247
1483.00,0.0148
1480.00,0.0102
1477.00,0.0082
1474.00,0.0073
1471.00,0.0072
1468.00,0.0077
1465.00,0.0085
1462.00,0.0105
1459.00,0.0165
1456.00,0.0457
1453.00,0.0778
1450.00,0.0761
1447.00,0.0573
1444.00,0.0444
1441.00,0.0339
1438.00,0.0263
1435.00,0.0186
1432.00,0.0138
1429.00,0.0103
1426.00,0.0084
1423.00,0.0074
1420.00,0.0069
1417.00,0.0064
1414.00,0.0060
1411.00,0.0057
1408.00,0.0055
1405.00,0.0053
1402.00,0.0050
1399.00,0.0049
1396.00,0.0051
1393.00,0.0059
1390.00,0.0072
1387.00,0.0089
1384.00,0.0106
1381.00,0.0121
1378.00,0.0138
1375.00,0.0154
1372.00,0.0161
1369.00,0.0161
1366.00,0.0158
1363.00,0.0155
1360.00,0.0149
1357.00,0.0143
1354.00,0.0140
1351.00,0.0139
1348.00,0.0138
1345.00,0.0132
1342.00,0.0125
1339.00,0.0120
1336.00,0.0121
1333.00,0.0131
1330.00,0.0142
1327.00,0.0143
1324.00,0.0136
1321.00,0.0132
1318.00,0.0133
1315.00,0.0138
1312.00,0.0140
1309.00,0.0137
1306.00,0.0130
1303.00,0.0123
1300.00,0.0115
1297.00,0.0111
1294.00,0.0109
1291.00,0.0106
1288.00,0.0102
1285.00,0.0099
1282.00,0.0098
1279.00,0.0094
1276.00,0.0088
1273.00,0.0080
1270.00,0.0074
1267.00,0.0069
1264.00,0.0066
1261.00,0.0064
1258.00,0.0064
1255.00,0.0063
1252.00,0.0064
1249.00,0.0066
1246.00,0.0067
1243.00,0.0067
1240.00,0.0066
1237.00,0.0066
1234.00,0.0067
1231.00,0.0067
1228.00,0.0070
1225.00,0.0071
1222.00,0.0072
1219.00,0.0073
1216.00,0.0074
1213.00,0.0078
1210.00,0.0083
1207.00,0.0089
1204.00,0.0097
1201.00,0.0106
1198.00,0.0113
1195.00,0.0116
1192.00,0.0117
1189.00,0.0120
1186.00,0.0132
1183.00,0.0154
1180.00,0.0155
1177.00,0.0122
1174.00,0.0093
1171.00,0.0082
1168.00,0.0078
1165.00,0.0078
1162.00,0.0087
1159.00,0.0112
1156.00,0.0146
1153.00,0.0144
1150.00,0.0105
1147.00,0.0075
1144.00,0.0062
1141.00,0.0054
1138.00,0.0050
1135.00,0.0049
1132.00,0.0049
1129.00,0.0051
1126.00,0.0053
1123.00,0.0057
1120.00,0.0064
1117.00,0.0074
1114.00,0.0082
1111.00,0.0085
1108.00,0.0083
1105.00,0.0082
1102.00,0.0084
1099.00,0.0086
1096.00,0.0090
1093.00,0.0093
1090.00,0.0098
1087.00,0.0106
1084.00,0.0119
1081.00,0.0136
1078.00,0.0153
1075.00,0.0176
1072.00,0.0206
1069.00,0.0223
1066.00,0.0213
1063.00,0.0185
1060.00,0.0160
1057.00,0.0143
1054.00,0.0132
1051.00,0.0123
1048.00,0.0117
1045.00,0.0114
1042.00,0.0115
1039.00,0.0127
1036.00,0.0176
1033.00,0.0280
1030.00,0.0390
1027.00,0.0410
1024.00,0.0332
1021.00,0.0259
1018.00,0.0216
1015.00,0.0187
1012.00,0.0167
1009.00,0.0158
1006.00,0.0165
1003.00,0.0174
1000.00,0.0151
997.00,0.0126
994.00,0.0120
991.00,0.0122
988.00,0.0128
985.00,0.0139
982.00,0.0151
979.00,0.0152
976.00,0.0140
973.00,0.0131
970.00,0.0135
967.00,0.0150
964.00,0.0158
961.00,0.0145
958.00,0.0121
955.00,0.0107
952.00,0.0106
949.00,0.0112
946.00,0.0119
943.00,0.0122
940.00,0.0117
937.00,0.0106
934.00,0.0096
931.00,0.0088
928.00,0.0087
925.00,0.0092
922.00,0.0100
919.00,0.0114
916.00,0.0140
913.00,0.0186
910.00,0.0243
907.00,0.0277
904.00,0.0261
901.00,0.0204
898.00,0.0146
895.00,0.0113
892.00,0.0097
889.00,0.0087
886.00,0.0079
883.00,0.0075
880.00,0.0071
877.00,0.0068
874.00,0.0067
871.00,0.0065
868.00,0.0064
865.00,0.0063
862.00,0.0063
859.00,0.0063
856.00,0.0066
853.00,0.0074
850.00,0.0089
847.00,0.0114
844.00,0.0135
841.00,0.0141
838.00,0.0126
835.00,0.0096
832.00,0.0073
829.00,0.0063
826.00,0.0059
823.00,0.0057
820.00,0.0057
817.00,0.0059
814.00,0.0061
811.00,0.0062
808.00,0.0065
805.00,0.0066
802.00,0.0071
799.00,0.0080
796.00,0.0092
793.00,0.0109
790.00,0.0130
787.00,0.0158
784.00,0.0190
781.00,0.0233
778.00,0.0298
775.00,0.0390
772.00,0.0509
769.00,0.0655
766.00,0.0804
763.00,0.0950
760.00,0.1105
757.00,0.1223
754.00,0.1251
751.00,0.1234
748.00,0.1213
745.00,0.1100
742.00,0.0862
739.00,0.0632
736.00,0.0452
733.00,0.0301
730.00,0.0201
727.00,0.0155
724.00,0.0139
721.00,0.0137
718.00,0.0147
715.00,0.0177
712.00,0.0266
709.00,0.0494
706.00,0.0958
703.00,0.1714
700.00,0.2754
697.00,0.3874
694.00,0.4002
691.00,0.2687
688.00,0.1634
685.00,0.1119
682.00,0.0849
679.00,0.0686
676.00,0.0583
673.00,0.0515
670.00,0.0469
667.00,0.0415
664.00,0.0368
661.00,0.0323
658.00,0.0282
655.00,0.0249
652.00,0.0223
649.00,0.0203
646.00,0.0187
643.00,0.0179
640.00,0.0177
637.00,0.0187
634.00,0.0204
631.00,0.0218
628.00,0.0228
625.00,0.0237
622.00,0.0253
619.00,0.0247
616.00,0.0222
613.00,0.0209
610.00,0.0200
607.00,0.0192
604.00,0.0194
601.00,0.0198
598.00,0.0204
595.00,0.0212
592.00,0.0223
589.00,0.0233
586.00,0.0240
583.00,0.0258
580.00,0.0288
577.00,0.0327
574.00,0.0374
571.00,0.0424
568.00,0.0470
565.00,0.0518
562.00,0.0567
559.00,0.0616
556.00,0.0667
553.00,0.0726
550.00,0.0797
547.00,0.0888
544.00,0.1008
541.00,0.1126
538.00,0.1175
535.00,0.1099
532.00,0.0934
529.00,0.0760
526.00,0.0611
523.00,0.0500
520.00,0.0434
517.00,0.0390
514.00,0.0349
511.00,0.0318
508.00,0.0290
505.00,0.0261
502.00,0.0236
499.00,0.0219
496.00,0.0205
493.00,0.0197
490.00,0.0185
487.00,0.0177
484.00,0.0171
481.00,0.0166
478.00,0.0156
475.00,0.0151
472.00,0.0145
469.00,0.0149
466.00,0.0146
463.00,0.0134
460.00,0.0132
457.00,0.0136
454.00,0.0137
451.00,0.0140
448.00,0.0138
445.00,0.0135
442.00,0.0124
439.00,0.0117
436.00,0.0118
433.00,0.0117
430.00,0.0111
427.00,0.0100
424.00,0.0095
421.00,0.0112
418.00,0.0114
415.00,0.0099
412.00,0.0119
409.00,0.0141
406.00,0.0139
403.00,0.0132
400.00,0.0086