File: FTIR/Olivia/2025_06_06_Standard_post_Polystyrene_scan1.csv
Created as New Dataset,Sample 629 By YargerLab Date Friday, June 06 2025
cm-1,A
4000.00,0.0019
3997.00,0.0018
3994.00,0.0018
3991.00,0.0017
3988.00,0.0017
3985.00,0.0017
3982.00,0.0017
3979.00,0.0017
3976.00,0.0017
3973.00,0.0017
3970.00,0.0017
3967.00,0.0017
3964.00,0.0017
3961.00,0.0017
3958.00,0.0017
3955.00,0.0016
3952.00,0.0017
3949.00,0.0017
3946.00,0.0017
3943.00,0.0017
3940.00,0.0017
3937.00,0.0016
3934.00,0.0017
3931.00,0.0017
3928.00,0.0017
3925.00,0.0017
3922.00,0.0018
3919.00,0.0018
3916.00,0.0017
3913.00,0.0017
3910.00,0.0017
3907.00,0.0018
3904.00,0.0018
3901.00,0.0018
3898.00,0.0016
3895.00,0.0017
3892.00,0.0017
3889.00,0.0018
3886.00,0.0017
3883.00,0.0018
3880.00,0.0017
3877.00,0.0017
3874.00,0.0017
3871.00,0.0018
3868.00,0.0019
3865.00,0.0018
3862.00,0.0018
3859.00,0.0018
3856.00,0.0020
3853.00,0.0019
3850.00,0.0018
3847.00,0.0017
3844.00,0.0017
3841.00,0.0019
3838.00,0.0018
3835.00,0.0019
3832.00,0.0018
3829.00,0.0018
3826.00,0.0017
3823.00,0.0019
3820.00,0.0019
3817.00,0.0018
3814.00,0.0018
3811.00,0.0018
3808.00,0.0018
3805.00,0.0019
3802.00,0.0018
3799.00,0.0019
3796.00,0.0018
3793.00,0.0017
3790.00,0.0017
3787.00,0.0018
3784.00,0.0018
3781.00,0.0018
3778.00,0.0017
3775.00,0.0017
3772.00,0.0017
3769.00,0.0018
3766.00,0.0018
3763.00,0.0018
3760.00,0.0018
3757.00,0.0018
3754.00,0.0020
3751.00,0.0020
3748.00,0.0020
3745.00,0.0018
3742.00,0.0018
3739.00,0.0017
3736.00,0.0018
3733.00,0.0018
3730.00,0.0017
3727.00,0.0017
3724.00,0.0017
3721.00,0.0017
3718.00,0.0017
3715.00,0.0018
3712.00,0.0018
3709.00,0.0017
3706.00,0.0016
3703.00,0.0016
3700.00,0.0016
3697.00,0.0016
3694.00,0.0017
3691.00,0.0018
3688.00,0.0016
3685.00,0.0014
3682.00,0.0013
3679.00,0.0014
3676.00,0.0013
3673.00,0.0013
3670.00,0.0010
3667.00,0.0009
3664.00,0.0007
3661.00,0.0008
3658.00,0.0008
3655.00,0.0009
3652.00,0.0011
3649.00,0.0012
3646.00,0.0011
3643.00,0.0010
3640.00,0.0010
3637.00,0.0010
3634.00,0.0012
3631.00,0.0014
3628.00,0.0014
3625.00,0.0014
3622.00,0.0015
3619.00,0.0016
3616.00,0.0016
3613.00,0.0016
3610.00,0.0015
3607.00,0.0015
3604.00,0.0014
3601.00,0.0014
3598.00,0.0014
3595.00,0.0014
3592.00,0.0014
3589.00,0.0015
3586.00,0.0015
3583.00,0.0015
3580.00,0.0015
3577.00,0.0015
3574.00,0.0014
3571.00,0.0015
3568.00,0.0016
3565.00,0.0015
3562.00,0.0015
3559.00,0.0014
3556.00,0.0015
3553.00,0.0015
3550.00,0.0015
3547.00,0.0015
3544.00,0.0015
3541.00,0.0016
3538.00,0.0016
3535.00,0.0016
3532.00,0.0016
3529.00,0.0017
3526.00,0.0017
3523.00,0.0017
3520.00,0.0017
3517.00,0.0017
3514.00,0.0016
3511.00,0.0017
3508.00,0.0017
3505.00,0.0016
3502.00,0.0016
3499.00,0.0016
3496.00,0.0016
3493.00,0.0017
3490.00,0.0018
3487.00,0.0017
3484.00,0.0017
3481.00,0.0016
3478.00,0.0017
3475.00,0.0018
3472.00,0.0017
3469.00,0.0017
3466.00,0.0017
3463.00,0.0018
3460.00,0.0017
3457.00,0.0017
3454.00,0.0018
3451.00,0.0017
3448.00,0.0018
3445.00,0.0018
3442.00,0.0018
3439.00,0.0018
3436.00,0.0018
3433.00,0.0018
3430.00,0.0018
3427.00,0.0018
3424.00,0.0018
3421.00,0.0018
3418.00,0.0018
3415.00,0.0018
3412.00,0.0019
3409.00,0.0018
3406.00,0.0018
3403.00,0.0018
3400.00,0.0019
3397.00,0.0019
3394.00,0.0019
3391.00,0.0018
3388.00,0.0018
3385.00,0.0018
3382.00,0.0018
3379.00,0.0019
3376.00,0.0019
3373.00,0.0019
3370.00,0.0019
3367.00,0.0019
3364.00,0.0019
3361.00,0.0019
3358.00,0.0019
3355.00,0.0020
3352.00,0.0020
3349.00,0.0020
3346.00,0.0020
3343.00,0.0020
3340.00,0.0021
3337.00,0.0021
3334.00,0.0020
3331.00,0.0021
3328.00,0.0021
3325.00,0.0020
3322.00,0.0020
3319.00,0.0019
3316.00,0.0020
3313.00,0.0020
3310.00,0.0019
3307.00,0.0019
3304.00,0.0020
3301.00,0.0019
3298.00,0.0019
3295.00,0.0019
3292.00,0.0018
3289.00,0.0019
3286.00,0.0019
3283.00,0.0019
3280.00,0.0019
3277.00,0.0019
3274.00,0.0018
3271.00,0.0018
3268.00,0.0018
3265.00,0.0018
3262.00,0.0018
3259.00,0.0018
3256.00,0.0017
3253.00,0.0017
3250.00,0.0017
3247.00,0.0017
3244.00,0.0017
3241.00,0.0017
3238.00,0.0017
3235.00,0.0017
3232.00,0.0017
3229.00,0.0017
3226.00,0.0016
3223.00,0.0016
3220.00,0.0016
3217.00,0.0017
3214.00,0.0017
3211.00,0.0017
3208.00,0.0018
3205.00,0.0017
3202.00,0.0018
3199.00,0.0018
3196.00,0.0017
3193.00,0.0017
3190.00,0.0016
3187.00,0.0017
3184.00,0.0017
3181.00,0.0016
3178.00,0.0016
3175.00,0.0016
3172.00,0.0017
3169.00,0.0017
3166.00,0.0018
3163.00,0.0019
3160.00,0.0019
3157.00,0.0018
3154.00,0.0017
3151.00,0.0017
3148.00,0.0017
3145.00,0.0017
3142.00,0.0017
3139.00,0.0017
3136.00,0.0017
3133.00,0.0017
3130.00,0.0018
3127.00,0.0018
3124.00,0.0018
3121.00,0.0020
3118.00,0.0021
3115.00,0.0024
3112.00,0.0029
3109.00,0.0036
3106.00,0.0043
3103.00,0.0046
3100.00,0.0045
3097.00,0.0044
3094.00,0.0047
3091.00,0.0058
3088.00,0.0078
3085.00,0.0102
3082.00,0.0112
3079.00,0.0102
3076.00,0.0087
3073.00,0.0082
3070.00,0.0089
3067.00,0.0107
3064.00,0.0133
3061.00,0.0153
3058.00,0.0151
3055.00,0.0128
3052.00,0.0103
3049.00,0.0087
3046.00,0.0080
3043.00,0.0082
3040.00,0.0093
3037.00,0.0115
3034.00,0.0153
3031.00,0.0210
3028.00,0.0271
3025.00,0.0296
3022.00,0.0256
3019.00,0.0182
3016.00,0.0121
3013.00,0.0084
3010.00,0.0066
3007.00,0.0061
3004.00,0.0061
3001.00,0.0057
2998.00,0.0041
2995.00,0.0020
2992.00,0.0006
2989.00,-0.0002
2986.00,-0.0010
2983.00,-0.0030
2980.00,-0.0035
2977.00,-0.0023
2974.00,-0.0018
2971.00,-0.0017
2968.00,-0.0006
2965.00,0.0005
2962.00,0.0016
2959.00,0.0028
2956.00,0.0040
2953.00,0.0055
2950.00,0.0074
2947.00,0.0095
2944.00,0.0120
2941.00,0.0148
2938.00,0.0179
2935.00,0.0214
2932.00,0.0251
2929.00,0.0286
2926.00,0.0312
2923.00,0.0326
2920.00,0.0327
2917.00,0.0316
2914.00,0.0297
2911.00,0.0273
2908.00,0.0247
2905.00,0.0220
2902.00,0.0193
2899.00,0.0166
2896.00,0.0143
2893.00,0.0125
2890.00,0.0111
2887.00,0.0101
2884.00,0.0093
2881.00,0.0087
2878.00,0.0083
2875.00,0.0079
2872.00,0.0075
2869.00,0.0074
2866.00,0.0079
2863.00,0.0088
2860.00,0.0101
2857.00,0.0118
2854.00,0.0134
2851.00,0.0146
2848.00,0.0148
2845.00,0.0138
2842.00,0.0116
2839.00,0.0089
2836.00,0.0068
2833.00,0.0053
2830.00,0.0045
2827.00,0.0041
2824.00,0.0038
2821.00,0.0036
2818.00,0.0034
2815.00,0.0034
2812.00,0.0034
2809.00,0.0033
2806.00,0.0032
2803.00,0.0031
2800.00,0.0031
2797.00,0.0029
2794.00,0.0028
2791.00,0.0028
2788.00,0.0028
2785.00,0.0028
2782.00,0.0027
2779.00,0.0027
2776.00,0.0027
2773.00,0.0027
2770.00,0.0026
2767.00,0.0025
2764.00,0.0025
2761.00,0.0025
2758.00,0.0024
2755.00,0.0025
2752.00,0.0024
2749.00,0.0024
2746.00,0.0024
2743.00,0.0024
2740.00,0.0024
2737.00,0.0024
2734.00,0.0025
2731.00,0.0025
2728.00,0.0025
2725.00,0.0025
2722.00,0.0025
2719.00,0.0025
2716.00,0.0025
2713.00,0.0025
2710.00,0.0025
2707.00,0.0025
2704.00,0.0025
2701.00,0.0024
2698.00,0.0025
2695.00,0.0025
2692.00,0.0025
2689.00,0.0025
2686.00,0.0025
2683.00,0.0025
2680.00,0.0025
2677.00,0.0024
2674.00,0.0024
2671.00,0.0024
2668.00,0.0024
2665.00,0.0026
2662.00,0.0027
2659.00,0.0028
2656.00,0.0029
2653.00,0.0029
2650.00,0.0029
2647.00,0.0029
2644.00,0.0029
2641.00,0.0029
2638.00,0.0029
2635.00,0.0030
2632.00,0.0030
2629.00,0.0030
2626.00,0.0029
2623.00,0.0028
2620.00,0.0027
2617.00,0.0027
2614.00,0.0027
2611.00,0.0027
2608.00,0.0027
2605.00,0.0027
2602.00,0.0028
2599.00,0.0027
2596.00,0.0026
2593.00,0.0025
2590.00,0.0024
2587.00,0.0025
2584.00,0.0025
2581.00,0.0025
2578.00,0.0025
2575.00,0.0024
2572.00,0.0023
2569.00,0.0023
2566.00,0.0022
2563.00,0.0022
2560.00,0.0021
2557.00,0.0021
2554.00,0.0022
2551.00,0.0021
2548.00,0.0021
2545.00,0.0021
2542.00,0.0021
2539.00,0.0021
2536.00,0.0020
2533.00,0.0021
2530.00,0.0021
2527.00,0.0020
2524.00,0.0020
2521.00,0.0020
2518.00,0.0020
2515.00,0.0020
2512.00,0.0020
2509.00,0.0020
2506.00,0.0019
2503.00,0.0019
2500.00,0.0020
2497.00,0.0020
2494.00,0.0019
2491.00,0.0020
2488.00,0.0019
2485.00,0.0019
2482.00,0.0018
2479.00,0.0018
2476.00,0.0018
2473.00,0.0018
2470.00,0.0018
2467.00,0.0019
2464.00,0.0018
2461.00,0.0018
2458.00,0.0019
2455.00,0.0019
2452.00,0.0019
2449.00,0.0019
2446.00,0.0018
2443.00,0.0017
2440.00,0.0017
2437.00,0.0017
2434.00,0.0016
2431.00,0.0015
2428.00,0.0016
2425.00,0.0015
2422.00,0.0015
2419.00,0.0015
2416.00,0.0015
2413.00,0.0016
2410.00,0.0015
2407.00,0.0014
2404.00,0.0014
2401.00,0.0014
2398.00,0.0013
2395.00,0.0014
2392.00,0.0013
2389.00,0.0013
2386.00,0.0013
2383.00,0.0013
2380.00,0.0013
2377.00,0.0014
2374.00,0.0014
2371.00,0.0013
2368.00,0.0013
2365.00,0.0014
2362.00,0.0015
2359.00,0.0017
2356.00,0.0017
2353.00,0.0017
2350.00,0.0018
2347.00,0.0019
2344.00,0.0021
2341.00,0.0020
2338.00,0.0022
2335.00,0.0023
2332.00,0.0022
2329.00,0.0023
2326.00,0.0033
2323.00,0.0033
2320.00,0.0028
2317.00,0.0026
2314.00,0.0026
2311.00,0.0026
2308.00,0.0025
2305.00,0.0024
2302.00,0.0023
2299.00,0.0023
2296.00,0.0025
2293.00,0.0027
2290.00,0.0029
2287.00,0.0029
2284.00,0.0028
2281.00,0.0025
2278.00,0.0024
2275.00,0.0023
2272.00,0.0023
2269.00,0.0022
2266.00,0.0020
2263.00,0.0020
2260.00,0.0021
2257.00,0.0019
2254.00,0.0018
2251.00,0.0019
2248.00,0.0020
2245.00,0.0020
2242.00,0.0020
2239.00,0.0019
2236.00,0.0016
2233.00,0.0017
2230.00,0.0017
2227.00,0.0017
2224.00,0.0018
2221.00,0.0017
2218.00,0.0014
2215.00,0.0015
2212.00,0.0017
2209.00,0.0015
2206.00,0.0016
2203.00,0.0016
2200.00,0.0016
2197.00,0.0015
2194.00,0.0016
2191.00,0.0018
2188.00,0.0020
2185.00,0.0019
2182.00,0.0014
2179.00,0.0013
2176.00,0.0007
2173.00,0.0011
2170.00,0.0022
2167.00,0.0025
2164.00,0.0031
2161.00,0.0011
2158.00,-0.0023
2155.00,-0.0012
2152.00,-0.0008
2149.00,-0.0007
2146.00,-0.0006
2143.00,-0.0004
2140.00,-0.0005
2137.00,-0.0008
2134.00,-0.0010
2131.00,-0.0007
2128.00,-0.0002
2125.00,0.0003
2122.00,0.0005
2119.00,0.0007
2116.00,0.0010
2113.00,0.0013
2110.00,0.0012
2107.00,0.0013
2104.00,0.0011
2101.00,0.0011
2098.00,0.0010
2095.00,0.0005
2092.00,0.0008
2089.00,0.0010
2086.00,0.0012
2083.00,0.0013
2080.00,0.0014
2077.00,0.0013
2074.00,0.0012
2071.00,0.0010
2068.00,0.0010
2065.00,0.0008
2062.00,0.0007
2059.00,0.0009
2056.00,0.0010
2053.00,0.0016
2050.00,0.0017
2047.00,0.0011
2044.00,0.0012
2041.00,0.0010
2038.00,0.0010
2035.00,0.0008
2032.00,0.0003
2029.00,0.0001
2026.00,0.0005
2023.00,0.0005
2020.00,0.0002
2017.00,0.0000
2014.00,0.0002
2011.00,0.0003
2008.00,-0.0001
2005.00,-0.0002
2002.00,0.0003
1999.00,0.0004
1996.00,0.0007
1993.00,0.0012
1990.00,0.0015
1987.00,0.0017
1984.00,0.0021
1981.00,0.0027
1978.00,0.0013
1975.00,0.0005
1972.00,0.0006
1969.00,0.0012
1966.00,0.0018
1963.00,0.0019
1960.00,0.0017
1957.00,0.0023
1954.00,0.0028
1951.00,0.0035
1948.00,0.0040
1945.00,0.0043
1942.00,0.0043
1939.00,0.0041
1936.00,0.0034
1933.00,0.0026
1930.00,0.0020
1927.00,0.0016
1924.00,0.0014
1921.00,0.0015
1918.00,0.0012
1915.00,0.0012
1912.00,0.0013
1909.00,0.0012
1906.00,0.0012
1903.00,0.0014
1900.00,0.0016
1897.00,0.0017
1894.00,0.0021
1891.00,0.0025
1888.00,0.0029
1885.00,0.0032
1882.00,0.0035
1879.00,0.0038
1876.00,0.0040
1873.00,0.0041
1870.00,0.0042
1867.00,0.0040
1864.00,0.0037
1861.00,0.0032
1858.00,0.0026
1855.00,0.0021
1852.00,0.0017
1849.00,0.0015
1846.00,0.0014
1843.00,0.0014
1840.00,0.0014
1837.00,0.0015
1834.00,0.0016
1831.00,0.0017
1828.00,0.0020
1825.00,0.0023
1822.00,0.0026
1819.00,0.0027
1816.00,0.0030
1813.00,0.0036
1810.00,0.0041
1807.00,0.0045
1804.00,0.0048
1801.00,0.0049
1798.00,0.0045
1795.00,0.0040
1792.00,0.0034
1789.00,0.0029
1786.00,0.0026
1783.00,0.0024
1780.00,0.0024
1777.00,0.0024
1774.00,0.0025
1771.00,0.0024
1768.00,0.0024
1765.00,0.0026
1762.00,0.0028
1759.00,0.0032
1756.00,0.0036
1753.00,0.0040
1750.00,0.0044
1747.00,0.0046
1744.00,0.0048
1741.00,0.0048
1738.00,0.0046
1735.00,0.0045
1732.00,0.0043
1729.00,0.0040
1726.00,0.0039
1723.00,0.0039
1720.00,0.0037
1717.00,0.0037
1714.00,0.0038
1711.00,0.0040
1708.00,0.0043
1705.00,0.0044
1702.00,0.0045
1699.00,0.0044
1696.00,0.0042
1693.00,0.0041
1690.00,0.0041
1687.00,0.0044
1684.00,0.0048
1681.00,0.0048
1678.00,0.0047
1675.00,0.0044
1672.00,0.0042
1669.00,0.0041
1666.00,0.0041
1663.00,0.0040
1660.00,0.0039
1657.00,0.0038
1654.00,0.0038
1651.00,0.0037
1648.00,0.0033
1645.00,0.0032
1642.00,0.0030
1639.00,0.0029
1636.00,0.0029
1633.00,0.0030
1630.00,0.0031
1627.00,0.0033
1624.00,0.0035
1621.00,0.0038
1618.00,0.0040
1615.00,0.0048
1612.00,0.0059
1609.00,0.0094
1606.00,0.0169
1603.00,0.0263
1600.00,0.0280
1597.00,0.0200
1594.00,0.0129
1591.00,0.0094
1588.00,0.0087
1585.00,0.0111
1582.00,0.0116
1579.00,0.0079
1576.00,0.0053
1573.00,0.0041
1570.00,0.0035
1567.00,0.0032
1564.00,0.0030
1561.00,0.0030
1558.00,0.0031
1555.00,0.0032
1552.00,0.0037
1549.00,0.0042
1546.00,0.0046
1543.00,0.0049
1540.00,0.0051
1537.00,0.0056
1534.00,0.0058
1531.00,0.0054
1528.00,0.0046
1525.00,0.0039
1522.00,0.0035
1519.00,0.0035
1516.00,0.0036
1513.00,0.0039
1510.00,0.0044
1507.00,0.0052
1504.00,0.0071
1501.00,0.0106
1498.00,0.0226
1495.00,0.0558
1492.00,0.0716
1489.00,0.0435
1486.00,0.0228
1483.00,0.0141
1480.00,0.0097
1477.00,0.0078
1474.00,0.0067
1471.00,0.0065
1468.00,0.0069
1465.00,0.0074
1462.00,0.0092
1459.00,0.0144
1456.00,0.0404
1453.00,0.0682
1450.00,0.0675
1447.00,0.0512
1444.00,0.0400
1441.00,0.0308
1438.00,0.0242
1435.00,0.0175
1432.00,0.0132
1429.00,0.0098
1426.00,0.0080
1423.00,0.0069
1420.00,0.0062
1417.00,0.0057
1414.00,0.0052
1411.00,0.0049
1408.00,0.0046
1405.00,0.0043
1402.00,0.0040
1399.00,0.0037
1396.00,0.0036
1393.00,0.0043
1390.00,0.0055
1387.00,0.0071
1384.00,0.0086
1381.00,0.0099
1378.00,0.0114
1375.00,0.0127
1372.00,0.0134
1369.00,0.0137
1366.00,0.0137
1363.00,0.0135
1360.00,0.0132
1357.00,0.0127
1354.00,0.0126
1351.00,0.0126
1348.00,0.0125
1345.00,0.0120
1342.00,0.0112
1339.00,0.0108
1336.00,0.0110
1333.00,0.0119
1330.00,0.0128
1327.00,0.0130
1324.00,0.0125
1321.00,0.0122
1318.00,0.0124
1315.00,0.0130
1312.00,0.0135
1309.00,0.0132
1306.00,0.0124
1303.00,0.0116
1300.00,0.0108
1297.00,0.0104
1294.00,0.0101
1291.00,0.0099
1288.00,0.0097
1285.00,0.0095
1282.00,0.0094
1279.00,0.0090
1276.00,0.0082
1273.00,0.0074
1270.00,0.0066
1267.00,0.0061
1264.00,0.0056
1261.00,0.0053
1258.00,0.0052
1255.00,0.0052
1252.00,0.0052
1249.00,0.0055
1246.00,0.0058
1243.00,0.0060
1240.00,0.0060
1237.00,0.0062
1234.00,0.0066
1231.00,0.0071
1228.00,0.0074
1225.00,0.0076
1222.00,0.0077
1219.00,0.0078
1216.00,0.0080
1213.00,0.0082
1210.00,0.0084
1207.00,0.0087
1204.00,0.0093
1201.00,0.0100
1198.00,0.0106
1195.00,0.0108
1192.00,0.0109
1189.00,0.0113
1186.00,0.0122
1183.00,0.0140
1180.00,0.0140
1177.00,0.0110
1174.00,0.0083
1171.00,0.0071
1168.00,0.0065
1165.00,0.0064
1162.00,0.0071
1159.00,0.0093
1156.00,0.0123
1153.00,0.0123
1150.00,0.0088
1147.00,0.0064
1144.00,0.0053
1141.00,0.0046
1138.00,0.0043
1135.00,0.0043
1132.00,0.0043
1129.00,0.0045
1126.00,0.0049
1123.00,0.0056
1120.00,0.0064
1117.00,0.0071
1114.00,0.0077
1111.00,0.0079
1108.00,0.0077
1105.00,0.0078
1102.00,0.0080
1099.00,0.0082
1096.00,0.0083
1093.00,0.0083
1090.00,0.0086
1087.00,0.0092
1084.00,0.0103
1081.00,0.0117
1078.00,0.0133
1075.00,0.0154
1072.00,0.0180
1069.00,0.0194
1066.00,0.0187
1063.00,0.0164
1060.00,0.0142
1057.00,0.0127
1054.00,0.0117
1051.00,0.0110
1048.00,0.0104
1045.00,0.0100
1042.00,0.0102
1039.00,0.0113
1036.00,0.0157
1033.00,0.0250
1030.00,0.0347
1027.00,0.0369
1024.00,0.0302
1021.00,0.0237
1018.00,0.0197
1015.00,0.0170
1012.00,0.0153
1009.00,0.0144
1006.00,0.0149
1003.00,0.0157
1000.00,0.0136
997.00,0.0115
994.00,0.0110
991.00,0.0111
988.00,0.0117
985.00,0.0127
982.00,0.0136
979.00,0.0137
976.00,0.0126
973.00,0.0115
970.00,0.0118
967.00,0.0131
964.00,0.0137
961.00,0.0126
958.00,0.0103
955.00,0.0089
952.00,0.0085
949.00,0.0089
946.00,0.0096
943.00,0.0102
940.00,0.0099
937.00,0.0090
934.00,0.0082
931.00,0.0077
928.00,0.0077
925.00,0.0082
922.00,0.0090
919.00,0.0102
916.00,0.0125
913.00,0.0165
910.00,0.0215
907.00,0.0247
904.00,0.0234
901.00,0.0185
898.00,0.0133
895.00,0.0102
892.00,0.0088
889.00,0.0079
886.00,0.0073
883.00,0.0069
880.00,0.0065
877.00,0.0061
874.00,0.0059
871.00,0.0058
868.00,0.0057
865.00,0.0057
862.00,0.0056
859.00,0.0058
856.00,0.0060
853.00,0.0066
850.00,0.0080
847.00,0.0102
844.00,0.0122
841.00,0.0128
838.00,0.0114
835.00,0.0088
832.00,0.0067
829.00,0.0058
826.00,0.0051
823.00,0.0049
820.00,0.0049
817.00,0.0049
814.00,0.0051
811.00,0.0053
808.00,0.0055
805.00,0.0057
802.00,0.0061
799.00,0.0070
796.00,0.0082
793.00,0.0097
790.00,0.0116
787.00,0.0139
784.00,0.0169
781.00,0.0208
778.00,0.0265
775.00,0.0346
772.00,0.0451
769.00,0.0578
766.00,0.0709
763.00,0.0836
760.00,0.0969
757.00,0.1071
754.00,0.1098
751.00,0.1085
748.00,0.1070
745.00,0.0973
742.00,0.0769
739.00,0.0570
736.00,0.0411
733.00,0.0275
730.00,0.0185
727.00,0.0142
724.00,0.0125
721.00,0.0121
718.00,0.0130
715.00,0.0160
712.00,0.0238
709.00,0.0438
706.00,0.0847
703.00,0.1501
700.00,0.2370
697.00,0.3258
694.00,0.3368
691.00,0.2339
688.00,0.1449
685.00,0.1002
682.00,0.0766
679.00,0.0622
676.00,0.0531
673.00,0.0467
670.00,0.0425
667.00,0.0380
664.00,0.0336
661.00,0.0296
658.00,0.0260
655.00,0.0229
652.00,0.0205
649.00,0.0188
646.00,0.0173
643.00,0.0164
640.00,0.0162
637.00,0.0171
634.00,0.0184
631.00,0.0196
628.00,0.0206
625.00,0.0213
622.00,0.0226
619.00,0.0224
616.00,0.0203
613.00,0.0189
610.00,0.0179
607.00,0.0175
604.00,0.0174
601.00,0.0176
598.00,0.0181
595.00,0.0189
592.00,0.0199
589.00,0.0207
586.00,0.0217
583.00,0.0233
580.00,0.0255
577.00,0.0290
574.00,0.0328
571.00,0.0376
568.00,0.0418
565.00,0.0459
562.00,0.0503
559.00,0.0546
556.00,0.0590
553.00,0.0638
550.00,0.0704
547.00,0.0787
544.00,0.0890
541.00,0.0989
538.00,0.1032
535.00,0.0974
532.00,0.0832
529.00,0.0680
526.00,0.0552
523.00,0.0459
520.00,0.0398
517.00,0.0355
514.00,0.0322
511.00,0.0294
508.00,0.0262
505.00,0.0238
502.00,0.0219
499.00,0.0199
496.00,0.0187
493.00,0.0177
490.00,0.0170
487.00,0.0160
484.00,0.0154
481.00,0.0151
478.00,0.0150
475.00,0.0143
472.00,0.0139
469.00,0.0134
466.00,0.0132
463.00,0.0136
460.00,0.0128
457.00,0.0128
454.00,0.0131
451.00,0.0125
448.00,0.0118
445.00,0.0121
442.00,0.0120
439.00,0.0118
436.00,0.0119
433.00,0.0113
430.00,0.0105
427.00,0.0096
424.00,0.0087
421.00,0.0088
418.00,0.0092
415.00,0.0078
412.00,0.0089
409.00,0.0100
406.00,0.0124
403.00,0.0130
400.00,0.0117