File: FTIR/Olivia/2025_06_12_Polystyrene_Std_scan1.csv
Created as New Dataset,Sample 671 By YargerLab Date Wednesday, June 11 2025
cm-1,A
4000.00,0.0029
3997.00,0.0029
3994.00,0.0028
3991.00,0.0028
3988.00,0.0027
3985.00,0.0027
3982.00,0.0028
3979.00,0.0028
3976.00,0.0028
3973.00,0.0027
3970.00,0.0027
3967.00,0.0027
3964.00,0.0027
3961.00,0.0028
3958.00,0.0028
3955.00,0.0027
3952.00,0.0027
3949.00,0.0027
3946.00,0.0027
3943.00,0.0027
3940.00,0.0027
3937.00,0.0027
3934.00,0.0027
3931.00,0.0027
3928.00,0.0027
3925.00,0.0027
3922.00,0.0026
3919.00,0.0026
3916.00,0.0026
3913.00,0.0027
3910.00,0.0027
3907.00,0.0026
3904.00,0.0025
3901.00,0.0024
3898.00,0.0026
3895.00,0.0026
3892.00,0.0026
3889.00,0.0025
3886.00,0.0026
3883.00,0.0025
3880.00,0.0025
3877.00,0.0025
3874.00,0.0026
3871.00,0.0025
3868.00,0.0025
3865.00,0.0025
3862.00,0.0025
3859.00,0.0025
3856.00,0.0024
3853.00,0.0024
3850.00,0.0025
3847.00,0.0026
3844.00,0.0026
3841.00,0.0025
3838.00,0.0025
3835.00,0.0025
3832.00,0.0025
3829.00,0.0026
3826.00,0.0026
3823.00,0.0025
3820.00,0.0025
3817.00,0.0025
3814.00,0.0026
3811.00,0.0026
3808.00,0.0026
3805.00,0.0026
3802.00,0.0026
3799.00,0.0026
3796.00,0.0026
3793.00,0.0026
3790.00,0.0027
3787.00,0.0027
3784.00,0.0026
3781.00,0.0026
3778.00,0.0027
3775.00,0.0027
3772.00,0.0026
3769.00,0.0026
3766.00,0.0026
3763.00,0.0026
3760.00,0.0026
3757.00,0.0026
3754.00,0.0025
3751.00,0.0025
3748.00,0.0023
3745.00,0.0023
3742.00,0.0024
3739.00,0.0024
3736.00,0.0024
3733.00,0.0024
3730.00,0.0025
3727.00,0.0025
3724.00,0.0025
3721.00,0.0025
3718.00,0.0025
3715.00,0.0025
3712.00,0.0025
3709.00,0.0025
3706.00,0.0025
3703.00,0.0025
3700.00,0.0025
3697.00,0.0026
3694.00,0.0025
3691.00,0.0023
3688.00,0.0022
3685.00,0.0023
3682.00,0.0022
3679.00,0.0021
3676.00,0.0019
3673.00,0.0017
3670.00,0.0017
3667.00,0.0017
3664.00,0.0017
3661.00,0.0017
3658.00,0.0017
3655.00,0.0017
3652.00,0.0017
3649.00,0.0017
3646.00,0.0018
3643.00,0.0020
3640.00,0.0020
3637.00,0.0020
3634.00,0.0021
3631.00,0.0022
3628.00,0.0022
3625.00,0.0023
3622.00,0.0025
3619.00,0.0024
3616.00,0.0025
3613.00,0.0024
3610.00,0.0024
3607.00,0.0025
3604.00,0.0026
3601.00,0.0026
3598.00,0.0026
3595.00,0.0026
3592.00,0.0026
3589.00,0.0026
3586.00,0.0026
3583.00,0.0027
3580.00,0.0028
3577.00,0.0027
3574.00,0.0027
3571.00,0.0027
3568.00,0.0026
3565.00,0.0026
3562.00,0.0027
3559.00,0.0026
3556.00,0.0026
3553.00,0.0027
3550.00,0.0027
3547.00,0.0028
3544.00,0.0028
3541.00,0.0028
3538.00,0.0028
3535.00,0.0028
3532.00,0.0028
3529.00,0.0028
3526.00,0.0029
3523.00,0.0029
3520.00,0.0029
3517.00,0.0029
3514.00,0.0030
3511.00,0.0030
3508.00,0.0030
3505.00,0.0030
3502.00,0.0031
3499.00,0.0031
3496.00,0.0030
3493.00,0.0031
3490.00,0.0031
3487.00,0.0031
3484.00,0.0031
3481.00,0.0031
3478.00,0.0032
3475.00,0.0032
3472.00,0.0032
3469.00,0.0033
3466.00,0.0032
3463.00,0.0032
3460.00,0.0032
3457.00,0.0032
3454.00,0.0032
3451.00,0.0033
3448.00,0.0032
3445.00,0.0033
3442.00,0.0033
3439.00,0.0033
3436.00,0.0033
3433.00,0.0032
3430.00,0.0032
3427.00,0.0032
3424.00,0.0032
3421.00,0.0032
3418.00,0.0032
3415.00,0.0032
3412.00,0.0032
3409.00,0.0032
3406.00,0.0032
3403.00,0.0032
3400.00,0.0032
3397.00,0.0032
3394.00,0.0033
3391.00,0.0032
3388.00,0.0032
3385.00,0.0032
3382.00,0.0032
3379.00,0.0032
3376.00,0.0032
3373.00,0.0032
3370.00,0.0033
3367.00,0.0032
3364.00,0.0032
3361.00,0.0032
3358.00,0.0032
3355.00,0.0031
3352.00,0.0031
3349.00,0.0032
3346.00,0.0032
3343.00,0.0032
3340.00,0.0032
3337.00,0.0032
3334.00,0.0031
3331.00,0.0031
3328.00,0.0031
3325.00,0.0031
3322.00,0.0031
3319.00,0.0031
3316.00,0.0032
3313.00,0.0032
3310.00,0.0031
3307.00,0.0031
3304.00,0.0031
3301.00,0.0031
3298.00,0.0031
3295.00,0.0031
3292.00,0.0031
3289.00,0.0031
3286.00,0.0031
3283.00,0.0031
3280.00,0.0031
3277.00,0.0031
3274.00,0.0031
3271.00,0.0031
3268.00,0.0030
3265.00,0.0030
3262.00,0.0030
3259.00,0.0030
3256.00,0.0030
3253.00,0.0030
3250.00,0.0030
3247.00,0.0030
3244.00,0.0030
3241.00,0.0029
3238.00,0.0029
3235.00,0.0030
3232.00,0.0029
3229.00,0.0029
3226.00,0.0029
3223.00,0.0029
3220.00,0.0029
3217.00,0.0030
3214.00,0.0030
3211.00,0.0030
3208.00,0.0030
3205.00,0.0030
3202.00,0.0030
3199.00,0.0030
3196.00,0.0030
3193.00,0.0029
3190.00,0.0029
3187.00,0.0029
3184.00,0.0028
3181.00,0.0028
3178.00,0.0028
3175.00,0.0028
3172.00,0.0029
3169.00,0.0030
3166.00,0.0031
3163.00,0.0031
3160.00,0.0031
3157.00,0.0030
3154.00,0.0029
3151.00,0.0028
3148.00,0.0028
3145.00,0.0029
3142.00,0.0029
3139.00,0.0028
3136.00,0.0029
3133.00,0.0029
3130.00,0.0029
3127.00,0.0030
3124.00,0.0030
3121.00,0.0032
3118.00,0.0034
3115.00,0.0037
3112.00,0.0044
3109.00,0.0054
3106.00,0.0063
3103.00,0.0067
3100.00,0.0065
3097.00,0.0062
3094.00,0.0066
3091.00,0.0082
3088.00,0.0110
3085.00,0.0143
3082.00,0.0155
3079.00,0.0139
3076.00,0.0120
3073.00,0.0115
3070.00,0.0124
3067.00,0.0149
3064.00,0.0184
3061.00,0.0210
3058.00,0.0205
3055.00,0.0173
3052.00,0.0141
3049.00,0.0119
3046.00,0.0110
3043.00,0.0113
3040.00,0.0129
3037.00,0.0160
3034.00,0.0214
3031.00,0.0293
3028.00,0.0377
3025.00,0.0406
3022.00,0.0343
3019.00,0.0241
3016.00,0.0162
3013.00,0.0117
3010.00,0.0095
3007.00,0.0090
3004.00,0.0092
3001.00,0.0087
2998.00,0.0066
2995.00,0.0041
2992.00,0.0025
2989.00,0.0017
2986.00,0.0008
2983.00,-0.0012
2980.00,-0.0015
2977.00,-0.0001
2974.00,0.0006
2971.00,0.0009
2968.00,0.0023
2965.00,0.0036
2962.00,0.0048
2959.00,0.0060
2956.00,0.0076
2953.00,0.0094
2950.00,0.0117
2947.00,0.0145
2944.00,0.0180
2941.00,0.0219
2938.00,0.0265
2935.00,0.0316
2932.00,0.0369
2929.00,0.0419
2926.00,0.0456
2923.00,0.0474
2920.00,0.0472
2917.00,0.0454
2914.00,0.0424
2911.00,0.0388
2908.00,0.0350
2905.00,0.0312
2902.00,0.0274
2899.00,0.0237
2896.00,0.0206
2893.00,0.0182
2890.00,0.0163
2887.00,0.0150
2884.00,0.0138
2881.00,0.0130
2878.00,0.0123
2875.00,0.0117
2872.00,0.0113
2869.00,0.0112
2866.00,0.0117
2863.00,0.0130
2860.00,0.0150
2857.00,0.0174
2854.00,0.0196
2851.00,0.0211
2848.00,0.0212
2845.00,0.0194
2842.00,0.0162
2839.00,0.0125
2836.00,0.0095
2833.00,0.0076
2830.00,0.0065
2827.00,0.0059
2824.00,0.0055
2821.00,0.0053
2818.00,0.0052
2815.00,0.0051
2812.00,0.0050
2809.00,0.0049
2806.00,0.0048
2803.00,0.0047
2800.00,0.0045
2797.00,0.0044
2794.00,0.0043
2791.00,0.0043
2788.00,0.0042
2785.00,0.0042
2782.00,0.0042
2779.00,0.0042
2776.00,0.0041
2773.00,0.0040
2770.00,0.0039
2767.00,0.0039
2764.00,0.0038
2761.00,0.0038
2758.00,0.0037
2755.00,0.0037
2752.00,0.0037
2749.00,0.0037
2746.00,0.0037
2743.00,0.0037
2740.00,0.0036
2737.00,0.0036
2734.00,0.0036
2731.00,0.0037
2728.00,0.0037
2725.00,0.0037
2722.00,0.0037
2719.00,0.0037
2716.00,0.0037
2713.00,0.0037
2710.00,0.0037
2707.00,0.0037
2704.00,0.0037
2701.00,0.0037
2698.00,0.0037
2695.00,0.0037
2692.00,0.0037
2689.00,0.0037
2686.00,0.0037
2683.00,0.0037
2680.00,0.0036
2677.00,0.0036
2674.00,0.0036
2671.00,0.0036
2668.00,0.0036
2665.00,0.0037
2662.00,0.0039
2659.00,0.0040
2656.00,0.0041
2653.00,0.0041
2650.00,0.0041
2647.00,0.0041
2644.00,0.0041
2641.00,0.0041
2638.00,0.0041
2635.00,0.0042
2632.00,0.0042
2629.00,0.0042
2626.00,0.0041
2623.00,0.0039
2620.00,0.0039
2617.00,0.0038
2614.00,0.0038
2611.00,0.0039
2608.00,0.0039
2605.00,0.0040
2602.00,0.0040
2599.00,0.0039
2596.00,0.0038
2593.00,0.0036
2590.00,0.0036
2587.00,0.0036
2584.00,0.0036
2581.00,0.0036
2578.00,0.0036
2575.00,0.0034
2572.00,0.0034
2569.00,0.0033
2566.00,0.0033
2563.00,0.0033
2560.00,0.0033
2557.00,0.0033
2554.00,0.0032
2551.00,0.0032
2548.00,0.0032
2545.00,0.0032
2542.00,0.0032
2539.00,0.0032
2536.00,0.0031
2533.00,0.0030
2530.00,0.0031
2527.00,0.0031
2524.00,0.0031
2521.00,0.0030
2518.00,0.0030
2515.00,0.0031
2512.00,0.0031
2509.00,0.0031
2506.00,0.0031
2503.00,0.0031
2500.00,0.0030
2497.00,0.0030
2494.00,0.0030
2491.00,0.0029
2488.00,0.0029
2485.00,0.0029
2482.00,0.0028
2479.00,0.0028
2476.00,0.0028
2473.00,0.0028
2470.00,0.0028
2467.00,0.0028
2464.00,0.0028
2461.00,0.0028
2458.00,0.0028
2455.00,0.0028
2452.00,0.0028
2449.00,0.0028
2446.00,0.0028
2443.00,0.0028
2440.00,0.0027
2437.00,0.0027
2434.00,0.0027
2431.00,0.0026
2428.00,0.0026
2425.00,0.0025
2422.00,0.0025
2419.00,0.0024
2416.00,0.0024
2413.00,0.0025
2410.00,0.0024
2407.00,0.0023
2404.00,0.0024
2401.00,0.0024
2398.00,0.0023
2395.00,0.0023
2392.00,0.0022
2389.00,0.0022
2386.00,0.0023
2383.00,0.0023
2380.00,0.0023
2377.00,0.0024
2374.00,0.0024
2371.00,0.0023
2368.00,0.0023
2365.00,0.0024
2362.00,0.0027
2359.00,0.0028
2356.00,0.0028
2353.00,0.0029
2350.00,0.0030
2347.00,0.0031
2344.00,0.0032
2341.00,0.0034
2338.00,0.0036
2335.00,0.0035
2332.00,0.0033
2329.00,0.0034
2326.00,0.0046
2323.00,0.0044
2320.00,0.0039
2317.00,0.0038
2314.00,0.0037
2311.00,0.0036
2308.00,0.0035
2305.00,0.0034
2302.00,0.0033
2299.00,0.0034
2296.00,0.0034
2293.00,0.0037
2290.00,0.0040
2287.00,0.0040
2284.00,0.0037
2281.00,0.0035
2278.00,0.0033
2275.00,0.0031
2272.00,0.0031
2269.00,0.0030
2266.00,0.0028
2263.00,0.0029
2260.00,0.0032
2257.00,0.0031
2254.00,0.0028
2251.00,0.0027
2248.00,0.0027
2245.00,0.0028
2242.00,0.0027
2239.00,0.0027
2236.00,0.0025
2233.00,0.0026
2230.00,0.0026
2227.00,0.0026
2224.00,0.0026
2221.00,0.0025
2218.00,0.0026
2215.00,0.0024
2212.00,0.0024
2209.00,0.0023
2206.00,0.0024
2203.00,0.0025
2200.00,0.0023
2197.00,0.0024
2194.00,0.0026
2191.00,0.0025
2188.00,0.0026
2185.00,0.0024
2182.00,0.0019
2179.00,0.0022
2176.00,0.0021
2173.00,0.0022
2170.00,0.0031
2167.00,0.0034
2164.00,0.0036
2161.00,0.0018
2158.00,-0.0015
2155.00,-0.0006
2152.00,0.0000
2149.00,0.0003
2146.00,0.0002
2143.00,0.0002
2140.00,0.0004
2137.00,-0.0000
2134.00,-0.0004
2131.00,0.0002
2128.00,0.0006
2125.00,0.0011
2122.00,0.0013
2119.00,0.0017
2116.00,0.0019
2113.00,0.0021
2110.00,0.0021
2107.00,0.0019
2104.00,0.0021
2101.00,0.0020
2098.00,0.0017
2095.00,0.0013
2092.00,0.0016
2089.00,0.0018
2086.00,0.0021
2083.00,0.0021
2080.00,0.0021
2077.00,0.0021
2074.00,0.0021
2071.00,0.0021
2068.00,0.0020
2065.00,0.0018
2062.00,0.0016
2059.00,0.0014
2056.00,0.0016
2053.00,0.0025
2050.00,0.0025
2047.00,0.0018
2044.00,0.0019
2041.00,0.0019
2038.00,0.0017
2035.00,0.0013
2032.00,0.0013
2029.00,0.0012
2026.00,0.0013
2023.00,0.0011
2020.00,0.0008
2017.00,0.0011
2014.00,0.0011
2011.00,0.0011
2008.00,0.0006
2005.00,0.0003
2002.00,0.0010
1999.00,0.0015
1996.00,0.0018
1993.00,0.0018
1990.00,0.0023
1987.00,0.0026
1984.00,0.0029
1981.00,0.0037
1978.00,0.0023
1975.00,0.0014
1972.00,0.0016
1969.00,0.0019
1966.00,0.0022
1963.00,0.0028
1960.00,0.0031
1957.00,0.0036
1954.00,0.0042
1951.00,0.0049
1948.00,0.0055
1945.00,0.0061
1942.00,0.0062
1939.00,0.0057
1936.00,0.0051
1933.00,0.0040
1930.00,0.0031
1927.00,0.0026
1924.00,0.0023
1921.00,0.0022
1918.00,0.0022
1915.00,0.0020
1912.00,0.0020
1909.00,0.0020
1906.00,0.0020
1903.00,0.0022
1900.00,0.0024
1897.00,0.0028
1894.00,0.0033
1891.00,0.0037
1888.00,0.0043
1885.00,0.0047
1882.00,0.0050
1879.00,0.0052
1876.00,0.0055
1873.00,0.0058
1870.00,0.0059
1867.00,0.0057
1864.00,0.0052
1861.00,0.0045
1858.00,0.0037
1855.00,0.0031
1852.00,0.0027
1849.00,0.0025
1846.00,0.0023
1843.00,0.0022
1840.00,0.0022
1837.00,0.0023
1834.00,0.0024
1831.00,0.0026
1828.00,0.0030
1825.00,0.0034
1822.00,0.0038
1819.00,0.0041
1816.00,0.0044
1813.00,0.0051
1810.00,0.0057
1807.00,0.0063
1804.00,0.0067
1801.00,0.0067
1798.00,0.0063
1795.00,0.0056
1792.00,0.0049
1789.00,0.0041
1786.00,0.0037
1783.00,0.0035
1780.00,0.0036
1777.00,0.0036
1774.00,0.0037
1771.00,0.0038
1768.00,0.0038
1765.00,0.0039
1762.00,0.0044
1759.00,0.0049
1756.00,0.0056
1753.00,0.0063
1750.00,0.0070
1747.00,0.0074
1744.00,0.0076
1741.00,0.0074
1738.00,0.0073
1735.00,0.0071
1732.00,0.0067
1729.00,0.0062
1726.00,0.0059
1723.00,0.0057
1720.00,0.0055
1717.00,0.0055
1714.00,0.0051
1711.00,0.0050
1708.00,0.0048
1705.00,0.0048
1702.00,0.0047
1699.00,0.0046
1696.00,0.0046
1693.00,0.0044
1690.00,0.0046
1687.00,0.0047
1684.00,0.0049
1681.00,0.0051
1678.00,0.0052
1675.00,0.0054
1672.00,0.0054
1669.00,0.0054
1666.00,0.0054
1663.00,0.0053
1660.00,0.0050
1657.00,0.0048
1654.00,0.0047
1651.00,0.0044
1648.00,0.0042
1645.00,0.0041
1642.00,0.0040
1639.00,0.0040
1636.00,0.0040
1633.00,0.0040
1630.00,0.0041
1627.00,0.0044
1624.00,0.0046
1621.00,0.0049
1618.00,0.0053
1615.00,0.0062
1612.00,0.0079
1609.00,0.0126
1606.00,0.0229
1603.00,0.0357
1600.00,0.0376
1597.00,0.0265
1594.00,0.0172
1591.00,0.0127
1588.00,0.0117
1585.00,0.0152
1582.00,0.0156
1579.00,0.0106
1576.00,0.0073
1573.00,0.0058
1570.00,0.0051
1567.00,0.0047
1564.00,0.0045
1561.00,0.0045
1558.00,0.0046
1555.00,0.0049
1552.00,0.0054
1549.00,0.0059
1546.00,0.0065
1543.00,0.0067
1540.00,0.0066
1537.00,0.0062
1534.00,0.0057
1531.00,0.0051
1528.00,0.0048
1525.00,0.0045
1522.00,0.0046
1519.00,0.0047
1516.00,0.0049
1513.00,0.0053
1510.00,0.0059
1507.00,0.0067
1504.00,0.0088
1501.00,0.0134
1498.00,0.0298
1495.00,0.0757
1492.00,0.0953
1489.00,0.0567
1486.00,0.0297
1483.00,0.0181
1480.00,0.0127
1477.00,0.0105
1474.00,0.0094
1471.00,0.0093
1468.00,0.0100
1465.00,0.0109
1462.00,0.0133
1459.00,0.0205
1456.00,0.0561
1453.00,0.0942
1450.00,0.0913
1447.00,0.0689
1444.00,0.0534
1441.00,0.0409
1438.00,0.0319
1435.00,0.0229
1432.00,0.0171
1429.00,0.0131
1426.00,0.0110
1423.00,0.0098
1420.00,0.0093
1417.00,0.0086
1414.00,0.0080
1411.00,0.0076
1408.00,0.0073
1405.00,0.0070
1402.00,0.0066
1399.00,0.0064
1396.00,0.0065
1393.00,0.0073
1390.00,0.0090
1387.00,0.0110
1384.00,0.0129
1381.00,0.0147
1378.00,0.0167
1375.00,0.0186
1372.00,0.0195
1369.00,0.0195
1366.00,0.0192
1363.00,0.0188
1360.00,0.0180
1357.00,0.0172
1354.00,0.0167
1351.00,0.0167
1348.00,0.0166
1345.00,0.0159
1342.00,0.0151
1339.00,0.0146
1336.00,0.0148
1333.00,0.0159
1330.00,0.0172
1327.00,0.0173
1324.00,0.0166
1321.00,0.0161
1318.00,0.0162
1315.00,0.0168
1312.00,0.0171
1309.00,0.0166
1306.00,0.0158
1303.00,0.0149
1300.00,0.0140
1297.00,0.0135
1294.00,0.0132
1291.00,0.0128
1288.00,0.0124
1285.00,0.0121
1282.00,0.0120
1279.00,0.0116
1276.00,0.0107
1273.00,0.0099
1270.00,0.0090
1267.00,0.0085
1264.00,0.0081
1261.00,0.0079
1258.00,0.0079
1255.00,0.0078
1252.00,0.0078
1249.00,0.0081
1246.00,0.0083
1243.00,0.0083
1240.00,0.0082
1237.00,0.0082
1234.00,0.0083
1231.00,0.0084
1228.00,0.0087
1225.00,0.0090
1222.00,0.0091
1219.00,0.0091
1216.00,0.0093
1213.00,0.0096
1210.00,0.0102
1207.00,0.0110
1204.00,0.0120
1201.00,0.0131
1198.00,0.0139
1195.00,0.0141
1192.00,0.0143
1189.00,0.0146
1186.00,0.0160
1183.00,0.0185
1180.00,0.0185
1177.00,0.0147
1174.00,0.0114
1171.00,0.0101
1168.00,0.0096
1165.00,0.0097
1162.00,0.0106
1159.00,0.0134
1156.00,0.0172
1153.00,0.0169
1150.00,0.0123
1147.00,0.0089
1144.00,0.0074
1141.00,0.0066
1138.00,0.0061
1135.00,0.0061
1132.00,0.0063
1129.00,0.0065
1126.00,0.0067
1123.00,0.0071
1120.00,0.0079
1117.00,0.0090
1114.00,0.0099
1111.00,0.0102
1108.00,0.0100
1105.00,0.0099
1102.00,0.0101
1099.00,0.0104
1096.00,0.0108
1093.00,0.0111
1090.00,0.0115
1087.00,0.0124
1084.00,0.0140
1081.00,0.0158
1078.00,0.0177
1075.00,0.0205
1072.00,0.0239
1069.00,0.0257
1066.00,0.0245
1063.00,0.0213
1060.00,0.0185
1057.00,0.0165
1054.00,0.0151
1051.00,0.0142
1048.00,0.0137
1045.00,0.0133
1042.00,0.0133
1039.00,0.0148
1036.00,0.0203
1033.00,0.0324
1030.00,0.0450
1027.00,0.0474
1024.00,0.0383
1021.00,0.0299
1018.00,0.0248
1015.00,0.0215
1012.00,0.0193
1009.00,0.0183
1006.00,0.0191
1003.00,0.0199
1000.00,0.0171
997.00,0.0144
994.00,0.0138
991.00,0.0139
988.00,0.0146
985.00,0.0160
982.00,0.0172
979.00,0.0172
976.00,0.0159
973.00,0.0146
970.00,0.0150
967.00,0.0168
964.00,0.0176
961.00,0.0162
958.00,0.0135
955.00,0.0120
952.00,0.0120
949.00,0.0127
946.00,0.0134
943.00,0.0137
940.00,0.0131
937.00,0.0120
934.00,0.0107
931.00,0.0100
928.00,0.0099
925.00,0.0104
922.00,0.0113
919.00,0.0129
916.00,0.0160
913.00,0.0212
910.00,0.0276
907.00,0.0316
904.00,0.0296
901.00,0.0231
898.00,0.0166
895.00,0.0127
892.00,0.0110
889.00,0.0099
886.00,0.0091
883.00,0.0085
880.00,0.0083
877.00,0.0080
874.00,0.0078
871.00,0.0074
868.00,0.0073
865.00,0.0072
862.00,0.0071
859.00,0.0073
856.00,0.0077
853.00,0.0085
850.00,0.0104
847.00,0.0132
844.00,0.0155
841.00,0.0161
838.00,0.0143
835.00,0.0111
832.00,0.0085
829.00,0.0073
826.00,0.0069
823.00,0.0067
820.00,0.0067
817.00,0.0070
814.00,0.0071
811.00,0.0071
808.00,0.0073
805.00,0.0076
802.00,0.0081
799.00,0.0090
796.00,0.0103
793.00,0.0124
790.00,0.0148
787.00,0.0179
784.00,0.0215
781.00,0.0264
778.00,0.0338
775.00,0.0442
772.00,0.0578
769.00,0.0742
766.00,0.0910
763.00,0.1072
760.00,0.1244
757.00,0.1376
754.00,0.1406
751.00,0.1386
748.00,0.1364
745.00,0.1234
742.00,0.0965
739.00,0.0707
736.00,0.0506
733.00,0.0337
730.00,0.0225
727.00,0.0176
724.00,0.0157
721.00,0.0155
718.00,0.0166
715.00,0.0201
712.00,0.0300
709.00,0.0551
706.00,0.1065
703.00,0.1895
700.00,0.3051
697.00,0.4337
694.00,0.4460
691.00,0.2928
688.00,0.1760
685.00,0.1205
682.00,0.0913
679.00,0.0739
676.00,0.0632
673.00,0.0560
670.00,0.0509
667.00,0.0453
664.00,0.0400
661.00,0.0351
658.00,0.0307
655.00,0.0271
652.00,0.0242
649.00,0.0222
646.00,0.0206
643.00,0.0196
640.00,0.0197
637.00,0.0210
634.00,0.0228
631.00,0.0240
628.00,0.0252
625.00,0.0261
622.00,0.0277
619.00,0.0272
616.00,0.0247
613.00,0.0232
610.00,0.0225
607.00,0.0215
604.00,0.0215
601.00,0.0220
598.00,0.0225
595.00,0.0231
592.00,0.0246
589.00,0.0257
586.00,0.0271
583.00,0.0287
580.00,0.0318
577.00,0.0363
574.00,0.0416
571.00,0.0471
568.00,0.0525
565.00,0.0575
562.00,0.0625
559.00,0.0681
556.00,0.0738
553.00,0.0799
550.00,0.0874
547.00,0.0978
544.00,0.1105
541.00,0.1229
538.00,0.1281
535.00,0.1195
532.00,0.1012
529.00,0.0817
526.00,0.0661
523.00,0.0543
520.00,0.0471
517.00,0.0422
514.00,0.0381
511.00,0.0344
508.00,0.0311
505.00,0.0287
502.00,0.0261
499.00,0.0235
496.00,0.0225
493.00,0.0216
490.00,0.0198
487.00,0.0185
484.00,0.0180
481.00,0.0178
478.00,0.0172
475.00,0.0165
472.00,0.0159
469.00,0.0153
466.00,0.0152
463.00,0.0152
460.00,0.0152
457.00,0.0153
454.00,0.0147
451.00,0.0141
448.00,0.0138
445.00,0.0146
442.00,0.0138
439.00,0.0127
436.00,0.0137
433.00,0.0142
430.00,0.0125
427.00,0.0113
424.00,0.0120
421.00,0.0137
418.00,0.0130
415.00,0.0119
412.00,0.0139
409.00,0.0149
406.00,0.0154
403.00,0.0129
400.00,0.0131