File: FTIR/Olivia/2025_06_26_Polystyrene_Std_OAG_scan2.csv
Created as New Dataset,Sample 722 By YargerLab Date Thursday, June 26 2025
cm-1,A
4000.00,0.0025
3997.00,0.0025
3994.00,0.0025
3991.00,0.0025
3988.00,0.0025
3985.00,0.0025
3982.00,0.0025
3979.00,0.0024
3976.00,0.0025
3973.00,0.0025
3970.00,0.0024
3967.00,0.0024
3964.00,0.0024
3961.00,0.0024
3958.00,0.0025
3955.00,0.0025
3952.00,0.0025
3949.00,0.0024
3946.00,0.0024
3943.00,0.0024
3940.00,0.0024
3937.00,0.0025
3934.00,0.0025
3931.00,0.0025
3928.00,0.0024
3925.00,0.0024
3922.00,0.0024
3919.00,0.0024
3916.00,0.0024
3913.00,0.0024
3910.00,0.0025
3907.00,0.0024
3904.00,0.0024
3901.00,0.0023
3898.00,0.0023
3895.00,0.0023
3892.00,0.0024
3889.00,0.0024
3886.00,0.0023
3883.00,0.0024
3880.00,0.0024
3877.00,0.0024
3874.00,0.0023
3871.00,0.0023
3868.00,0.0023
3865.00,0.0023
3862.00,0.0023
3859.00,0.0024
3856.00,0.0022
3853.00,0.0022
3850.00,0.0022
3847.00,0.0024
3844.00,0.0024
3841.00,0.0023
3838.00,0.0023
3835.00,0.0023
3832.00,0.0024
3829.00,0.0024
3826.00,0.0025
3823.00,0.0024
3820.00,0.0024
3817.00,0.0024
3814.00,0.0024
3811.00,0.0023
3808.00,0.0023
3805.00,0.0023
3802.00,0.0023
3799.00,0.0024
3796.00,0.0025
3793.00,0.0025
3790.00,0.0024
3787.00,0.0025
3784.00,0.0025
3781.00,0.0025
3778.00,0.0025
3775.00,0.0025
3772.00,0.0025
3769.00,0.0024
3766.00,0.0024
3763.00,0.0024
3760.00,0.0024
3757.00,0.0024
3754.00,0.0023
3751.00,0.0022
3748.00,0.0021
3745.00,0.0022
3742.00,0.0022
3739.00,0.0023
3736.00,0.0022
3733.00,0.0022
3730.00,0.0023
3727.00,0.0023
3724.00,0.0024
3721.00,0.0023
3718.00,0.0023
3715.00,0.0023
3712.00,0.0023
3709.00,0.0022
3706.00,0.0023
3703.00,0.0023
3700.00,0.0023
3697.00,0.0023
3694.00,0.0023
3691.00,0.0023
3688.00,0.0022
3685.00,0.0021
3682.00,0.0021
3679.00,0.0020
3676.00,0.0018
3673.00,0.0016
3670.00,0.0016
3667.00,0.0017
3664.00,0.0018
3661.00,0.0017
3658.00,0.0017
3655.00,0.0017
3652.00,0.0017
3649.00,0.0018
3646.00,0.0019
3643.00,0.0019
3640.00,0.0019
3637.00,0.0019
3634.00,0.0020
3631.00,0.0021
3628.00,0.0021
3625.00,0.0022
3622.00,0.0023
3619.00,0.0023
3616.00,0.0023
3613.00,0.0023
3610.00,0.0022
3607.00,0.0023
3604.00,0.0023
3601.00,0.0024
3598.00,0.0024
3595.00,0.0025
3592.00,0.0024
3589.00,0.0024
3586.00,0.0024
3583.00,0.0024
3580.00,0.0024
3577.00,0.0024
3574.00,0.0024
3571.00,0.0023
3568.00,0.0023
3565.00,0.0023
3562.00,0.0023
3559.00,0.0024
3556.00,0.0024
3553.00,0.0024
3550.00,0.0024
3547.00,0.0024
3544.00,0.0024
3541.00,0.0024
3538.00,0.0025
3535.00,0.0025
3532.00,0.0025
3529.00,0.0025
3526.00,0.0025
3523.00,0.0025
3520.00,0.0026
3517.00,0.0026
3514.00,0.0026
3511.00,0.0026
3508.00,0.0027
3505.00,0.0026
3502.00,0.0027
3499.00,0.0027
3496.00,0.0027
3493.00,0.0027
3490.00,0.0027
3487.00,0.0027
3484.00,0.0026
3481.00,0.0027
3478.00,0.0028
3475.00,0.0028
3472.00,0.0027
3469.00,0.0028
3466.00,0.0028
3463.00,0.0028
3460.00,0.0028
3457.00,0.0028
3454.00,0.0028
3451.00,0.0028
3448.00,0.0028
3445.00,0.0028
3442.00,0.0028
3439.00,0.0028
3436.00,0.0029
3433.00,0.0029
3430.00,0.0029
3427.00,0.0028
3424.00,0.0029
3421.00,0.0029
3418.00,0.0028
3415.00,0.0028
3412.00,0.0028
3409.00,0.0028
3406.00,0.0028
3403.00,0.0029
3400.00,0.0029
3397.00,0.0029
3394.00,0.0029
3391.00,0.0029
3388.00,0.0029
3385.00,0.0029
3382.00,0.0028
3379.00,0.0029
3376.00,0.0029
3373.00,0.0029
3370.00,0.0029
3367.00,0.0029
3364.00,0.0029
3361.00,0.0029
3358.00,0.0029
3355.00,0.0029
3352.00,0.0029
3349.00,0.0029
3346.00,0.0029
3343.00,0.0029
3340.00,0.0029
3337.00,0.0029
3334.00,0.0029
3331.00,0.0029
3328.00,0.0029
3325.00,0.0029
3322.00,0.0028
3319.00,0.0028
3316.00,0.0028
3313.00,0.0028
3310.00,0.0028
3307.00,0.0029
3304.00,0.0029
3301.00,0.0029
3298.00,0.0029
3295.00,0.0029
3292.00,0.0029
3289.00,0.0028
3286.00,0.0028
3283.00,0.0028
3280.00,0.0028
3277.00,0.0028
3274.00,0.0029
3271.00,0.0029
3268.00,0.0028
3265.00,0.0027
3262.00,0.0028
3259.00,0.0028
3256.00,0.0028
3253.00,0.0028
3250.00,0.0028
3247.00,0.0028
3244.00,0.0028
3241.00,0.0027
3238.00,0.0027
3235.00,0.0027
3232.00,0.0028
3229.00,0.0027
3226.00,0.0027
3223.00,0.0027
3220.00,0.0026
3217.00,0.0028
3214.00,0.0027
3211.00,0.0027
3208.00,0.0028
3205.00,0.0028
3202.00,0.0029
3199.00,0.0028
3196.00,0.0028
3193.00,0.0028
3190.00,0.0027
3187.00,0.0027
3184.00,0.0027
3181.00,0.0027
3178.00,0.0027
3175.00,0.0027
3172.00,0.0028
3169.00,0.0028
3166.00,0.0029
3163.00,0.0030
3160.00,0.0029
3157.00,0.0028
3154.00,0.0027
3151.00,0.0028
3148.00,0.0027
3145.00,0.0027
3142.00,0.0028
3139.00,0.0027
3136.00,0.0027
3133.00,0.0028
3130.00,0.0028
3127.00,0.0028
3124.00,0.0029
3121.00,0.0030
3118.00,0.0031
3115.00,0.0034
3112.00,0.0039
3109.00,0.0046
3106.00,0.0054
3103.00,0.0057
3100.00,0.0056
3097.00,0.0054
3094.00,0.0056
3091.00,0.0068
3088.00,0.0090
3085.00,0.0116
3082.00,0.0127
3079.00,0.0115
3076.00,0.0100
3073.00,0.0095
3070.00,0.0102
3067.00,0.0121
3064.00,0.0149
3061.00,0.0170
3058.00,0.0167
3055.00,0.0143
3052.00,0.0117
3049.00,0.0100
3046.00,0.0092
3043.00,0.0094
3040.00,0.0106
3037.00,0.0130
3034.00,0.0171
3031.00,0.0233
3028.00,0.0300
3025.00,0.0325
3022.00,0.0280
3019.00,0.0200
3016.00,0.0137
3013.00,0.0099
3010.00,0.0081
3007.00,0.0076
3004.00,0.0078
3001.00,0.0076
2998.00,0.0060
2995.00,0.0039
2992.00,0.0026
2989.00,0.0020
2986.00,0.0014
2983.00,-0.0002
2980.00,-0.0005
2977.00,0.0006
2974.00,0.0012
2971.00,0.0015
2968.00,0.0025
2965.00,0.0036
2962.00,0.0046
2959.00,0.0056
2956.00,0.0068
2953.00,0.0083
2950.00,0.0101
2947.00,0.0122
2944.00,0.0149
2941.00,0.0180
2938.00,0.0216
2935.00,0.0257
2932.00,0.0300
2929.00,0.0340
2926.00,0.0370
2923.00,0.0385
2920.00,0.0384
2917.00,0.0370
2914.00,0.0347
2911.00,0.0319
2908.00,0.0289
2905.00,0.0259
2902.00,0.0228
2899.00,0.0199
2896.00,0.0173
2893.00,0.0154
2890.00,0.0139
2887.00,0.0128
2884.00,0.0118
2881.00,0.0111
2878.00,0.0106
2875.00,0.0101
2872.00,0.0097
2869.00,0.0096
2866.00,0.0101
2863.00,0.0111
2860.00,0.0126
2857.00,0.0146
2854.00,0.0164
2851.00,0.0175
2848.00,0.0176
2845.00,0.0163
2842.00,0.0137
2839.00,0.0108
2836.00,0.0084
2833.00,0.0068
2830.00,0.0059
2827.00,0.0053
2824.00,0.0050
2821.00,0.0048
2818.00,0.0047
2815.00,0.0046
2812.00,0.0045
2809.00,0.0044
2806.00,0.0043
2803.00,0.0042
2800.00,0.0041
2797.00,0.0040
2794.00,0.0040
2791.00,0.0039
2788.00,0.0039
2785.00,0.0039
2782.00,0.0039
2779.00,0.0038
2776.00,0.0038
2773.00,0.0037
2770.00,0.0036
2767.00,0.0036
2764.00,0.0035
2761.00,0.0036
2758.00,0.0035
2755.00,0.0035
2752.00,0.0035
2749.00,0.0035
2746.00,0.0034
2743.00,0.0034
2740.00,0.0034
2737.00,0.0035
2734.00,0.0035
2731.00,0.0035
2728.00,0.0035
2725.00,0.0035
2722.00,0.0035
2719.00,0.0035
2716.00,0.0035
2713.00,0.0035
2710.00,0.0035
2707.00,0.0035
2704.00,0.0035
2701.00,0.0035
2698.00,0.0034
2695.00,0.0035
2692.00,0.0035
2689.00,0.0034
2686.00,0.0034
2683.00,0.0035
2680.00,0.0035
2677.00,0.0034
2674.00,0.0035
2671.00,0.0034
2668.00,0.0034
2665.00,0.0036
2662.00,0.0037
2659.00,0.0038
2656.00,0.0038
2653.00,0.0038
2650.00,0.0039
2647.00,0.0038
2644.00,0.0039
2641.00,0.0038
2638.00,0.0039
2635.00,0.0040
2632.00,0.0040
2629.00,0.0039
2626.00,0.0038
2623.00,0.0037
2620.00,0.0037
2617.00,0.0036
2614.00,0.0036
2611.00,0.0036
2608.00,0.0037
2605.00,0.0037
2602.00,0.0037
2599.00,0.0036
2596.00,0.0035
2593.00,0.0034
2590.00,0.0033
2587.00,0.0034
2584.00,0.0034
2581.00,0.0034
2578.00,0.0035
2575.00,0.0033
2572.00,0.0033
2569.00,0.0032
2566.00,0.0031
2563.00,0.0031
2560.00,0.0032
2557.00,0.0031
2554.00,0.0031
2551.00,0.0031
2548.00,0.0030
2545.00,0.0030
2542.00,0.0030
2539.00,0.0030
2536.00,0.0030
2533.00,0.0030
2530.00,0.0029
2527.00,0.0030
2524.00,0.0030
2521.00,0.0030
2518.00,0.0029
2515.00,0.0030
2512.00,0.0030
2509.00,0.0029
2506.00,0.0030
2503.00,0.0029
2500.00,0.0029
2497.00,0.0029
2494.00,0.0029
2491.00,0.0028
2488.00,0.0028
2485.00,0.0028
2482.00,0.0028
2479.00,0.0028
2476.00,0.0027
2473.00,0.0027
2470.00,0.0027
2467.00,0.0027
2464.00,0.0027
2461.00,0.0027
2458.00,0.0028
2455.00,0.0028
2452.00,0.0028
2449.00,0.0028
2446.00,0.0027
2443.00,0.0027
2440.00,0.0026
2437.00,0.0027
2434.00,0.0026
2431.00,0.0025
2428.00,0.0024
2425.00,0.0024
2422.00,0.0023
2419.00,0.0023
2416.00,0.0025
2413.00,0.0024
2410.00,0.0023
2407.00,0.0023
2404.00,0.0023
2401.00,0.0023
2398.00,0.0023
2395.00,0.0023
2392.00,0.0024
2389.00,0.0023
2386.00,0.0023
2383.00,0.0022
2380.00,0.0023
2377.00,0.0023
2374.00,0.0023
2371.00,0.0023
2368.00,0.0023
2365.00,0.0024
2362.00,0.0026
2359.00,0.0026
2356.00,0.0027
2353.00,0.0027
2350.00,0.0028
2347.00,0.0030
2344.00,0.0030
2341.00,0.0031
2338.00,0.0033
2335.00,0.0032
2332.00,0.0031
2329.00,0.0032
2326.00,0.0042
2323.00,0.0041
2320.00,0.0037
2317.00,0.0036
2314.00,0.0036
2311.00,0.0036
2308.00,0.0035
2305.00,0.0034
2302.00,0.0032
2299.00,0.0033
2296.00,0.0035
2293.00,0.0037
2290.00,0.0038
2287.00,0.0038
2284.00,0.0035
2281.00,0.0033
2278.00,0.0032
2275.00,0.0032
2272.00,0.0031
2269.00,0.0030
2266.00,0.0030
2263.00,0.0029
2260.00,0.0030
2257.00,0.0029
2254.00,0.0028
2251.00,0.0028
2248.00,0.0027
2245.00,0.0028
2242.00,0.0028
2239.00,0.0027
2236.00,0.0027
2233.00,0.0026
2230.00,0.0025
2227.00,0.0026
2224.00,0.0027
2221.00,0.0026
2218.00,0.0024
2215.00,0.0025
2212.00,0.0025
2209.00,0.0024
2206.00,0.0024
2203.00,0.0024
2200.00,0.0025
2197.00,0.0025
2194.00,0.0026
2191.00,0.0025
2188.00,0.0023
2185.00,0.0024
2182.00,0.0017
2179.00,0.0020
2176.00,0.0019
2173.00,0.0023
2170.00,0.0030
2167.00,0.0034
2164.00,0.0036
2161.00,0.0016
2158.00,-0.0015
2155.00,-0.0006
2152.00,0.0001
2149.00,0.0003
2146.00,0.0005
2143.00,0.0004
2140.00,0.0003
2137.00,0.0003
2134.00,0.0001
2131.00,0.0004
2128.00,0.0007
2125.00,0.0010
2122.00,0.0013
2119.00,0.0017
2116.00,0.0019
2113.00,0.0019
2110.00,0.0020
2107.00,0.0020
2104.00,0.0020
2101.00,0.0019
2098.00,0.0019
2095.00,0.0014
2092.00,0.0016
2089.00,0.0019
2086.00,0.0022
2083.00,0.0021
2080.00,0.0023
2077.00,0.0021
2074.00,0.0021
2071.00,0.0021
2068.00,0.0019
2065.00,0.0018
2062.00,0.0017
2059.00,0.0017
2056.00,0.0015
2053.00,0.0023
2050.00,0.0028
2047.00,0.0022
2044.00,0.0019
2041.00,0.0018
2038.00,0.0020
2035.00,0.0016
2032.00,0.0013
2029.00,0.0010
2026.00,0.0010
2023.00,0.0010
2020.00,0.0010
2017.00,0.0008
2014.00,0.0013
2011.00,0.0013
2008.00,0.0010
2005.00,0.0008
2002.00,0.0012
1999.00,0.0015
1996.00,0.0021
1993.00,0.0023
1990.00,0.0023
1987.00,0.0025
1984.00,0.0030
1981.00,0.0036
1978.00,0.0021
1975.00,0.0014
1972.00,0.0016
1969.00,0.0020
1966.00,0.0025
1963.00,0.0030
1960.00,0.0029
1957.00,0.0034
1954.00,0.0038
1951.00,0.0042
1948.00,0.0050
1945.00,0.0054
1942.00,0.0055
1939.00,0.0052
1936.00,0.0045
1933.00,0.0035
1930.00,0.0030
1927.00,0.0026
1924.00,0.0024
1921.00,0.0024
1918.00,0.0023
1915.00,0.0022
1912.00,0.0022
1909.00,0.0022
1906.00,0.0021
1903.00,0.0022
1900.00,0.0025
1897.00,0.0027
1894.00,0.0030
1891.00,0.0035
1888.00,0.0040
1885.00,0.0044
1882.00,0.0046
1879.00,0.0049
1876.00,0.0052
1873.00,0.0053
1870.00,0.0054
1867.00,0.0053
1864.00,0.0049
1861.00,0.0042
1858.00,0.0037
1855.00,0.0032
1852.00,0.0028
1849.00,0.0026
1846.00,0.0024
1843.00,0.0024
1840.00,0.0024
1837.00,0.0024
1834.00,0.0026
1831.00,0.0027
1828.00,0.0030
1825.00,0.0033
1822.00,0.0037
1819.00,0.0039
1816.00,0.0042
1813.00,0.0047
1810.00,0.0053
1807.00,0.0057
1804.00,0.0061
1801.00,0.0061
1798.00,0.0057
1795.00,0.0052
1792.00,0.0046
1789.00,0.0039
1786.00,0.0036
1783.00,0.0035
1780.00,0.0036
1777.00,0.0036
1774.00,0.0037
1771.00,0.0037
1768.00,0.0037
1765.00,0.0038
1762.00,0.0042
1759.00,0.0046
1756.00,0.0052
1753.00,0.0058
1750.00,0.0065
1747.00,0.0068
1744.00,0.0071
1741.00,0.0072
1738.00,0.0071
1735.00,0.0070
1732.00,0.0067
1729.00,0.0063
1726.00,0.0060
1723.00,0.0057
1720.00,0.0055
1717.00,0.0053
1714.00,0.0050
1711.00,0.0048
1708.00,0.0047
1705.00,0.0047
1702.00,0.0046
1699.00,0.0046
1696.00,0.0046
1693.00,0.0045
1690.00,0.0046
1687.00,0.0048
1684.00,0.0050
1681.00,0.0051
1678.00,0.0052
1675.00,0.0054
1672.00,0.0054
1669.00,0.0055
1666.00,0.0055
1663.00,0.0054
1660.00,0.0052
1657.00,0.0049
1654.00,0.0049
1651.00,0.0047
1648.00,0.0045
1645.00,0.0044
1642.00,0.0043
1639.00,0.0043
1636.00,0.0043
1633.00,0.0044
1630.00,0.0045
1627.00,0.0046
1624.00,0.0048
1621.00,0.0051
1618.00,0.0055
1615.00,0.0063
1612.00,0.0076
1609.00,0.0114
1606.00,0.0199
1603.00,0.0306
1600.00,0.0325
1597.00,0.0234
1594.00,0.0155
1591.00,0.0116
1588.00,0.0108
1585.00,0.0136
1582.00,0.0141
1579.00,0.0099
1576.00,0.0071
1573.00,0.0058
1570.00,0.0052
1567.00,0.0048
1564.00,0.0047
1561.00,0.0047
1558.00,0.0048
1555.00,0.0050
1552.00,0.0054
1549.00,0.0059
1546.00,0.0063
1543.00,0.0064
1540.00,0.0063
1537.00,0.0061
1534.00,0.0056
1531.00,0.0052
1528.00,0.0049
1525.00,0.0047
1522.00,0.0046
1519.00,0.0046
1516.00,0.0048
1513.00,0.0050
1510.00,0.0055
1507.00,0.0064
1504.00,0.0079
1501.00,0.0117
1498.00,0.0253
1495.00,0.0634
1492.00,0.0809
1489.00,0.0488
1486.00,0.0258
1483.00,0.0160
1480.00,0.0113
1477.00,0.0093
1474.00,0.0084
1471.00,0.0085
1468.00,0.0091
1465.00,0.0099
1462.00,0.0119
1459.00,0.0178
1456.00,0.0472
1453.00,0.0796
1450.00,0.0778
1447.00,0.0589
1444.00,0.0460
1441.00,0.0355
1438.00,0.0279
1435.00,0.0202
1432.00,0.0152
1429.00,0.0117
1426.00,0.0099
1423.00,0.0089
1420.00,0.0083
1417.00,0.0079
1414.00,0.0074
1411.00,0.0072
1408.00,0.0069
1405.00,0.0067
1402.00,0.0064
1399.00,0.0063
1396.00,0.0064
1393.00,0.0072
1390.00,0.0085
1387.00,0.0103
1384.00,0.0120
1381.00,0.0136
1378.00,0.0154
1375.00,0.0170
1372.00,0.0178
1369.00,0.0179
1366.00,0.0177
1363.00,0.0175
1360.00,0.0171
1357.00,0.0166
1354.00,0.0163
1351.00,0.0160
1348.00,0.0155
1345.00,0.0147
1342.00,0.0138
1339.00,0.0133
1336.00,0.0134
1333.00,0.0143
1330.00,0.0153
1327.00,0.0155
1324.00,0.0148
1321.00,0.0144
1318.00,0.0145
1315.00,0.0150
1312.00,0.0153
1309.00,0.0150
1306.00,0.0143
1303.00,0.0135
1300.00,0.0128
1297.00,0.0123
1294.00,0.0121
1291.00,0.0118
1288.00,0.0114
1285.00,0.0112
1282.00,0.0111
1279.00,0.0108
1276.00,0.0101
1273.00,0.0093
1270.00,0.0087
1267.00,0.0083
1264.00,0.0081
1261.00,0.0080
1258.00,0.0078
1255.00,0.0077
1252.00,0.0077
1249.00,0.0079
1246.00,0.0080
1243.00,0.0080
1240.00,0.0079
1237.00,0.0079
1234.00,0.0079
1231.00,0.0080
1228.00,0.0083
1225.00,0.0084
1222.00,0.0085
1219.00,0.0085
1216.00,0.0086
1213.00,0.0090
1210.00,0.0095
1207.00,0.0102
1204.00,0.0110
1201.00,0.0119
1198.00,0.0125
1195.00,0.0128
1192.00,0.0129
1189.00,0.0132
1186.00,0.0144
1183.00,0.0166
1180.00,0.0167
1177.00,0.0134
1174.00,0.0106
1171.00,0.0095
1168.00,0.0091
1165.00,0.0091
1162.00,0.0100
1159.00,0.0124
1156.00,0.0157
1153.00,0.0156
1150.00,0.0117
1147.00,0.0087
1144.00,0.0074
1141.00,0.0066
1138.00,0.0062
1135.00,0.0061
1132.00,0.0062
1129.00,0.0064
1126.00,0.0066
1123.00,0.0070
1120.00,0.0076
1117.00,0.0086
1114.00,0.0095
1111.00,0.0097
1108.00,0.0096
1105.00,0.0094
1102.00,0.0095
1099.00,0.0097
1096.00,0.0101
1093.00,0.0104
1090.00,0.0108
1087.00,0.0117
1084.00,0.0130
1081.00,0.0146
1078.00,0.0162
1075.00,0.0186
1072.00,0.0217
1069.00,0.0232
1066.00,0.0221
1063.00,0.0194
1060.00,0.0169
1057.00,0.0151
1054.00,0.0140
1051.00,0.0132
1048.00,0.0126
1045.00,0.0123
1042.00,0.0123
1039.00,0.0136
1036.00,0.0183
1033.00,0.0287
1030.00,0.0396
1027.00,0.0418
1024.00,0.0341
1021.00,0.0268
1018.00,0.0224
1015.00,0.0195
1012.00,0.0176
1009.00,0.0166
1006.00,0.0173
1003.00,0.0181
1000.00,0.0157
997.00,0.0132
994.00,0.0127
991.00,0.0129
988.00,0.0135
985.00,0.0146
982.00,0.0157
979.00,0.0158
976.00,0.0146
973.00,0.0136
970.00,0.0141
967.00,0.0156
964.00,0.0163
961.00,0.0151
958.00,0.0127
955.00,0.0114
952.00,0.0114
949.00,0.0121
946.00,0.0128
943.00,0.0129
940.00,0.0124
937.00,0.0113
934.00,0.0102
931.00,0.0095
928.00,0.0094
925.00,0.0099
922.00,0.0107
919.00,0.0121
916.00,0.0147
913.00,0.0193
910.00,0.0250
907.00,0.0285
904.00,0.0268
901.00,0.0211
898.00,0.0153
895.00,0.0119
892.00,0.0104
889.00,0.0094
886.00,0.0086
883.00,0.0082
880.00,0.0079
877.00,0.0077
874.00,0.0075
871.00,0.0073
868.00,0.0072
865.00,0.0071
862.00,0.0071
859.00,0.0071
856.00,0.0073
853.00,0.0081
850.00,0.0097
847.00,0.0121
844.00,0.0142
841.00,0.0148
838.00,0.0134
835.00,0.0106
832.00,0.0082
829.00,0.0071
826.00,0.0068
823.00,0.0065
820.00,0.0066
817.00,0.0069
814.00,0.0070
811.00,0.0071
808.00,0.0074
805.00,0.0075
802.00,0.0079
799.00,0.0088
796.00,0.0099
793.00,0.0117
790.00,0.0139
787.00,0.0165
784.00,0.0197
781.00,0.0241
778.00,0.0306
775.00,0.0399
772.00,0.0520
769.00,0.0667
766.00,0.0818
763.00,0.0964
760.00,0.1121
757.00,0.1240
754.00,0.1270
751.00,0.1253
748.00,0.1234
745.00,0.1118
742.00,0.0876
739.00,0.0643
736.00,0.0461
733.00,0.0308
730.00,0.0207
727.00,0.0163
724.00,0.0147
721.00,0.0143
718.00,0.0152
715.00,0.0181
712.00,0.0270
709.00,0.0499
706.00,0.0966
703.00,0.1726
700.00,0.2766
697.00,0.3903
694.00,0.4076
691.00,0.2757
688.00,0.1676
685.00,0.1147
682.00,0.0871
679.00,0.0703
676.00,0.0598
673.00,0.0529
670.00,0.0478
667.00,0.0424
664.00,0.0379
661.00,0.0334
658.00,0.0291
655.00,0.0257
652.00,0.0231
649.00,0.0211
646.00,0.0196
643.00,0.0187
640.00,0.0186
637.00,0.0196
634.00,0.0213
631.00,0.0227
628.00,0.0237
625.00,0.0246
622.00,0.0261
619.00,0.0256
616.00,0.0231
613.00,0.0217
610.00,0.0206
607.00,0.0201
604.00,0.0200
601.00,0.0205
598.00,0.0211
595.00,0.0219
592.00,0.0232
589.00,0.0239
586.00,0.0249
583.00,0.0267
580.00,0.0295
577.00,0.0335
574.00,0.0385
571.00,0.0437
568.00,0.0484
565.00,0.0529
562.00,0.0579
559.00,0.0628
556.00,0.0680
553.00,0.0735
550.00,0.0807
547.00,0.0903
544.00,0.1022
541.00,0.1144
538.00,0.1197
535.00,0.1121
532.00,0.0949
529.00,0.0771
526.00,0.0621
523.00,0.0505
520.00,0.0438
517.00,0.0391
514.00,0.0353
511.00,0.0324
508.00,0.0296
505.00,0.0267
502.00,0.0243
499.00,0.0222
496.00,0.0204
493.00,0.0200
490.00,0.0190
487.00,0.0184
484.00,0.0176
481.00,0.0171
478.00,0.0160
475.00,0.0155
472.00,0.0147
469.00,0.0151
466.00,0.0146
463.00,0.0139
460.00,0.0136
457.00,0.0145
454.00,0.0141
451.00,0.0145
448.00,0.0142
445.00,0.0132
442.00,0.0131
439.00,0.0138
436.00,0.0130
433.00,0.0123
430.00,0.0123
427.00,0.0113
424.00,0.0095
421.00,0.0105
418.00,0.0111
415.00,0.0112
412.00,0.0122
409.00,0.0146
406.00,0.0150
403.00,0.0152
400.00,0.0114