File: FTIR/Olivia/2025_07_21_Polystyrene_Std_scan3.csv
Created as New Dataset,Sample 842 By YargerLab Date Monday, July 21 2025
cm-1,A
4000.00,0.0008
3997.00,0.0008
3994.00,0.0007
3991.00,0.0007
3988.00,0.0008
3985.00,0.0008
3982.00,0.0008
3979.00,0.0007
3976.00,0.0008
3973.00,0.0008
3970.00,0.0008
3967.00,0.0008
3964.00,0.0008
3961.00,0.0008
3958.00,0.0008
3955.00,0.0008
3952.00,0.0007
3949.00,0.0008
3946.00,0.0008
3943.00,0.0007
3940.00,0.0007
3937.00,0.0008
3934.00,0.0008
3931.00,0.0007
3928.00,0.0007
3925.00,0.0007
3922.00,0.0007
3919.00,0.0007
3916.00,0.0007
3913.00,0.0007
3910.00,0.0007
3907.00,0.0007
3904.00,0.0007
3901.00,0.0007
3898.00,0.0007
3895.00,0.0007
3892.00,0.0007
3889.00,0.0008
3886.00,0.0008
3883.00,0.0007
3880.00,0.0007
3877.00,0.0007
3874.00,0.0007
3871.00,0.0007
3868.00,0.0007
3865.00,0.0007
3862.00,0.0008
3859.00,0.0007
3856.00,0.0008
3853.00,0.0007
3850.00,0.0007
3847.00,0.0008
3844.00,0.0008
3841.00,0.0007
3838.00,0.0008
3835.00,0.0008
3832.00,0.0007
3829.00,0.0008
3826.00,0.0008
3823.00,0.0008
3820.00,0.0008
3817.00,0.0007
3814.00,0.0008
3811.00,0.0008
3808.00,0.0009
3805.00,0.0009
3802.00,0.0007
3799.00,0.0008
3796.00,0.0008
3793.00,0.0008
3790.00,0.0008
3787.00,0.0008
3784.00,0.0008
3781.00,0.0008
3778.00,0.0008
3775.00,0.0009
3772.00,0.0009
3769.00,0.0009
3766.00,0.0008
3763.00,0.0008
3760.00,0.0008
3757.00,0.0008
3754.00,0.0008
3751.00,0.0008
3748.00,0.0008
3745.00,0.0008
3742.00,0.0008
3739.00,0.0008
3736.00,0.0009
3733.00,0.0008
3730.00,0.0007
3727.00,0.0007
3724.00,0.0007
3721.00,0.0007
3718.00,0.0007
3715.00,0.0007
3712.00,0.0007
3709.00,0.0007
3706.00,0.0007
3703.00,0.0007
3700.00,0.0007
3697.00,0.0007
3694.00,0.0007
3691.00,0.0007
3688.00,0.0007
3685.00,0.0007
3682.00,0.0008
3679.00,0.0008
3676.00,0.0007
3673.00,0.0006
3670.00,0.0006
3667.00,0.0006
3664.00,0.0006
3661.00,0.0006
3658.00,0.0006
3655.00,0.0007
3652.00,0.0006
3649.00,0.0007
3646.00,0.0007
3643.00,0.0007
3640.00,0.0007
3637.00,0.0007
3634.00,0.0007
3631.00,0.0007
3628.00,0.0007
3625.00,0.0007
3622.00,0.0008
3619.00,0.0007
3616.00,0.0008
3613.00,0.0008
3610.00,0.0007
3607.00,0.0008
3604.00,0.0008
3601.00,0.0008
3598.00,0.0008
3595.00,0.0007
3592.00,0.0008
3589.00,0.0008
3586.00,0.0008
3583.00,0.0008
3580.00,0.0009
3577.00,0.0009
3574.00,0.0009
3571.00,0.0009
3568.00,0.0008
3565.00,0.0008
3562.00,0.0009
3559.00,0.0009
3556.00,0.0009
3553.00,0.0009
3550.00,0.0010
3547.00,0.0010
3544.00,0.0010
3541.00,0.0010
3538.00,0.0010
3535.00,0.0011
3532.00,0.0011
3529.00,0.0010
3526.00,0.0011
3523.00,0.0011
3520.00,0.0011
3517.00,0.0011
3514.00,0.0012
3511.00,0.0012
3508.00,0.0012
3505.00,0.0012
3502.00,0.0011
3499.00,0.0012
3496.00,0.0012
3493.00,0.0013
3490.00,0.0013
3487.00,0.0013
3484.00,0.0013
3481.00,0.0013
3478.00,0.0013
3475.00,0.0013
3472.00,0.0014
3469.00,0.0014
3466.00,0.0014
3463.00,0.0014
3460.00,0.0014
3457.00,0.0014
3454.00,0.0014
3451.00,0.0014
3448.00,0.0014
3445.00,0.0014
3442.00,0.0014
3439.00,0.0014
3436.00,0.0014
3433.00,0.0014
3430.00,0.0014
3427.00,0.0014
3424.00,0.0014
3421.00,0.0014
3418.00,0.0014
3415.00,0.0014
3412.00,0.0014
3409.00,0.0014
3406.00,0.0014
3403.00,0.0014
3400.00,0.0014
3397.00,0.0014
3394.00,0.0014
3391.00,0.0014
3388.00,0.0014
3385.00,0.0015
3382.00,0.0015
3379.00,0.0014
3376.00,0.0014
3373.00,0.0014
3370.00,0.0014
3367.00,0.0014
3364.00,0.0014
3361.00,0.0015
3358.00,0.0015
3355.00,0.0014
3352.00,0.0014
3349.00,0.0014
3346.00,0.0014
3343.00,0.0014
3340.00,0.0014
3337.00,0.0014
3334.00,0.0013
3331.00,0.0014
3328.00,0.0014
3325.00,0.0014
3322.00,0.0014
3319.00,0.0014
3316.00,0.0014
3313.00,0.0014
3310.00,0.0014
3307.00,0.0014
3304.00,0.0014
3301.00,0.0013
3298.00,0.0014
3295.00,0.0014
3292.00,0.0013
3289.00,0.0013
3286.00,0.0013
3283.00,0.0013
3280.00,0.0014
3277.00,0.0014
3274.00,0.0014
3271.00,0.0013
3268.00,0.0013
3265.00,0.0013
3262.00,0.0013
3259.00,0.0013
3256.00,0.0014
3253.00,0.0014
3250.00,0.0014
3247.00,0.0013
3244.00,0.0013
3241.00,0.0014
3238.00,0.0014
3235.00,0.0013
3232.00,0.0013
3229.00,0.0013
3226.00,0.0012
3223.00,0.0013
3220.00,0.0013
3217.00,0.0012
3214.00,0.0013
3211.00,0.0013
3208.00,0.0013
3205.00,0.0013
3202.00,0.0013
3199.00,0.0014
3196.00,0.0014
3193.00,0.0013
3190.00,0.0013
3187.00,0.0013
3184.00,0.0013
3181.00,0.0013
3178.00,0.0013
3175.00,0.0013
3172.00,0.0013
3169.00,0.0014
3166.00,0.0014
3163.00,0.0015
3160.00,0.0014
3157.00,0.0014
3154.00,0.0014
3151.00,0.0013
3148.00,0.0013
3145.00,0.0013
3142.00,0.0013
3139.00,0.0013
3136.00,0.0013
3133.00,0.0013
3130.00,0.0014
3127.00,0.0014
3124.00,0.0014
3121.00,0.0015
3118.00,0.0015
3115.00,0.0018
3112.00,0.0021
3109.00,0.0026
3106.00,0.0031
3103.00,0.0034
3100.00,0.0033
3097.00,0.0032
3094.00,0.0033
3091.00,0.0041
3088.00,0.0055
3085.00,0.0073
3082.00,0.0081
3079.00,0.0074
3076.00,0.0064
3073.00,0.0060
3070.00,0.0065
3067.00,0.0077
3064.00,0.0094
3061.00,0.0110
3058.00,0.0109
3055.00,0.0093
3052.00,0.0076
3049.00,0.0064
3046.00,0.0058
3043.00,0.0060
3040.00,0.0067
3037.00,0.0083
3034.00,0.0110
3031.00,0.0150
3028.00,0.0195
3025.00,0.0215
3022.00,0.0188
3019.00,0.0134
3016.00,0.0090
3013.00,0.0064
3010.00,0.0053
3007.00,0.0052
3004.00,0.0056
3001.00,0.0058
2998.00,0.0050
2995.00,0.0038
2992.00,0.0030
2989.00,0.0027
2986.00,0.0025
2983.00,0.0022
2980.00,0.0022
2977.00,0.0025
2974.00,0.0028
2971.00,0.0029
2968.00,0.0033
2965.00,0.0037
2962.00,0.0042
2959.00,0.0048
2956.00,0.0055
2953.00,0.0064
2950.00,0.0076
2947.00,0.0089
2944.00,0.0105
2941.00,0.0125
2938.00,0.0148
2935.00,0.0174
2932.00,0.0202
2929.00,0.0228
2926.00,0.0246
2923.00,0.0256
2920.00,0.0256
2917.00,0.0248
2914.00,0.0233
2911.00,0.0215
2908.00,0.0195
2905.00,0.0175
2902.00,0.0155
2899.00,0.0136
2896.00,0.0119
2893.00,0.0106
2890.00,0.0097
2887.00,0.0089
2884.00,0.0083
2881.00,0.0077
2878.00,0.0072
2875.00,0.0067
2872.00,0.0064
2869.00,0.0063
2866.00,0.0065
2863.00,0.0071
2860.00,0.0080
2857.00,0.0092
2854.00,0.0104
2851.00,0.0112
2848.00,0.0112
2845.00,0.0104
2842.00,0.0086
2839.00,0.0066
2836.00,0.0050
2833.00,0.0039
2830.00,0.0032
2827.00,0.0028
2824.00,0.0026
2821.00,0.0025
2818.00,0.0024
2815.00,0.0024
2812.00,0.0023
2809.00,0.0023
2806.00,0.0022
2803.00,0.0022
2800.00,0.0021
2797.00,0.0020
2794.00,0.0020
2791.00,0.0020
2788.00,0.0019
2785.00,0.0018
2782.00,0.0019
2779.00,0.0018
2776.00,0.0018
2773.00,0.0018
2770.00,0.0018
2767.00,0.0017
2764.00,0.0017
2761.00,0.0017
2758.00,0.0016
2755.00,0.0017
2752.00,0.0016
2749.00,0.0016
2746.00,0.0016
2743.00,0.0016
2740.00,0.0016
2737.00,0.0016
2734.00,0.0016
2731.00,0.0017
2728.00,0.0017
2725.00,0.0017
2722.00,0.0017
2719.00,0.0017
2716.00,0.0017
2713.00,0.0016
2710.00,0.0016
2707.00,0.0016
2704.00,0.0016
2701.00,0.0016
2698.00,0.0016
2695.00,0.0016
2692.00,0.0017
2689.00,0.0017
2686.00,0.0017
2683.00,0.0016
2680.00,0.0016
2677.00,0.0016
2674.00,0.0016
2671.00,0.0016
2668.00,0.0017
2665.00,0.0018
2662.00,0.0019
2659.00,0.0020
2656.00,0.0021
2653.00,0.0021
2650.00,0.0021
2647.00,0.0021
2644.00,0.0021
2641.00,0.0022
2638.00,0.0021
2635.00,0.0021
2632.00,0.0022
2629.00,0.0022
2626.00,0.0020
2623.00,0.0020
2620.00,0.0019
2617.00,0.0019
2614.00,0.0019
2611.00,0.0019
2608.00,0.0019
2605.00,0.0019
2602.00,0.0019
2599.00,0.0018
2596.00,0.0018
2593.00,0.0017
2590.00,0.0016
2587.00,0.0017
2584.00,0.0017
2581.00,0.0016
2578.00,0.0016
2575.00,0.0015
2572.00,0.0015
2569.00,0.0015
2566.00,0.0014
2563.00,0.0014
2560.00,0.0014
2557.00,0.0014
2554.00,0.0014
2551.00,0.0014
2548.00,0.0014
2545.00,0.0013
2542.00,0.0014
2539.00,0.0013
2536.00,0.0013
2533.00,0.0013
2530.00,0.0013
2527.00,0.0013
2524.00,0.0013
2521.00,0.0013
2518.00,0.0012
2515.00,0.0012
2512.00,0.0013
2509.00,0.0013
2506.00,0.0012
2503.00,0.0012
2500.00,0.0012
2497.00,0.0012
2494.00,0.0012
2491.00,0.0012
2488.00,0.0013
2485.00,0.0012
2482.00,0.0012
2479.00,0.0012
2476.00,0.0010
2473.00,0.0010
2470.00,0.0011
2467.00,0.0011
2464.00,0.0012
2461.00,0.0012
2458.00,0.0013
2455.00,0.0013
2452.00,0.0012
2449.00,0.0012
2446.00,0.0011
2443.00,0.0010
2440.00,0.0010
2437.00,0.0010
2434.00,0.0010
2431.00,0.0009
2428.00,0.0009
2425.00,0.0009
2422.00,0.0009
2419.00,0.0009
2416.00,0.0009
2413.00,0.0009
2410.00,0.0009
2407.00,0.0007
2404.00,0.0007
2401.00,0.0007
2398.00,0.0008
2395.00,0.0008
2392.00,0.0008
2389.00,0.0008
2386.00,0.0007
2383.00,0.0007
2380.00,0.0007
2377.00,0.0007
2374.00,0.0008
2371.00,0.0006
2368.00,0.0005
2365.00,0.0008
2362.00,0.0009
2359.00,0.0010
2356.00,0.0011
2353.00,0.0011
2350.00,0.0013
2347.00,0.0014
2344.00,0.0014
2341.00,0.0015
2338.00,0.0016
2335.00,0.0016
2332.00,0.0014
2329.00,0.0016
2326.00,0.0026
2323.00,0.0025
2320.00,0.0022
2317.00,0.0021
2314.00,0.0020
2311.00,0.0019
2308.00,0.0018
2305.00,0.0017
2302.00,0.0017
2299.00,0.0017
2296.00,0.0019
2293.00,0.0021
2290.00,0.0023
2287.00,0.0024
2284.00,0.0021
2281.00,0.0019
2278.00,0.0017
2275.00,0.0016
2272.00,0.0017
2269.00,0.0016
2266.00,0.0015
2263.00,0.0015
2260.00,0.0016
2257.00,0.0015
2254.00,0.0012
2251.00,0.0012
2248.00,0.0013
2245.00,0.0013
2242.00,0.0013
2239.00,0.0012
2236.00,0.0012
2233.00,0.0012
2230.00,0.0011
2227.00,0.0011
2224.00,0.0011
2221.00,0.0011
2218.00,0.0010
2215.00,0.0012
2212.00,0.0012
2209.00,0.0011
2206.00,0.0008
2203.00,0.0012
2200.00,0.0012
2197.00,0.0009
2194.00,0.0009
2191.00,0.0012
2188.00,0.0014
2185.00,0.0012
2182.00,0.0008
2179.00,0.0011
2176.00,0.0005
2173.00,0.0009
2170.00,0.0017
2167.00,0.0017
2164.00,0.0019
2161.00,0.0007
2158.00,-0.0023
2155.00,-0.0016
2152.00,-0.0009
2149.00,-0.0010
2146.00,-0.0009
2143.00,-0.0007
2140.00,-0.0008
2137.00,-0.0010
2134.00,-0.0015
2131.00,-0.0010
2128.00,-0.0005
2125.00,-0.0002
2122.00,-0.0000
2119.00,0.0003
2116.00,0.0006
2113.00,0.0007
2110.00,0.0007
2107.00,0.0008
2104.00,0.0008
2101.00,0.0008
2098.00,0.0005
2095.00,0.0001
2092.00,0.0004
2089.00,0.0006
2086.00,0.0006
2083.00,0.0008
2080.00,0.0009
2077.00,0.0010
2074.00,0.0008
2071.00,0.0005
2068.00,0.0004
2065.00,0.0005
2062.00,0.0006
2059.00,0.0004
2056.00,0.0003
2053.00,0.0011
2050.00,0.0015
2047.00,0.0007
2044.00,0.0004
2041.00,0.0005
2038.00,0.0006
2035.00,0.0003
2032.00,0.0003
2029.00,0.0002
2026.00,0.0005
2023.00,0.0001
2020.00,0.0001
2017.00,0.0002
2014.00,0.0001
2011.00,0.0004
2008.00,-0.0001
2005.00,-0.0007
2002.00,-0.0002
1999.00,0.0002
1996.00,0.0003
1993.00,0.0006
1990.00,0.0008
1987.00,0.0012
1984.00,0.0019
1981.00,0.0024
1978.00,0.0010
1975.00,0.0001
1972.00,-0.0000
1969.00,0.0003
1966.00,0.0006
1963.00,0.0009
1960.00,0.0009
1957.00,0.0011
1954.00,0.0018
1951.00,0.0020
1948.00,0.0021
1945.00,0.0028
1942.00,0.0029
1939.00,0.0025
1936.00,0.0020
1933.00,0.0016
1930.00,0.0011
1927.00,0.0009
1924.00,0.0008
1921.00,0.0007
1918.00,0.0005
1915.00,0.0006
1912.00,0.0006
1909.00,0.0007
1906.00,0.0007
1903.00,0.0008
1900.00,0.0009
1897.00,0.0011
1894.00,0.0013
1891.00,0.0016
1888.00,0.0019
1885.00,0.0021
1882.00,0.0024
1879.00,0.0026
1876.00,0.0028
1873.00,0.0029
1870.00,0.0030
1867.00,0.0028
1864.00,0.0025
1861.00,0.0021
1858.00,0.0017
1855.00,0.0014
1852.00,0.0012
1849.00,0.0012
1846.00,0.0011
1843.00,0.0010
1840.00,0.0009
1837.00,0.0008
1834.00,0.0009
1831.00,0.0011
1828.00,0.0014
1825.00,0.0016
1822.00,0.0018
1819.00,0.0018
1816.00,0.0020
1813.00,0.0026
1810.00,0.0029
1807.00,0.0033
1804.00,0.0035
1801.00,0.0035
1798.00,0.0034
1795.00,0.0030
1792.00,0.0026
1789.00,0.0022
1786.00,0.0021
1783.00,0.0020
1780.00,0.0021
1777.00,0.0021
1774.00,0.0023
1771.00,0.0024
1768.00,0.0024
1765.00,0.0024
1762.00,0.0026
1759.00,0.0030
1756.00,0.0033
1753.00,0.0036
1750.00,0.0040
1747.00,0.0043
1744.00,0.0044
1741.00,0.0044
1738.00,0.0044
1735.00,0.0044
1732.00,0.0040
1729.00,0.0039
1726.00,0.0038
1723.00,0.0036
1720.00,0.0035
1717.00,0.0035
1714.00,0.0034
1711.00,0.0033
1708.00,0.0033
1705.00,0.0032
1702.00,0.0032
1699.00,0.0030
1696.00,0.0030
1693.00,0.0031
1690.00,0.0031
1687.00,0.0033
1684.00,0.0035
1681.00,0.0036
1678.00,0.0037
1675.00,0.0038
1672.00,0.0039
1669.00,0.0039
1666.00,0.0039
1663.00,0.0039
1660.00,0.0038
1657.00,0.0037
1654.00,0.0035
1651.00,0.0033
1648.00,0.0032
1645.00,0.0031
1642.00,0.0031
1639.00,0.0031
1636.00,0.0031
1633.00,0.0031
1630.00,0.0032
1627.00,0.0033
1624.00,0.0034
1621.00,0.0035
1618.00,0.0036
1615.00,0.0041
1612.00,0.0051
1609.00,0.0076
1606.00,0.0132
1603.00,0.0204
1600.00,0.0220
1597.00,0.0159
1594.00,0.0104
1591.00,0.0077
1588.00,0.0071
1585.00,0.0090
1582.00,0.0094
1579.00,0.0066
1576.00,0.0045
1573.00,0.0036
1570.00,0.0031
1567.00,0.0028
1564.00,0.0027
1561.00,0.0027
1558.00,0.0028
1555.00,0.0029
1552.00,0.0033
1549.00,0.0036
1546.00,0.0040
1543.00,0.0041
1540.00,0.0039
1537.00,0.0037
1534.00,0.0034
1531.00,0.0031
1528.00,0.0029
1525.00,0.0027
1522.00,0.0027
1519.00,0.0028
1516.00,0.0029
1513.00,0.0032
1510.00,0.0035
1507.00,0.0040
1504.00,0.0052
1501.00,0.0079
1498.00,0.0169
1495.00,0.0423
1492.00,0.0557
1489.00,0.0338
1486.00,0.0175
1483.00,0.0109
1480.00,0.0077
1477.00,0.0065
1474.00,0.0060
1471.00,0.0060
1468.00,0.0064
1465.00,0.0070
1462.00,0.0085
1459.00,0.0124
1456.00,0.0318
1453.00,0.0534
1450.00,0.0532
1447.00,0.0403
1444.00,0.0318
1441.00,0.0247
1438.00,0.0197
1435.00,0.0139
1432.00,0.0107
1429.00,0.0082
1426.00,0.0069
1423.00,0.0062
1420.00,0.0059
1417.00,0.0055
1414.00,0.0052
1411.00,0.0051
1408.00,0.0050
1405.00,0.0049
1402.00,0.0049
1399.00,0.0050
1396.00,0.0053
1393.00,0.0059
1390.00,0.0069
1387.00,0.0080
1384.00,0.0092
1381.00,0.0104
1378.00,0.0115
1375.00,0.0125
1372.00,0.0128
1369.00,0.0127
1366.00,0.0125
1363.00,0.0122
1360.00,0.0117
1357.00,0.0113
1354.00,0.0110
1351.00,0.0109
1348.00,0.0107
1345.00,0.0104
1342.00,0.0099
1339.00,0.0095
1336.00,0.0096
1333.00,0.0103
1330.00,0.0110
1327.00,0.0110
1324.00,0.0106
1321.00,0.0103
1318.00,0.0103
1315.00,0.0107
1312.00,0.0109
1309.00,0.0106
1306.00,0.0101
1303.00,0.0096
1300.00,0.0091
1297.00,0.0088
1294.00,0.0087
1291.00,0.0085
1288.00,0.0083
1285.00,0.0081
1282.00,0.0080
1279.00,0.0078
1276.00,0.0073
1273.00,0.0068
1270.00,0.0064
1267.00,0.0061
1264.00,0.0060
1261.00,0.0058
1258.00,0.0058
1255.00,0.0058
1252.00,0.0059
1249.00,0.0060
1246.00,0.0061
1243.00,0.0062
1240.00,0.0061
1237.00,0.0061
1234.00,0.0060
1231.00,0.0061
1228.00,0.0062
1225.00,0.0063
1222.00,0.0063
1219.00,0.0064
1216.00,0.0065
1213.00,0.0067
1210.00,0.0071
1207.00,0.0076
1204.00,0.0082
1201.00,0.0089
1198.00,0.0094
1195.00,0.0096
1192.00,0.0097
1189.00,0.0099
1186.00,0.0110
1183.00,0.0127
1180.00,0.0128
1177.00,0.0106
1174.00,0.0087
1171.00,0.0080
1168.00,0.0077
1165.00,0.0077
1162.00,0.0084
1159.00,0.0102
1156.00,0.0126
1153.00,0.0125
1150.00,0.0097
1147.00,0.0076
1144.00,0.0065
1141.00,0.0059
1138.00,0.0056
1135.00,0.0055
1132.00,0.0055
1129.00,0.0054
1126.00,0.0056
1123.00,0.0059
1120.00,0.0063
1117.00,0.0069
1114.00,0.0075
1111.00,0.0077
1108.00,0.0075
1105.00,0.0074
1102.00,0.0076
1099.00,0.0079
1096.00,0.0082
1093.00,0.0085
1090.00,0.0090
1087.00,0.0095
1084.00,0.0105
1081.00,0.0117
1078.00,0.0130
1075.00,0.0148
1072.00,0.0169
1069.00,0.0180
1066.00,0.0172
1063.00,0.0152
1060.00,0.0134
1057.00,0.0121
1054.00,0.0112
1051.00,0.0104
1048.00,0.0099
1045.00,0.0096
1042.00,0.0096
1039.00,0.0105
1036.00,0.0138
1033.00,0.0211
1030.00,0.0288
1027.00,0.0305
1024.00,0.0251
1021.00,0.0198
1018.00,0.0166
1015.00,0.0146
1012.00,0.0133
1009.00,0.0126
1006.00,0.0130
1003.00,0.0137
1000.00,0.0120
997.00,0.0102
994.00,0.0098
991.00,0.0099
988.00,0.0104
985.00,0.0114
982.00,0.0122
979.00,0.0123
976.00,0.0117
973.00,0.0112
970.00,0.0117
967.00,0.0129
964.00,0.0135
961.00,0.0125
958.00,0.0109
955.00,0.0099
952.00,0.0097
949.00,0.0100
946.00,0.0106
943.00,0.0109
940.00,0.0104
937.00,0.0096
934.00,0.0087
931.00,0.0080
928.00,0.0078
925.00,0.0079
922.00,0.0084
919.00,0.0095
916.00,0.0114
913.00,0.0147
910.00,0.0189
907.00,0.0217
904.00,0.0204
901.00,0.0161
898.00,0.0119
895.00,0.0094
892.00,0.0082
889.00,0.0073
886.00,0.0068
883.00,0.0064
880.00,0.0061
877.00,0.0059
874.00,0.0057
871.00,0.0056
868.00,0.0056
865.00,0.0055
862.00,0.0055
859.00,0.0055
856.00,0.0058
853.00,0.0064
850.00,0.0076
847.00,0.0095
844.00,0.0111
841.00,0.0115
838.00,0.0104
835.00,0.0082
832.00,0.0065
829.00,0.0057
826.00,0.0054
823.00,0.0052
820.00,0.0052
817.00,0.0053
814.00,0.0054
811.00,0.0054
808.00,0.0055
805.00,0.0057
802.00,0.0060
799.00,0.0066
796.00,0.0076
793.00,0.0088
790.00,0.0105
787.00,0.0125
784.00,0.0149
781.00,0.0182
778.00,0.0230
775.00,0.0300
772.00,0.0390
769.00,0.0499
766.00,0.0609
763.00,0.0718
760.00,0.0830
757.00,0.0915
754.00,0.0938
751.00,0.0930
748.00,0.0923
745.00,0.0846
742.00,0.0669
739.00,0.0492
736.00,0.0351
733.00,0.0234
730.00,0.0159
727.00,0.0125
724.00,0.0112
721.00,0.0111
718.00,0.0118
715.00,0.0142
712.00,0.0208
709.00,0.0381
706.00,0.0735
703.00,0.1304
700.00,0.2051
697.00,0.2815
694.00,0.2994
691.00,0.2157
688.00,0.1357
685.00,0.0938
682.00,0.0715
679.00,0.0579
676.00,0.0492
673.00,0.0434
670.00,0.0394
667.00,0.0348
664.00,0.0313
661.00,0.0276
658.00,0.0242
655.00,0.0215
652.00,0.0192
649.00,0.0171
646.00,0.0159
643.00,0.0153
640.00,0.0151
637.00,0.0160
634.00,0.0173
631.00,0.0183
628.00,0.0191
625.00,0.0197
622.00,0.0209
619.00,0.0208
616.00,0.0189
613.00,0.0183
610.00,0.0172
607.00,0.0166
604.00,0.0163
601.00,0.0166
598.00,0.0172
595.00,0.0180
592.00,0.0187
589.00,0.0195
586.00,0.0203
583.00,0.0216
580.00,0.0239
577.00,0.0266
574.00,0.0308
571.00,0.0346
568.00,0.0386
565.00,0.0424
562.00,0.0464
559.00,0.0502
556.00,0.0541
553.00,0.0585
550.00,0.0643
547.00,0.0718
544.00,0.0812
541.00,0.0904
538.00,0.0950
535.00,0.0904
532.00,0.0778
529.00,0.0634
526.00,0.0516
523.00,0.0432
520.00,0.0371
517.00,0.0328
514.00,0.0302
511.00,0.0280
508.00,0.0252
505.00,0.0227
502.00,0.0211
499.00,0.0201
496.00,0.0188
493.00,0.0175
490.00,0.0170
487.00,0.0165
484.00,0.0158
481.00,0.0153
478.00,0.0148
475.00,0.0144
472.00,0.0141
469.00,0.0137
466.00,0.0136
463.00,0.0138
460.00,0.0134
457.00,0.0128
454.00,0.0123
451.00,0.0126
448.00,0.0122
445.00,0.0108
442.00,0.0114
439.00,0.0117
436.00,0.0115
433.00,0.0113
430.00,0.0115
427.00,0.0110
424.00,0.0112
421.00,0.0102
418.00,0.0090
415.00,0.0099
412.00,0.0102
409.00,0.0107
406.00,0.0120
403.00,0.0126
400.00,0.0108