File: FTIR/Olivia/2025_08_06_1CBN_3PVP40_MP_Powder_Scan1.csv
Created as New Dataset,Sample 1085 By YargerLab Date Wednesday, August 06 2025
cm-1,A
4000.00,0.0117
3997.00,0.0116
3994.00,0.0116
3991.00,0.0117
3988.00,0.0116
3985.00,0.0116
3982.00,0.0116
3979.00,0.0116
3976.00,0.0116
3973.00,0.0117
3970.00,0.0117
3967.00,0.0116
3964.00,0.0116
3961.00,0.0116
3958.00,0.0116
3955.00,0.0116
3952.00,0.0116
3949.00,0.0116
3946.00,0.0116
3943.00,0.0116
3940.00,0.0115
3937.00,0.0116
3934.00,0.0116
3931.00,0.0115
3928.00,0.0116
3925.00,0.0116
3922.00,0.0116
3919.00,0.0116
3916.00,0.0115
3913.00,0.0115
3910.00,0.0115
3907.00,0.0116
3904.00,0.0116
3901.00,0.0115
3898.00,0.0115
3895.00,0.0115
3892.00,0.0115
3889.00,0.0115
3886.00,0.0115
3883.00,0.0114
3880.00,0.0115
3877.00,0.0115
3874.00,0.0115
3871.00,0.0115
3868.00,0.0115
3865.00,0.0114
3862.00,0.0114
3859.00,0.0115
3856.00,0.0115
3853.00,0.0115
3850.00,0.0115
3847.00,0.0115
3844.00,0.0115
3841.00,0.0114
3838.00,0.0113
3835.00,0.0114
3832.00,0.0114
3829.00,0.0114
3826.00,0.0114
3823.00,0.0114
3820.00,0.0114
3817.00,0.0113
3814.00,0.0114
3811.00,0.0115
3808.00,0.0114
3805.00,0.0113
3802.00,0.0113
3799.00,0.0113
3796.00,0.0113
3793.00,0.0114
3790.00,0.0114
3787.00,0.0114
3784.00,0.0114
3781.00,0.0113
3778.00,0.0113
3775.00,0.0114
3772.00,0.0114
3769.00,0.0113
3766.00,0.0113
3763.00,0.0114
3760.00,0.0114
3757.00,0.0114
3754.00,0.0113
3751.00,0.0113
3748.00,0.0113
3745.00,0.0113
3742.00,0.0113
3739.00,0.0113
3736.00,0.0112
3733.00,0.0111
3730.00,0.0111
3727.00,0.0111
3724.00,0.0111
3721.00,0.0112
3718.00,0.0112
3715.00,0.0111
3712.00,0.0111
3709.00,0.0111
3706.00,0.0111
3703.00,0.0111
3700.00,0.0110
3697.00,0.0110
3694.00,0.0111
3691.00,0.0112
3688.00,0.0112
3685.00,0.0113
3682.00,0.0114
3679.00,0.0115
3676.00,0.0114
3673.00,0.0115
3670.00,0.0116
3667.00,0.0116
3664.00,0.0117
3661.00,0.0118
3658.00,0.0119
3655.00,0.0119
3652.00,0.0119
3649.00,0.0121
3646.00,0.0123
3643.00,0.0124
3640.00,0.0126
3637.00,0.0127
3634.00,0.0128
3631.00,0.0130
3628.00,0.0133
3625.00,0.0135
3622.00,0.0136
3619.00,0.0138
3616.00,0.0142
3613.00,0.0144
3610.00,0.0146
3607.00,0.0149
3604.00,0.0151
3601.00,0.0154
3598.00,0.0156
3595.00,0.0159
3592.00,0.0162
3589.00,0.0166
3586.00,0.0171
3583.00,0.0174
3580.00,0.0177
3577.00,0.0182
3574.00,0.0185
3571.00,0.0189
3568.00,0.0193
3565.00,0.0198
3562.00,0.0202
3559.00,0.0206
3556.00,0.0209
3553.00,0.0214
3550.00,0.0218
3547.00,0.0221
3544.00,0.0226
3541.00,0.0229
3538.00,0.0231
3535.00,0.0235
3532.00,0.0237
3529.00,0.0240
3526.00,0.0244
3523.00,0.0247
3520.00,0.0250
3517.00,0.0252
3514.00,0.0255
3511.00,0.0257
3508.00,0.0259
3505.00,0.0261
3502.00,0.0265
3499.00,0.0268
3496.00,0.0270
3493.00,0.0273
3490.00,0.0276
3487.00,0.0279
3484.00,0.0282
3481.00,0.0287
3478.00,0.0290
3475.00,0.0293
3472.00,0.0298
3469.00,0.0303
3466.00,0.0307
3463.00,0.0311
3460.00,0.0316
3457.00,0.0319
3454.00,0.0324
3451.00,0.0328
3448.00,0.0332
3445.00,0.0338
3442.00,0.0343
3439.00,0.0349
3436.00,0.0354
3433.00,0.0359
3430.00,0.0366
3427.00,0.0372
3424.00,0.0378
3421.00,0.0386
3418.00,0.0393
3415.00,0.0399
3412.00,0.0405
3409.00,0.0410
3406.00,0.0414
3403.00,0.0415
3400.00,0.0415
3397.00,0.0414
3394.00,0.0411
3391.00,0.0407
3388.00,0.0403
3385.00,0.0397
3382.00,0.0391
3379.00,0.0385
3376.00,0.0379
3373.00,0.0373
3370.00,0.0366
3367.00,0.0361
3364.00,0.0358
3361.00,0.0352
3358.00,0.0348
3355.00,0.0345
3352.00,0.0340
3349.00,0.0338
3346.00,0.0336
3343.00,0.0332
3340.00,0.0330
3337.00,0.0329
3334.00,0.0329
3331.00,0.0328
3328.00,0.0327
3325.00,0.0326
3322.00,0.0328
3319.00,0.0329
3316.00,0.0329
3313.00,0.0329
3310.00,0.0327
3307.00,0.0326
3304.00,0.0330
3301.00,0.0335
3298.00,0.0335
3295.00,0.0335
3292.00,0.0338
3289.00,0.0342
3286.00,0.0345
3283.00,0.0347
3280.00,0.0349
3277.00,0.0349
3274.00,0.0348
3271.00,0.0350
3268.00,0.0354
3265.00,0.0356
3262.00,0.0358
3259.00,0.0359
3256.00,0.0361
3253.00,0.0363
3250.00,0.0362
3247.00,0.0362
3244.00,0.0365
3241.00,0.0365
3238.00,0.0364
3235.00,0.0362
3232.00,0.0361
3229.00,0.0361
3226.00,0.0359
3223.00,0.0357
3220.00,0.0354
3217.00,0.0351
3214.00,0.0347
3211.00,0.0343
3208.00,0.0339
3205.00,0.0334
3202.00,0.0329
3199.00,0.0324
3196.00,0.0318
3193.00,0.0313
3190.00,0.0308
3187.00,0.0302
3184.00,0.0297
3181.00,0.0292
3178.00,0.0287
3175.00,0.0282
3172.00,0.0277
3169.00,0.0271
3166.00,0.0266
3163.00,0.0261
3160.00,0.0255
3157.00,0.0250
3154.00,0.0244
3151.00,0.0240
3148.00,0.0236
3145.00,0.0232
3142.00,0.0227
3139.00,0.0224
3136.00,0.0221
3133.00,0.0217
3130.00,0.0213
3127.00,0.0211
3124.00,0.0209
3121.00,0.0206
3118.00,0.0204
3115.00,0.0201
3112.00,0.0198
3109.00,0.0194
3106.00,0.0192
3103.00,0.0189
3100.00,0.0187
3097.00,0.0186
3094.00,0.0186
3091.00,0.0186
3088.00,0.0186
3085.00,0.0186
3082.00,0.0185
3079.00,0.0184
3076.00,0.0182
3073.00,0.0180
3070.00,0.0179
3067.00,0.0179
3064.00,0.0179
3061.00,0.0179
3058.00,0.0180
3055.00,0.0179
3052.00,0.0179
3049.00,0.0178
3046.00,0.0178
3043.00,0.0178
3040.00,0.0179
3037.00,0.0182
3034.00,0.0184
3031.00,0.0185
3028.00,0.0183
3025.00,0.0180
3022.00,0.0178
3019.00,0.0177
3016.00,0.0177
3013.00,0.0179
3010.00,0.0183
3007.00,0.0190
3004.00,0.0199
3001.00,0.0213
2998.00,0.0230
2995.00,0.0251
2992.00,0.0269
2989.00,0.0283
2986.00,0.0301
2983.00,0.0327
2980.00,0.0359
2977.00,0.0376
2974.00,0.0398
2971.00,0.0436
2968.00,0.0460
2965.00,0.0479
2962.00,0.0504
2959.00,0.0514
2956.00,0.0494
2953.00,0.0466
2950.00,0.0447
2947.00,0.0444
2944.00,0.0455
2941.00,0.0477
2938.00,0.0513
2935.00,0.0570
2932.00,0.0639
2929.00,0.0698
2926.00,0.0717
2923.00,0.0693
2920.00,0.0648
2917.00,0.0598
2914.00,0.0549
2911.00,0.0509
2908.00,0.0477
2905.00,0.0452
2902.00,0.0432
2899.00,0.0415
2896.00,0.0402
2893.00,0.0392
2890.00,0.0384
2887.00,0.0376
2884.00,0.0371
2881.00,0.0373
2878.00,0.0386
2875.00,0.0405
2872.00,0.0415
2869.00,0.0411
2866.00,0.0410
2863.00,0.0434
2860.00,0.0482
2857.00,0.0519
2854.00,0.0520
2851.00,0.0492
2848.00,0.0433
2845.00,0.0373
2842.00,0.0327
2839.00,0.0295
2836.00,0.0274
2833.00,0.0258
2830.00,0.0246
2827.00,0.0235
2824.00,0.0225
2821.00,0.0217
2818.00,0.0211
2815.00,0.0206
2812.00,0.0201
2809.00,0.0197
2806.00,0.0194
2803.00,0.0192
2800.00,0.0189
2797.00,0.0186
2794.00,0.0184
2791.00,0.0181
2788.00,0.0180
2785.00,0.0178
2782.00,0.0176
2779.00,0.0174
2776.00,0.0172
2773.00,0.0172
2770.00,0.0171
2767.00,0.0170
2764.00,0.0169
2761.00,0.0169
2758.00,0.0168
2755.00,0.0168
2752.00,0.0168
2749.00,0.0168
2746.00,0.0169
2743.00,0.0169
2740.00,0.0170
2737.00,0.0171
2734.00,0.0173
2731.00,0.0174
2728.00,0.0174
2725.00,0.0172
2722.00,0.0171
2719.00,0.0170
2716.00,0.0169
2713.00,0.0168
2710.00,0.0168
2707.00,0.0167
2704.00,0.0166
2701.00,0.0166
2698.00,0.0165
2695.00,0.0164
2692.00,0.0163
2689.00,0.0162
2686.00,0.0161
2683.00,0.0160
2680.00,0.0160
2677.00,0.0160
2674.00,0.0160
2671.00,0.0161
2668.00,0.0162
2665.00,0.0164
2662.00,0.0165
2659.00,0.0166
2656.00,0.0167
2653.00,0.0167
2650.00,0.0167
2647.00,0.0167
2644.00,0.0166
2641.00,0.0166
2638.00,0.0165
2635.00,0.0163
2632.00,0.0161
2629.00,0.0160
2626.00,0.0159
2623.00,0.0159
2620.00,0.0158
2617.00,0.0157
2614.00,0.0157
2611.00,0.0156
2608.00,0.0156
2605.00,0.0156
2602.00,0.0158
2599.00,0.0158
2596.00,0.0158
2593.00,0.0159
2590.00,0.0159
2587.00,0.0158
2584.00,0.0159
2581.00,0.0158
2578.00,0.0157
2575.00,0.0156
2572.00,0.0156
2569.00,0.0157
2566.00,0.0157
2563.00,0.0156
2560.00,0.0155
2557.00,0.0154
2554.00,0.0152
2551.00,0.0152
2548.00,0.0152
2545.00,0.0151
2542.00,0.0152
2539.00,0.0151
2536.00,0.0151
2533.00,0.0151
2530.00,0.0149
2527.00,0.0149
2524.00,0.0148
2521.00,0.0148
2518.00,0.0147
2515.00,0.0146
2512.00,0.0146
2509.00,0.0145
2506.00,0.0145
2503.00,0.0145
2500.00,0.0144
2497.00,0.0144
2494.00,0.0143
2491.00,0.0143
2488.00,0.0142
2485.00,0.0142
2482.00,0.0142
2479.00,0.0142
2476.00,0.0141
2473.00,0.0141
2470.00,0.0140
2467.00,0.0140
2464.00,0.0141
2461.00,0.0141
2458.00,0.0142
2455.00,0.0142
2452.00,0.0142
2449.00,0.0141
2446.00,0.0140
2443.00,0.0140
2440.00,0.0139
2437.00,0.0138
2434.00,0.0139
2431.00,0.0139
2428.00,0.0139
2425.00,0.0138
2422.00,0.0137
2419.00,0.0138
2416.00,0.0139
2413.00,0.0139
2410.00,0.0139
2407.00,0.0137
2404.00,0.0137
2401.00,0.0137
2398.00,0.0137
2395.00,0.0137
2392.00,0.0137
2389.00,0.0136
2386.00,0.0135
2383.00,0.0133
2380.00,0.0132
2377.00,0.0132
2374.00,0.0133
2371.00,0.0133
2368.00,0.0132
2365.00,0.0132
2362.00,0.0132
2359.00,0.0133
2356.00,0.0134
2353.00,0.0135
2350.00,0.0134
2347.00,0.0135
2344.00,0.0134
2341.00,0.0136
2338.00,0.0138
2335.00,0.0139
2332.00,0.0138
2329.00,0.0140
2326.00,0.0152
2323.00,0.0150
2320.00,0.0145
2317.00,0.0143
2314.00,0.0141
2311.00,0.0139
2308.00,0.0137
2305.00,0.0138
2302.00,0.0139
2299.00,0.0140
2296.00,0.0142
2293.00,0.0145
2290.00,0.0147
2287.00,0.0148
2284.00,0.0146
2281.00,0.0144
2278.00,0.0142
2275.00,0.0141
2272.00,0.0139
2269.00,0.0138
2266.00,0.0136
2263.00,0.0135
2260.00,0.0136
2257.00,0.0135
2254.00,0.0133
2251.00,0.0135
2248.00,0.0135
2245.00,0.0135
2242.00,0.0137
2239.00,0.0137
2236.00,0.0134
2233.00,0.0135
2230.00,0.0136
2227.00,0.0137
2224.00,0.0136
2221.00,0.0133
2218.00,0.0134
2215.00,0.0137
2212.00,0.0137
2209.00,0.0136
2206.00,0.0135
2203.00,0.0136
2200.00,0.0135
2197.00,0.0134
2194.00,0.0134
2191.00,0.0138
2188.00,0.0141
2185.00,0.0137
2182.00,0.0132
2179.00,0.0134
2176.00,0.0131
2173.00,0.0133
2170.00,0.0141
2167.00,0.0143
2164.00,0.0145
2161.00,0.0129
2158.00,0.0101
2155.00,0.0107
2152.00,0.0109
2149.00,0.0111
2146.00,0.0112
2143.00,0.0115
2140.00,0.0117
2137.00,0.0113
2134.00,0.0109
2131.00,0.0115
2128.00,0.0120
2125.00,0.0122
2122.00,0.0126
2119.00,0.0128
2116.00,0.0132
2113.00,0.0131
2110.00,0.0129
2107.00,0.0127
2104.00,0.0127
2101.00,0.0127
2098.00,0.0126
2095.00,0.0124
2092.00,0.0125
2089.00,0.0129
2086.00,0.0130
2083.00,0.0130
2080.00,0.0132
2077.00,0.0130
2074.00,0.0130
2071.00,0.0129
2068.00,0.0128
2065.00,0.0126
2062.00,0.0124
2059.00,0.0126
2056.00,0.0125
2053.00,0.0130
2050.00,0.0129
2047.00,0.0122
2044.00,0.0122
2041.00,0.0124
2038.00,0.0125
2035.00,0.0121
2032.00,0.0115
2029.00,0.0115
2026.00,0.0115
2023.00,0.0118
2020.00,0.0120
2017.00,0.0120
2014.00,0.0118
2011.00,0.0115
2008.00,0.0107
2005.00,0.0103
2002.00,0.0111
1999.00,0.0113
1996.00,0.0114
1993.00,0.0119
1990.00,0.0121
1987.00,0.0121
1984.00,0.0128
1981.00,0.0130
1978.00,0.0109
1975.00,0.0103
1972.00,0.0109
1969.00,0.0110
1966.00,0.0111
1963.00,0.0111
1960.00,0.0108
1957.00,0.0108
1954.00,0.0110
1951.00,0.0114
1948.00,0.0114
1945.00,0.0116
1942.00,0.0115
1939.00,0.0112
1936.00,0.0112
1933.00,0.0113
1930.00,0.0114
1927.00,0.0115
1924.00,0.0117
1921.00,0.0118
1918.00,0.0117
1915.00,0.0118
1912.00,0.0123
1909.00,0.0130
1906.00,0.0127
1903.00,0.0121
1900.00,0.0120
1897.00,0.0122
1894.00,0.0124
1891.00,0.0124
1888.00,0.0119
1885.00,0.0118
1882.00,0.0117
1879.00,0.0117
1876.00,0.0117
1873.00,0.0118
1870.00,0.0120
1867.00,0.0120
1864.00,0.0120
1861.00,0.0119
1858.00,0.0118
1855.00,0.0118
1852.00,0.0120
1849.00,0.0124
1846.00,0.0124
1843.00,0.0120
1840.00,0.0120
1837.00,0.0119
1834.00,0.0118
1831.00,0.0119
1828.00,0.0118
1825.00,0.0118
1822.00,0.0118
1819.00,0.0116
1816.00,0.0114
1813.00,0.0118
1810.00,0.0119
1807.00,0.0118
1804.00,0.0119
1801.00,0.0121
1798.00,0.0121
1795.00,0.0124
1792.00,0.0121
1789.00,0.0119
1786.00,0.0121
1783.00,0.0121
1780.00,0.0124
1777.00,0.0125
1774.00,0.0128
1771.00,0.0124
1768.00,0.0125
1765.00,0.0124
1762.00,0.0126
1759.00,0.0129
1756.00,0.0128
1753.00,0.0131
1750.00,0.0135
1747.00,0.0138
1744.00,0.0141
1741.00,0.0135
1738.00,0.0136
1735.00,0.0140
1732.00,0.0147
1729.00,0.0154
1726.00,0.0159
1723.00,0.0168
1720.00,0.0173
1717.00,0.0186
1714.00,0.0196
1711.00,0.0214
1708.00,0.0233
1705.00,0.0263
1702.00,0.0287
1699.00,0.0355
1696.00,0.0436
1693.00,0.0522
1690.00,0.0617
1687.00,0.0709
1684.00,0.0830
1681.00,0.0942
1678.00,0.1021
1675.00,0.1110
1672.00,0.1190
1669.00,0.1270
1666.00,0.1332
1663.00,0.1383
1660.00,0.1442
1657.00,0.1465
1654.00,0.1467
1651.00,0.1506
1648.00,0.1466
1645.00,0.1414
1642.00,0.1342
1639.00,0.1248
1636.00,0.1145
1633.00,0.1084
1630.00,0.1078
1627.00,0.1155
1624.00,0.1218
1621.00,0.1223
1618.00,0.1108
1615.00,0.0966
1612.00,0.0925
1609.00,0.0881
1606.00,0.0773
1603.00,0.0659
1600.00,0.0572
1597.00,0.0523
1594.00,0.0514
1591.00,0.0558
1588.00,0.0645
1585.00,0.0707
1582.00,0.0705
1579.00,0.0656
1576.00,0.0580
1573.00,0.0520
1570.00,0.0482
1567.00,0.0453
1564.00,0.0405
1561.00,0.0353
1558.00,0.0305
1555.00,0.0301
1552.00,0.0293
1549.00,0.0286
1546.00,0.0274
1543.00,0.0270
1540.00,0.0257
1537.00,0.0253
1534.00,0.0250
1531.00,0.0246
1528.00,0.0248
1525.00,0.0248
1522.00,0.0253
1519.00,0.0261
1516.00,0.0281
1513.00,0.0297
1510.00,0.0319
1507.00,0.0337
1504.00,0.0362
1501.00,0.0422
1498.00,0.0544
1495.00,0.0631
1492.00,0.0579
1489.00,0.0491
1486.00,0.0407
1483.00,0.0356
1480.00,0.0330
1477.00,0.0329
1474.00,0.0361
1471.00,0.0470
1468.00,0.0627
1465.00,0.0776
1462.00,0.0844
1459.00,0.0844
1456.00,0.0763
1453.00,0.0691
1450.00,0.0674
1447.00,0.0727
1444.00,0.0828
1441.00,0.0947
1438.00,0.1030
1435.00,0.1129
1432.00,0.1184
1429.00,0.1241
1426.00,0.1293
1423.00,0.1337
1420.00,0.1294
1417.00,0.1153
1414.00,0.0979
1411.00,0.0849
1408.00,0.0799
1405.00,0.0826
1402.00,0.0863
1399.00,0.0850
1396.00,0.0771
1393.00,0.0666
1390.00,0.0617
1387.00,0.0653
1384.00,0.0645
1381.00,0.0649
1378.00,0.0674
1375.00,0.0656
1372.00,0.0610
1369.00,0.0624
1366.00,0.0681
1363.00,0.0699
1360.00,0.0739
1357.00,0.0668
1354.00,0.0590
1351.00,0.0564
1348.00,0.0563
1345.00,0.0550
1342.00,0.0517
1339.00,0.0482
1336.00,0.0463
1333.00,0.0483
1330.00,0.0517
1327.00,0.0541
1324.00,0.0560
1321.00,0.0588
1318.00,0.0604
1315.00,0.0589
1312.00,0.0565
1309.00,0.0565
1306.00,0.0612
1303.00,0.0722
1300.00,0.0829
1297.00,0.0908
1294.00,0.1048
1291.00,0.1194
1288.00,0.1322
1285.00,0.1417
1282.00,0.1405
1279.00,0.1303
1276.00,0.1230
1273.00,0.1214
1270.00,0.1187
1267.00,0.1122
1264.00,0.1023
1261.00,0.0912
1258.00,0.0813
1255.00,0.0741
1252.00,0.0698
1249.00,0.0694
1246.00,0.0729
1243.00,0.0769
1240.00,0.0802
1237.00,0.0871
1234.00,0.0942
1231.00,0.0931
1228.00,0.0865
1225.00,0.0807
1222.00,0.0774
1219.00,0.0775
1216.00,0.0796
1213.00,0.0786
1210.00,0.0716
1207.00,0.0650
1204.00,0.0636
1201.00,0.0682
1198.00,0.0766
1195.00,0.0844
1192.00,0.0822
1189.00,0.0725
1186.00,0.0624
1183.00,0.0559
1180.00,0.0528
1177.00,0.0520
1174.00,0.0523
1171.00,0.0529
1168.00,0.0532
1165.00,0.0534
1162.00,0.0550
1159.00,0.0628
1156.00,0.0767
1153.00,0.0765
1150.00,0.0595
1147.00,0.0482
1144.00,0.0441
1141.00,0.0428
1138.00,0.0438
1135.00,0.0501
1132.00,0.0663
1129.00,0.0827
1126.00,0.0816
1123.00,0.0697
1120.00,0.0576
1117.00,0.0522
1114.00,0.0511
1111.00,0.0490
1108.00,0.0471
1105.00,0.0493
1102.00,0.0589
1099.00,0.0656
1096.00,0.0579
1093.00,0.0479
1090.00,0.0431
1087.00,0.0412
1084.00,0.0404
1081.00,0.0406
1078.00,0.0416
1075.00,0.0427
1072.00,0.0437
1069.00,0.0451
1066.00,0.0473
1063.00,0.0520
1060.00,0.0634
1057.00,0.0839
1054.00,0.1011
1051.00,0.1058
1048.00,0.1028
1045.00,0.0899
1042.00,0.0739
1039.00,0.0641
1036.00,0.0628
1033.00,0.0661
1030.00,0.0790
1027.00,0.0964
1024.00,0.0914
1021.00,0.0746
1018.00,0.0632
1015.00,0.0556
1012.00,0.0506
1009.00,0.0509
1006.00,0.0574
1003.00,0.0630
1000.00,0.0609
997.00,0.0565
994.00,0.0529
991.00,0.0485
988.00,0.0436
985.00,0.0405
982.00,0.0386
979.00,0.0378
976.00,0.0375
973.00,0.0370
970.00,0.0364
967.00,0.0361
964.00,0.0366
961.00,0.0368
958.00,0.0341
955.00,0.0320
952.00,0.0309
949.00,0.0318
946.00,0.0321
943.00,0.0328
940.00,0.0355
937.00,0.0384
934.00,0.0410
931.00,0.0411
928.00,0.0389
925.00,0.0393
922.00,0.0415
919.00,0.0393
916.00,0.0345
913.00,0.0321
910.00,0.0313
907.00,0.0319
904.00,0.0347
901.00,0.0410
898.00,0.0440
895.00,0.0405
892.00,0.0417
889.00,0.0435
886.00,0.0367
883.00,0.0341
880.00,0.0352
877.00,0.0412
874.00,0.0539
871.00,0.0680
868.00,0.0688
865.00,0.0598
862.00,0.0517
859.00,0.0474
856.00,0.0521
853.00,0.0616
850.00,0.0717
847.00,0.0728
844.00,0.0650
841.00,0.0604
838.00,0.0630
835.00,0.0713
832.00,0.0719
829.00,0.0613
826.00,0.0500
823.00,0.0552
820.00,0.0750
817.00,0.0820
814.00,0.0777
811.00,0.0528
808.00,0.0423
805.00,0.0383
802.00,0.0366
799.00,0.0357
796.00,0.0353
793.00,0.0350
790.00,0.0349
787.00,0.0348
784.00,0.0349
781.00,0.0354
778.00,0.0372
775.00,0.0419
772.00,0.0414
769.00,0.0392
766.00,0.0396
763.00,0.0418
760.00,0.0450
757.00,0.0462
754.00,0.0463
751.00,0.0475
748.00,0.0492
745.00,0.0515
742.00,0.0545
739.00,0.0608
736.00,0.0726
733.00,0.0754
730.00,0.0730
727.00,0.0707
724.00,0.0613
721.00,0.0562
718.00,0.0575
715.00,0.0612
712.00,0.0599
709.00,0.0570
706.00,0.0565
703.00,0.0585
700.00,0.0615
697.00,0.0631
694.00,0.0620
691.00,0.0639
688.00,0.0690
685.00,0.0681
682.00,0.0673
679.00,0.0693
676.00,0.0734
673.00,0.0793
670.00,0.0830
667.00,0.0846
664.00,0.0857
661.00,0.0898
658.00,0.0903
655.00,0.0903
652.00,0.0919
649.00,0.0931
646.00,0.0931
643.00,0.0916
640.00,0.0894
637.00,0.0874
634.00,0.0855
631.00,0.0842
628.00,0.0837
625.00,0.0848
622.00,0.0877
619.00,0.0893
616.00,0.0861
613.00,0.0820
610.00,0.0821
607.00,0.0884
604.00,0.0967
601.00,0.1006
598.00,0.1015
595.00,0.1019
592.00,0.1020
589.00,0.1018
586.00,0.1028
583.00,0.1057
580.00,0.1111
577.00,0.1201
574.00,0.1207
571.00,0.1148
568.00,0.1106
565.00,0.1103
562.00,0.1134
559.00,0.1155
556.00,0.1108
553.00,0.1065
550.00,0.1083
547.00,0.1138
544.00,0.1132
541.00,0.1076
538.00,0.1039
535.00,0.1046
532.00,0.1097
529.00,0.1094
526.00,0.1032
523.00,0.0983
520.00,0.0959
517.00,0.0947
514.00,0.0939
511.00,0.0941
508.00,0.0951
505.00,0.0960
502.00,0.0946
499.00,0.0926
496.00,0.0927
493.00,0.0957
490.00,0.0968
487.00,0.0952
484.00,0.0937
481.00,0.0934
478.00,0.0933
475.00,0.0937
472.00,0.0943
469.00,0.0937
466.00,0.0916
463.00,0.0913
460.00,0.0916
457.00,0.0911
454.00,0.0900
451.00,0.0884
448.00,0.0873
445.00,0.0858
442.00,0.0862
439.00,0.0865
436.00,0.0839
433.00,0.0823
430.00,0.0814
427.00,0.0798
424.00,0.0782
421.00,0.0787
418.00,0.0789
415.00,0.0801
412.00,0.0816
409.00,0.0804
406.00,0.0787
403.00,0.0774
400.00,0.0776