File: FTIR/Olivia/2025_08_07_Polystyrene_film_scan2.csv
Created as New Dataset,Sample 013 By YargerLab Date Thursday, August 07 2025
cm-1,A
4000.00,0.0007
3997.00,0.0007
3994.00,0.0007
3991.00,0.0006
3988.00,0.0006
3985.00,0.0006
3982.00,0.0006
3979.00,0.0006
3976.00,0.0007
3973.00,0.0006
3970.00,0.0006
3967.00,0.0006
3964.00,0.0007
3961.00,0.0007
3958.00,0.0006
3955.00,0.0006
3952.00,0.0007
3949.00,0.0007
3946.00,0.0006
3943.00,0.0006
3940.00,0.0006
3937.00,0.0007
3934.00,0.0007
3931.00,0.0007
3928.00,0.0007
3925.00,0.0007
3922.00,0.0006
3919.00,0.0007
3916.00,0.0007
3913.00,0.0007
3910.00,0.0006
3907.00,0.0007
3904.00,0.0008
3901.00,0.0008
3898.00,0.0007
3895.00,0.0007
3892.00,0.0007
3889.00,0.0008
3886.00,0.0008
3883.00,0.0007
3880.00,0.0007
3877.00,0.0007
3874.00,0.0007
3871.00,0.0008
3868.00,0.0009
3865.00,0.0008
3862.00,0.0008
3859.00,0.0008
3856.00,0.0009
3853.00,0.0010
3850.00,0.0010
3847.00,0.0008
3844.00,0.0007
3841.00,0.0008
3838.00,0.0009
3835.00,0.0009
3832.00,0.0009
3829.00,0.0009
3826.00,0.0008
3823.00,0.0008
3820.00,0.0009
3817.00,0.0010
3814.00,0.0009
3811.00,0.0009
3808.00,0.0009
3805.00,0.0009
3802.00,0.0010
3799.00,0.0010
3796.00,0.0009
3793.00,0.0008
3790.00,0.0008
3787.00,0.0008
3784.00,0.0008
3781.00,0.0008
3778.00,0.0008
3775.00,0.0008
3772.00,0.0009
3769.00,0.0009
3766.00,0.0008
3763.00,0.0009
3760.00,0.0009
3757.00,0.0009
3754.00,0.0010
3751.00,0.0011
3748.00,0.0011
3745.00,0.0011
3742.00,0.0010
3739.00,0.0010
3736.00,0.0010
3733.00,0.0010
3730.00,0.0010
3727.00,0.0009
3724.00,0.0008
3721.00,0.0007
3718.00,0.0007
3715.00,0.0008
3712.00,0.0009
3709.00,0.0009
3706.00,0.0008
3703.00,0.0008
3700.00,0.0007
3697.00,0.0007
3694.00,0.0008
3691.00,0.0009
3688.00,0.0009
3685.00,0.0008
3682.00,0.0007
3679.00,0.0008
3676.00,0.0009
3673.00,0.0010
3670.00,0.0009
3667.00,0.0009
3664.00,0.0008
3661.00,0.0007
3658.00,0.0008
3655.00,0.0008
3652.00,0.0009
3649.00,0.0009
3646.00,0.0009
3643.00,0.0008
3640.00,0.0007
3637.00,0.0007
3634.00,0.0007
3631.00,0.0007
3628.00,0.0007
3625.00,0.0008
3622.00,0.0007
3619.00,0.0007
3616.00,0.0008
3613.00,0.0007
3610.00,0.0007
3607.00,0.0006
3604.00,0.0006
3601.00,0.0006
3598.00,0.0006
3595.00,0.0005
3592.00,0.0005
3589.00,0.0006
3586.00,0.0006
3583.00,0.0006
3580.00,0.0006
3577.00,0.0006
3574.00,0.0006
3571.00,0.0006
3568.00,0.0007
3565.00,0.0007
3562.00,0.0006
3559.00,0.0006
3556.00,0.0006
3553.00,0.0006
3550.00,0.0006
3547.00,0.0007
3544.00,0.0006
3541.00,0.0007
3538.00,0.0008
3535.00,0.0008
3532.00,0.0007
3529.00,0.0008
3526.00,0.0008
3523.00,0.0008
3520.00,0.0008
3517.00,0.0008
3514.00,0.0008
3511.00,0.0008
3508.00,0.0009
3505.00,0.0009
3502.00,0.0008
3499.00,0.0008
3496.00,0.0008
3493.00,0.0008
3490.00,0.0008
3487.00,0.0008
3484.00,0.0008
3481.00,0.0008
3478.00,0.0008
3475.00,0.0008
3472.00,0.0009
3469.00,0.0008
3466.00,0.0008
3463.00,0.0008
3460.00,0.0008
3457.00,0.0008
3454.00,0.0008
3451.00,0.0008
3448.00,0.0008
3445.00,0.0009
3442.00,0.0008
3439.00,0.0009
3436.00,0.0008
3433.00,0.0008
3430.00,0.0009
3427.00,0.0009
3424.00,0.0008
3421.00,0.0009
3418.00,0.0008
3415.00,0.0008
3412.00,0.0009
3409.00,0.0008
3406.00,0.0008
3403.00,0.0008
3400.00,0.0009
3397.00,0.0008
3394.00,0.0008
3391.00,0.0009
3388.00,0.0009
3385.00,0.0008
3382.00,0.0008
3379.00,0.0008
3376.00,0.0008
3373.00,0.0009
3370.00,0.0009
3367.00,0.0009
3364.00,0.0008
3361.00,0.0008
3358.00,0.0009
3355.00,0.0009
3352.00,0.0009
3349.00,0.0008
3346.00,0.0008
3343.00,0.0009
3340.00,0.0009
3337.00,0.0009
3334.00,0.0008
3331.00,0.0008
3328.00,0.0008
3325.00,0.0008
3322.00,0.0008
3319.00,0.0008
3316.00,0.0009
3313.00,0.0008
3310.00,0.0008
3307.00,0.0008
3304.00,0.0008
3301.00,0.0008
3298.00,0.0008
3295.00,0.0008
3292.00,0.0008
3289.00,0.0008
3286.00,0.0008
3283.00,0.0008
3280.00,0.0008
3277.00,0.0008
3274.00,0.0008
3271.00,0.0009
3268.00,0.0009
3265.00,0.0008
3262.00,0.0008
3259.00,0.0009
3256.00,0.0008
3253.00,0.0008
3250.00,0.0008
3247.00,0.0007
3244.00,0.0008
3241.00,0.0008
3238.00,0.0008
3235.00,0.0008
3232.00,0.0008
3229.00,0.0008
3226.00,0.0007
3223.00,0.0008
3220.00,0.0008
3217.00,0.0007
3214.00,0.0007
3211.00,0.0008
3208.00,0.0008
3205.00,0.0008
3202.00,0.0008
3199.00,0.0008
3196.00,0.0007
3193.00,0.0007
3190.00,0.0007
3187.00,0.0007
3184.00,0.0007
3181.00,0.0007
3178.00,0.0007
3175.00,0.0007
3172.00,0.0007
3169.00,0.0007
3166.00,0.0008
3163.00,0.0007
3160.00,0.0008
3157.00,0.0008
3154.00,0.0007
3151.00,0.0007
3148.00,0.0007
3145.00,0.0007
3142.00,0.0006
3139.00,0.0007
3136.00,0.0007
3133.00,0.0007
3130.00,0.0007
3127.00,0.0007
3124.00,0.0007
3121.00,0.0008
3118.00,0.0009
3115.00,0.0010
3112.00,0.0013
3109.00,0.0016
3106.00,0.0020
3103.00,0.0021
3100.00,0.0020
3097.00,0.0020
3094.00,0.0023
3091.00,0.0030
3088.00,0.0041
3085.00,0.0050
3082.00,0.0052
3079.00,0.0046
3076.00,0.0041
3073.00,0.0040
3070.00,0.0044
3067.00,0.0053
3064.00,0.0064
3061.00,0.0071
3058.00,0.0069
3055.00,0.0059
3052.00,0.0049
3049.00,0.0042
3046.00,0.0039
3043.00,0.0041
3040.00,0.0048
3037.00,0.0060
3034.00,0.0079
3031.00,0.0104
3028.00,0.0128
3025.00,0.0134
3022.00,0.0114
3019.00,0.0082
3016.00,0.0057
3013.00,0.0043
3010.00,0.0038
3007.00,0.0039
3004.00,0.0042
3001.00,0.0041
2998.00,0.0035
2995.00,0.0028
2992.00,0.0024
2989.00,0.0022
2986.00,0.0021
2983.00,0.0021
2980.00,0.0021
2977.00,0.0022
2974.00,0.0022
2971.00,0.0024
2968.00,0.0026
2965.00,0.0029
2962.00,0.0032
2959.00,0.0037
2956.00,0.0042
2953.00,0.0048
2950.00,0.0056
2947.00,0.0065
2944.00,0.0077
2941.00,0.0090
2938.00,0.0104
2935.00,0.0120
2932.00,0.0136
2929.00,0.0150
2926.00,0.0160
2923.00,0.0165
2920.00,0.0165
2917.00,0.0160
2914.00,0.0152
2911.00,0.0142
2908.00,0.0130
2905.00,0.0118
2902.00,0.0106
2899.00,0.0094
2896.00,0.0084
2893.00,0.0076
2890.00,0.0070
2887.00,0.0065
2884.00,0.0061
2881.00,0.0057
2878.00,0.0053
2875.00,0.0051
2872.00,0.0049
2869.00,0.0048
2866.00,0.0049
2863.00,0.0053
2860.00,0.0059
2857.00,0.0066
2854.00,0.0072
2851.00,0.0076
2848.00,0.0076
2845.00,0.0069
2842.00,0.0058
2839.00,0.0046
2836.00,0.0035
2833.00,0.0028
2830.00,0.0024
2827.00,0.0021
2824.00,0.0019
2821.00,0.0018
2818.00,0.0018
2815.00,0.0017
2812.00,0.0017
2809.00,0.0017
2806.00,0.0016
2803.00,0.0015
2800.00,0.0015
2797.00,0.0014
2794.00,0.0014
2791.00,0.0014
2788.00,0.0014
2785.00,0.0014
2782.00,0.0013
2779.00,0.0013
2776.00,0.0013
2773.00,0.0012
2770.00,0.0012
2767.00,0.0012
2764.00,0.0012
2761.00,0.0011
2758.00,0.0011
2755.00,0.0011
2752.00,0.0011
2749.00,0.0011
2746.00,0.0011
2743.00,0.0011
2740.00,0.0011
2737.00,0.0011
2734.00,0.0011
2731.00,0.0011
2728.00,0.0011
2725.00,0.0011
2722.00,0.0011
2719.00,0.0011
2716.00,0.0011
2713.00,0.0011
2710.00,0.0011
2707.00,0.0011
2704.00,0.0011
2701.00,0.0011
2698.00,0.0011
2695.00,0.0011
2692.00,0.0011
2689.00,0.0011
2686.00,0.0011
2683.00,0.0011
2680.00,0.0011
2677.00,0.0011
2674.00,0.0011
2671.00,0.0011
2668.00,0.0012
2665.00,0.0013
2662.00,0.0014
2659.00,0.0015
2656.00,0.0016
2653.00,0.0017
2650.00,0.0016
2647.00,0.0017
2644.00,0.0017
2641.00,0.0017
2638.00,0.0017
2635.00,0.0018
2632.00,0.0018
2629.00,0.0017
2626.00,0.0016
2623.00,0.0016
2620.00,0.0015
2617.00,0.0015
2614.00,0.0015
2611.00,0.0015
2608.00,0.0016
2605.00,0.0015
2602.00,0.0015
2599.00,0.0013
2596.00,0.0013
2593.00,0.0012
2590.00,0.0012
2587.00,0.0012
2584.00,0.0012
2581.00,0.0012
2578.00,0.0012
2575.00,0.0011
2572.00,0.0011
2569.00,0.0010
2566.00,0.0010
2563.00,0.0010
2560.00,0.0010
2557.00,0.0009
2554.00,0.0010
2551.00,0.0010
2548.00,0.0010
2545.00,0.0009
2542.00,0.0009
2539.00,0.0009
2536.00,0.0008
2533.00,0.0009
2530.00,0.0008
2527.00,0.0008
2524.00,0.0008
2521.00,0.0009
2518.00,0.0008
2515.00,0.0008
2512.00,0.0008
2509.00,0.0009
2506.00,0.0008
2503.00,0.0008
2500.00,0.0008
2497.00,0.0008
2494.00,0.0007
2491.00,0.0008
2488.00,0.0008
2485.00,0.0007
2482.00,0.0007
2479.00,0.0007
2476.00,0.0007
2473.00,0.0007
2470.00,0.0006
2467.00,0.0007
2464.00,0.0007
2461.00,0.0008
2458.00,0.0009
2455.00,0.0009
2452.00,0.0008
2449.00,0.0007
2446.00,0.0007
2443.00,0.0007
2440.00,0.0006
2437.00,0.0006
2434.00,0.0006
2431.00,0.0005
2428.00,0.0004
2425.00,0.0005
2422.00,0.0005
2419.00,0.0004
2416.00,0.0004
2413.00,0.0005
2410.00,0.0004
2407.00,0.0003
2404.00,0.0003
2401.00,0.0003
2398.00,0.0003
2395.00,0.0003
2392.00,0.0002
2389.00,0.0002
2386.00,0.0002
2383.00,0.0001
2380.00,0.0001
2377.00,0.0002
2374.00,0.0002
2371.00,0.0001
2368.00,0.0000
2365.00,0.0002
2362.00,0.0003
2359.00,0.0004
2356.00,0.0004
2353.00,0.0004
2350.00,0.0004
2347.00,0.0007
2344.00,0.0010
2341.00,0.0008
2338.00,0.0009
2335.00,0.0008
2332.00,0.0007
2329.00,0.0010
2326.00,0.0020
2323.00,0.0018
2320.00,0.0014
2317.00,0.0013
2314.00,0.0012
2311.00,0.0012
2308.00,0.0011
2305.00,0.0010
2302.00,0.0010
2299.00,0.0012
2296.00,0.0014
2293.00,0.0017
2290.00,0.0019
2287.00,0.0019
2284.00,0.0017
2281.00,0.0015
2278.00,0.0014
2275.00,0.0012
2272.00,0.0011
2269.00,0.0011
2266.00,0.0010
2263.00,0.0010
2260.00,0.0011
2257.00,0.0010
2254.00,0.0008
2251.00,0.0009
2248.00,0.0010
2245.00,0.0010
2242.00,0.0009
2239.00,0.0010
2236.00,0.0009
2233.00,0.0008
2230.00,0.0009
2227.00,0.0009
2224.00,0.0008
2221.00,0.0007
2218.00,0.0006
2215.00,0.0007
2212.00,0.0007
2209.00,0.0008
2206.00,0.0009
2203.00,0.0007
2200.00,0.0009
2197.00,0.0007
2194.00,0.0008
2191.00,0.0010
2188.00,0.0012
2185.00,0.0007
2182.00,0.0006
2179.00,0.0006
2176.00,0.0001
2173.00,0.0007
2170.00,0.0013
2167.00,0.0016
2164.00,0.0020
2161.00,0.0001
2158.00,-0.0033
2155.00,-0.0022
2152.00,-0.0015
2149.00,-0.0014
2146.00,-0.0014
2143.00,-0.0014
2140.00,-0.0013
2137.00,-0.0016
2134.00,-0.0020
2131.00,-0.0015
2128.00,-0.0009
2125.00,-0.0006
2122.00,-0.0003
2119.00,0.0001
2116.00,0.0004
2113.00,0.0003
2110.00,0.0004
2107.00,0.0003
2104.00,0.0002
2101.00,0.0002
2098.00,0.0000
2095.00,-0.0003
2092.00,0.0000
2089.00,0.0003
2086.00,0.0005
2083.00,0.0006
2080.00,0.0008
2077.00,0.0007
2074.00,0.0005
2071.00,0.0002
2068.00,0.0004
2065.00,0.0003
2062.00,0.0002
2059.00,0.0005
2056.00,0.0005
2053.00,0.0012
2050.00,0.0013
2047.00,0.0007
2044.00,0.0007
2041.00,0.0007
2038.00,0.0010
2035.00,0.0004
2032.00,-0.0001
2029.00,-0.0003
2026.00,-0.0002
2023.00,-0.0004
2020.00,-0.0005
2017.00,-0.0004
2014.00,0.0001
2011.00,0.0003
2008.00,-0.0006
2005.00,-0.0009
2002.00,-0.0003
1999.00,0.0000
1996.00,0.0002
1993.00,0.0005
1990.00,0.0005
1987.00,0.0009
1984.00,0.0012
1981.00,0.0017
1978.00,0.0002
1975.00,-0.0001
1972.00,-0.0001
1969.00,-0.0004
1966.00,0.0001
1963.00,0.0002
1960.00,0.0000
1957.00,0.0003
1954.00,0.0008
1951.00,0.0012
1948.00,0.0013
1945.00,0.0012
1942.00,0.0014
1939.00,0.0014
1936.00,0.0011
1933.00,0.0007
1930.00,0.0004
1927.00,0.0002
1924.00,0.0001
1921.00,0.0002
1918.00,0.0001
1915.00,0.0000
1912.00,0.0001
1909.00,0.0002
1906.00,0.0003
1903.00,0.0003
1900.00,0.0004
1897.00,0.0005
1894.00,0.0008
1891.00,0.0010
1888.00,0.0011
1885.00,0.0011
1882.00,0.0012
1879.00,0.0014
1876.00,0.0015
1873.00,0.0016
1870.00,0.0016
1867.00,0.0015
1864.00,0.0013
1861.00,0.0011
1858.00,0.0009
1855.00,0.0007
1852.00,0.0005
1849.00,0.0004
1846.00,0.0003
1843.00,0.0003
1840.00,0.0003
1837.00,0.0003
1834.00,0.0004
1831.00,0.0005
1828.00,0.0007
1825.00,0.0008
1822.00,0.0009
1819.00,0.0009
1816.00,0.0010
1813.00,0.0013
1810.00,0.0016
1807.00,0.0019
1804.00,0.0020
1801.00,0.0020
1798.00,0.0019
1795.00,0.0017
1792.00,0.0015
1789.00,0.0012
1786.00,0.0010
1783.00,0.0010
1780.00,0.0010
1777.00,0.0011
1774.00,0.0012
1771.00,0.0012
1768.00,0.0012
1765.00,0.0013
1762.00,0.0014
1759.00,0.0016
1756.00,0.0018
1753.00,0.0021
1750.00,0.0022
1747.00,0.0023
1744.00,0.0024
1741.00,0.0024
1738.00,0.0024
1735.00,0.0023
1732.00,0.0022
1729.00,0.0020
1726.00,0.0019
1723.00,0.0019
1720.00,0.0018
1717.00,0.0017
1714.00,0.0016
1711.00,0.0015
1708.00,0.0015
1705.00,0.0015
1702.00,0.0015
1699.00,0.0015
1696.00,0.0014
1693.00,0.0014
1690.00,0.0015
1687.00,0.0015
1684.00,0.0016
1681.00,0.0016
1678.00,0.0016
1675.00,0.0016
1672.00,0.0017
1669.00,0.0017
1666.00,0.0017
1663.00,0.0017
1660.00,0.0016
1657.00,0.0015
1654.00,0.0015
1651.00,0.0015
1648.00,0.0013
1645.00,0.0012
1642.00,0.0012
1639.00,0.0012
1636.00,0.0012
1633.00,0.0012
1630.00,0.0012
1627.00,0.0013
1624.00,0.0014
1621.00,0.0015
1618.00,0.0017
1615.00,0.0020
1612.00,0.0027
1609.00,0.0045
1606.00,0.0081
1603.00,0.0119
1600.00,0.0120
1597.00,0.0085
1594.00,0.0056
1591.00,0.0043
1588.00,0.0042
1585.00,0.0053
1582.00,0.0051
1579.00,0.0035
1576.00,0.0024
1573.00,0.0019
1570.00,0.0015
1567.00,0.0014
1564.00,0.0013
1561.00,0.0013
1558.00,0.0014
1555.00,0.0014
1552.00,0.0016
1549.00,0.0017
1546.00,0.0018
1543.00,0.0019
1540.00,0.0019
1537.00,0.0018
1534.00,0.0016
1531.00,0.0014
1528.00,0.0013
1525.00,0.0012
1522.00,0.0012
1519.00,0.0012
1516.00,0.0012
1513.00,0.0014
1510.00,0.0015
1507.00,0.0018
1504.00,0.0028
1501.00,0.0047
1498.00,0.0109
1495.00,0.0250
1492.00,0.0298
1489.00,0.0180
1486.00,0.0098
1483.00,0.0062
1480.00,0.0043
1477.00,0.0035
1474.00,0.0031
1471.00,0.0031
1468.00,0.0033
1465.00,0.0038
1462.00,0.0048
1459.00,0.0076
1456.00,0.0192
1453.00,0.0293
1450.00,0.0284
1447.00,0.0221
1444.00,0.0176
1441.00,0.0138
1438.00,0.0110
1435.00,0.0080
1432.00,0.0061
1429.00,0.0047
1426.00,0.0039
1423.00,0.0035
1420.00,0.0032
1417.00,0.0029
1414.00,0.0029
1411.00,0.0029
1408.00,0.0028
1405.00,0.0028
1402.00,0.0029
1399.00,0.0029
1396.00,0.0031
1393.00,0.0034
1390.00,0.0039
1387.00,0.0045
1384.00,0.0052
1381.00,0.0058
1378.00,0.0063
1375.00,0.0068
1372.00,0.0070
1369.00,0.0070
1366.00,0.0069
1363.00,0.0067
1360.00,0.0064
1357.00,0.0062
1354.00,0.0060
1351.00,0.0059
1348.00,0.0058
1345.00,0.0057
1342.00,0.0055
1339.00,0.0052
1336.00,0.0053
1333.00,0.0057
1330.00,0.0060
1327.00,0.0060
1324.00,0.0058
1321.00,0.0056
1318.00,0.0056
1315.00,0.0058
1312.00,0.0059
1309.00,0.0057
1306.00,0.0055
1303.00,0.0052
1300.00,0.0050
1297.00,0.0048
1294.00,0.0047
1291.00,0.0046
1288.00,0.0045
1285.00,0.0044
1282.00,0.0043
1279.00,0.0042
1276.00,0.0040
1273.00,0.0037
1270.00,0.0035
1267.00,0.0033
1264.00,0.0032
1261.00,0.0032
1258.00,0.0033
1255.00,0.0033
1252.00,0.0033
1249.00,0.0033
1246.00,0.0034
1243.00,0.0033
1240.00,0.0033
1237.00,0.0033
1234.00,0.0033
1231.00,0.0033
1228.00,0.0033
1225.00,0.0033
1222.00,0.0033
1219.00,0.0033
1216.00,0.0034
1213.00,0.0035
1210.00,0.0037
1207.00,0.0039
1204.00,0.0042
1201.00,0.0046
1198.00,0.0048
1195.00,0.0050
1192.00,0.0052
1189.00,0.0054
1186.00,0.0060
1183.00,0.0069
1180.00,0.0069
1177.00,0.0057
1174.00,0.0046
1171.00,0.0043
1168.00,0.0042
1165.00,0.0043
1162.00,0.0047
1159.00,0.0059
1156.00,0.0071
1153.00,0.0070
1150.00,0.0053
1147.00,0.0041
1144.00,0.0035
1141.00,0.0032
1138.00,0.0030
1135.00,0.0029
1132.00,0.0029
1129.00,0.0030
1126.00,0.0030
1123.00,0.0031
1120.00,0.0034
1117.00,0.0037
1114.00,0.0039
1111.00,0.0040
1108.00,0.0040
1105.00,0.0040
1102.00,0.0041
1099.00,0.0042
1096.00,0.0045
1093.00,0.0048
1090.00,0.0050
1087.00,0.0054
1084.00,0.0059
1081.00,0.0066
1078.00,0.0073
1075.00,0.0083
1072.00,0.0093
1069.00,0.0097
1066.00,0.0093
1063.00,0.0083
1060.00,0.0074
1057.00,0.0067
1054.00,0.0061
1051.00,0.0055
1048.00,0.0051
1045.00,0.0049
1042.00,0.0049
1039.00,0.0056
1036.00,0.0077
1033.00,0.0116
1030.00,0.0152
1027.00,0.0155
1024.00,0.0127
1021.00,0.0103
1018.00,0.0088
1015.00,0.0078
1012.00,0.0071
1009.00,0.0068
1006.00,0.0071
1003.00,0.0073
1000.00,0.0064
997.00,0.0055
994.00,0.0054
991.00,0.0055
988.00,0.0057
985.00,0.0062
982.00,0.0067
979.00,0.0068
976.00,0.0065
973.00,0.0062
970.00,0.0065
967.00,0.0070
964.00,0.0072
961.00,0.0068
958.00,0.0060
955.00,0.0054
952.00,0.0052
949.00,0.0052
946.00,0.0054
943.00,0.0056
940.00,0.0054
937.00,0.0049
934.00,0.0044
931.00,0.0041
928.00,0.0040
925.00,0.0041
922.00,0.0044
919.00,0.0049
916.00,0.0059
913.00,0.0076
910.00,0.0094
907.00,0.0105
904.00,0.0101
901.00,0.0081
898.00,0.0061
895.00,0.0048
892.00,0.0041
889.00,0.0037
886.00,0.0034
883.00,0.0032
880.00,0.0031
877.00,0.0029
874.00,0.0027
871.00,0.0027
868.00,0.0027
865.00,0.0026
862.00,0.0026
859.00,0.0026
856.00,0.0028
853.00,0.0031
850.00,0.0038
847.00,0.0046
844.00,0.0054
841.00,0.0056
838.00,0.0050
835.00,0.0039
832.00,0.0030
829.00,0.0026
826.00,0.0024
823.00,0.0023
820.00,0.0023
817.00,0.0023
814.00,0.0023
811.00,0.0023
808.00,0.0024
805.00,0.0025
802.00,0.0026
799.00,0.0029
796.00,0.0033
793.00,0.0040
790.00,0.0048
787.00,0.0057
784.00,0.0069
781.00,0.0086
778.00,0.0109
775.00,0.0143
772.00,0.0184
769.00,0.0231
766.00,0.0277
763.00,0.0323
760.00,0.0370
757.00,0.0404
754.00,0.0415
751.00,0.0413
748.00,0.0405
745.00,0.0374
742.00,0.0306
739.00,0.0236
736.00,0.0175
733.00,0.0121
730.00,0.0083
727.00,0.0062
724.00,0.0052
721.00,0.0049
718.00,0.0053
715.00,0.0067
712.00,0.0106
709.00,0.0190
706.00,0.0336
703.00,0.0534
700.00,0.0758
697.00,0.0961
694.00,0.0999
691.00,0.0767
688.00,0.0512
685.00,0.0366
682.00,0.0286
679.00,0.0237
676.00,0.0205
673.00,0.0184
670.00,0.0168
667.00,0.0151
664.00,0.0137
661.00,0.0123
658.00,0.0110
655.00,0.0099
652.00,0.0091
649.00,0.0082
646.00,0.0078
643.00,0.0074
640.00,0.0074
637.00,0.0076
634.00,0.0082
631.00,0.0086
628.00,0.0089
625.00,0.0092
622.00,0.0098
619.00,0.0094
616.00,0.0088
613.00,0.0082
610.00,0.0077
607.00,0.0079
604.00,0.0077
601.00,0.0079
598.00,0.0082
595.00,0.0085
592.00,0.0087
589.00,0.0092
586.00,0.0096
583.00,0.0101
580.00,0.0111
577.00,0.0123
574.00,0.0134
571.00,0.0150
568.00,0.0168
565.00,0.0183
562.00,0.0195
559.00,0.0212
556.00,0.0228
553.00,0.0249
550.00,0.0276
547.00,0.0305
544.00,0.0340
541.00,0.0368
538.00,0.0378
535.00,0.0363
532.00,0.0318
529.00,0.0268
526.00,0.0225
523.00,0.0191
520.00,0.0170
517.00,0.0152
514.00,0.0136
511.00,0.0126
508.00,0.0121
505.00,0.0111
502.00,0.0101
499.00,0.0097
496.00,0.0092
493.00,0.0083
490.00,0.0079
487.00,0.0084
484.00,0.0079
481.00,0.0078
478.00,0.0075
475.00,0.0075
472.00,0.0074
469.00,0.0078
466.00,0.0078
463.00,0.0070
460.00,0.0066
457.00,0.0062
454.00,0.0065
451.00,0.0068
448.00,0.0064
445.00,0.0062
442.00,0.0061
439.00,0.0067
436.00,0.0063
433.00,0.0060
430.00,0.0053
427.00,0.0052
424.00,0.0049
421.00,0.0045
418.00,0.0062
415.00,0.0059
412.00,0.0064
409.00,0.0065
406.00,0.0064
403.00,0.0049
400.00,0.0033