File: FTIR/Olivia/2025_08_04_Polystyrene_film_scan1.csv
Created as New Dataset,Sample 1029 By YargerLab Date Friday, August 01 2025
cm-1,A
4000.00,0.0003
3997.00,0.0002
3994.00,0.0002
3991.00,0.0002
3988.00,0.0003
3985.00,0.0002
3982.00,0.0002
3979.00,0.0002
3976.00,0.0002
3973.00,0.0002
3970.00,0.0002
3967.00,0.0002
3964.00,0.0002
3961.00,0.0002
3958.00,0.0002
3955.00,0.0002
3952.00,0.0002
3949.00,0.0001
3946.00,0.0002
3943.00,0.0002
3940.00,0.0002
3937.00,0.0003
3934.00,0.0002
3931.00,0.0002
3928.00,0.0002
3925.00,0.0003
3922.00,0.0003
3919.00,0.0002
3916.00,0.0002
3913.00,0.0003
3910.00,0.0002
3907.00,0.0002
3904.00,0.0002
3901.00,0.0002
3898.00,0.0002
3895.00,0.0002
3892.00,0.0002
3889.00,0.0002
3886.00,0.0002
3883.00,0.0003
3880.00,0.0002
3877.00,0.0003
3874.00,0.0002
3871.00,0.0003
3868.00,0.0002
3865.00,0.0002
3862.00,0.0002
3859.00,0.0002
3856.00,0.0004
3853.00,0.0004
3850.00,0.0003
3847.00,0.0002
3844.00,0.0003
3841.00,0.0003
3838.00,0.0003
3835.00,0.0003
3832.00,0.0003
3829.00,0.0003
3826.00,0.0003
3823.00,0.0003
3820.00,0.0003
3817.00,0.0003
3814.00,0.0003
3811.00,0.0002
3808.00,0.0003
3805.00,0.0004
3802.00,0.0004
3799.00,0.0002
3796.00,0.0002
3793.00,0.0003
3790.00,0.0003
3787.00,0.0002
3784.00,0.0002
3781.00,0.0002
3778.00,0.0002
3775.00,0.0002
3772.00,0.0002
3769.00,0.0003
3766.00,0.0002
3763.00,0.0003
3760.00,0.0003
3757.00,0.0003
3754.00,0.0004
3751.00,0.0004
3748.00,0.0003
3745.00,0.0002
3742.00,0.0002
3739.00,0.0002
3736.00,0.0002
3733.00,0.0002
3730.00,0.0002
3727.00,0.0001
3724.00,0.0001
3721.00,0.0001
3718.00,0.0001
3715.00,0.0001
3712.00,0.0003
3709.00,0.0003
3706.00,0.0001
3703.00,0.0001
3700.00,0.0001
3697.00,0.0002
3694.00,0.0002
3691.00,0.0002
3688.00,0.0002
3685.00,0.0002
3682.00,0.0002
3679.00,0.0003
3676.00,0.0003
3673.00,0.0003
3670.00,0.0002
3667.00,0.0002
3664.00,0.0003
3661.00,0.0003
3658.00,0.0003
3655.00,0.0003
3652.00,0.0003
3649.00,0.0002
3646.00,0.0002
3643.00,0.0002
3640.00,0.0002
3637.00,0.0002
3634.00,0.0002
3631.00,0.0003
3628.00,0.0002
3625.00,0.0002
3622.00,0.0001
3619.00,0.0001
3616.00,0.0002
3613.00,0.0001
3610.00,0.0002
3607.00,0.0002
3604.00,0.0003
3601.00,0.0002
3598.00,0.0002
3595.00,0.0002
3592.00,0.0002
3589.00,0.0002
3586.00,0.0002
3583.00,0.0002
3580.00,0.0002
3577.00,0.0003
3574.00,0.0003
3571.00,0.0002
3568.00,0.0002
3565.00,0.0003
3562.00,0.0004
3559.00,0.0004
3556.00,0.0004
3553.00,0.0004
3550.00,0.0004
3547.00,0.0004
3544.00,0.0004
3541.00,0.0005
3538.00,0.0005
3535.00,0.0005
3532.00,0.0005
3529.00,0.0005
3526.00,0.0005
3523.00,0.0005
3520.00,0.0006
3517.00,0.0006
3514.00,0.0006
3511.00,0.0006
3508.00,0.0007
3505.00,0.0007
3502.00,0.0007
3499.00,0.0007
3496.00,0.0007
3493.00,0.0007
3490.00,0.0007
3487.00,0.0008
3484.00,0.0008
3481.00,0.0008
3478.00,0.0008
3475.00,0.0008
3472.00,0.0008
3469.00,0.0008
3466.00,0.0008
3463.00,0.0008
3460.00,0.0008
3457.00,0.0008
3454.00,0.0008
3451.00,0.0008
3448.00,0.0008
3445.00,0.0009
3442.00,0.0009
3439.00,0.0010
3436.00,0.0009
3433.00,0.0009
3430.00,0.0009
3427.00,0.0009
3424.00,0.0009
3421.00,0.0010
3418.00,0.0009
3415.00,0.0009
3412.00,0.0010
3409.00,0.0010
3406.00,0.0010
3403.00,0.0010
3400.00,0.0010
3397.00,0.0010
3394.00,0.0010
3391.00,0.0009
3388.00,0.0009
3385.00,0.0009
3382.00,0.0009
3379.00,0.0009
3376.00,0.0009
3373.00,0.0009
3370.00,0.0009
3367.00,0.0009
3364.00,0.0009
3361.00,0.0009
3358.00,0.0009
3355.00,0.0010
3352.00,0.0010
3349.00,0.0010
3346.00,0.0009
3343.00,0.0009
3340.00,0.0009
3337.00,0.0009
3334.00,0.0009
3331.00,0.0009
3328.00,0.0009
3325.00,0.0009
3322.00,0.0009
3319.00,0.0009
3316.00,0.0009
3313.00,0.0009
3310.00,0.0009
3307.00,0.0009
3304.00,0.0009
3301.00,0.0009
3298.00,0.0009
3295.00,0.0009
3292.00,0.0009
3289.00,0.0008
3286.00,0.0008
3283.00,0.0009
3280.00,0.0009
3277.00,0.0008
3274.00,0.0008
3271.00,0.0008
3268.00,0.0008
3265.00,0.0008
3262.00,0.0008
3259.00,0.0008
3256.00,0.0008
3253.00,0.0008
3250.00,0.0008
3247.00,0.0007
3244.00,0.0007
3241.00,0.0007
3238.00,0.0007
3235.00,0.0007
3232.00,0.0007
3229.00,0.0007
3226.00,0.0006
3223.00,0.0006
3220.00,0.0007
3217.00,0.0007
3214.00,0.0007
3211.00,0.0006
3208.00,0.0006
3205.00,0.0006
3202.00,0.0006
3199.00,0.0006
3196.00,0.0006
3193.00,0.0006
3190.00,0.0006
3187.00,0.0006
3184.00,0.0005
3181.00,0.0006
3178.00,0.0005
3175.00,0.0005
3172.00,0.0005
3169.00,0.0005
3166.00,0.0005
3163.00,0.0005
3160.00,0.0005
3157.00,0.0005
3154.00,0.0006
3151.00,0.0005
3148.00,0.0005
3145.00,0.0004
3142.00,0.0004
3139.00,0.0004
3136.00,0.0004
3133.00,0.0004
3130.00,0.0004
3127.00,0.0004
3124.00,0.0005
3121.00,0.0005
3118.00,0.0005
3115.00,0.0006
3112.00,0.0006
3109.00,0.0008
3106.00,0.0010
3103.00,0.0011
3100.00,0.0010
3097.00,0.0010
3094.00,0.0010
3091.00,0.0012
3088.00,0.0017
3085.00,0.0022
3082.00,0.0025
3079.00,0.0024
3076.00,0.0020
3073.00,0.0019
3070.00,0.0019
3067.00,0.0022
3064.00,0.0028
3061.00,0.0033
3058.00,0.0034
3055.00,0.0029
3052.00,0.0024
3049.00,0.0020
3046.00,0.0018
3043.00,0.0018
3040.00,0.0020
3037.00,0.0025
3034.00,0.0032
3031.00,0.0044
3028.00,0.0058
3025.00,0.0066
3022.00,0.0060
3019.00,0.0044
3016.00,0.0030
3013.00,0.0021
3010.00,0.0017
3007.00,0.0017
3004.00,0.0018
3001.00,0.0020
2998.00,0.0018
2995.00,0.0015
2992.00,0.0013
2989.00,0.0012
2986.00,0.0013
2983.00,0.0014
2980.00,0.0015
2977.00,0.0017
2974.00,0.0019
2971.00,0.0022
2968.00,0.0026
2965.00,0.0029
2962.00,0.0032
2959.00,0.0035
2956.00,0.0037
2953.00,0.0039
2950.00,0.0041
2947.00,0.0044
2944.00,0.0049
2941.00,0.0058
2938.00,0.0069
2935.00,0.0081
2932.00,0.0095
2929.00,0.0109
2926.00,0.0121
2923.00,0.0131
2920.00,0.0136
2917.00,0.0134
2914.00,0.0121
2911.00,0.0103
2908.00,0.0090
2905.00,0.0079
2902.00,0.0071
2899.00,0.0063
2896.00,0.0056
2893.00,0.0050
2890.00,0.0045
2887.00,0.0041
2884.00,0.0038
2881.00,0.0036
2878.00,0.0034
2875.00,0.0034
2872.00,0.0034
2869.00,0.0033
2866.00,0.0034
2863.00,0.0037
2860.00,0.0043
2857.00,0.0051
2854.00,0.0060
2851.00,0.0069
2848.00,0.0068
2845.00,0.0053
2842.00,0.0039
2839.00,0.0028
2836.00,0.0020
2833.00,0.0015
2830.00,0.0012
2827.00,0.0011
2824.00,0.0009
2821.00,0.0009
2818.00,0.0008
2815.00,0.0007
2812.00,0.0008
2809.00,0.0008
2806.00,0.0007
2803.00,0.0007
2800.00,0.0007
2797.00,0.0006
2794.00,0.0005
2791.00,0.0005
2788.00,0.0005
2785.00,0.0005
2782.00,0.0005
2779.00,0.0005
2776.00,0.0005
2773.00,0.0005
2770.00,0.0004
2767.00,0.0004
2764.00,0.0004
2761.00,0.0004
2758.00,0.0004
2755.00,0.0004
2752.00,0.0004
2749.00,0.0004
2746.00,0.0003
2743.00,0.0004
2740.00,0.0004
2737.00,0.0004
2734.00,0.0004
2731.00,0.0004
2728.00,0.0004
2725.00,0.0004
2722.00,0.0004
2719.00,0.0004
2716.00,0.0004
2713.00,0.0004
2710.00,0.0004
2707.00,0.0004
2704.00,0.0003
2701.00,0.0003
2698.00,0.0004
2695.00,0.0004
2692.00,0.0004
2689.00,0.0004
2686.00,0.0004
2683.00,0.0003
2680.00,0.0003
2677.00,0.0003
2674.00,0.0004
2671.00,0.0004
2668.00,0.0004
2665.00,0.0005
2662.00,0.0007
2659.00,0.0007
2656.00,0.0008
2653.00,0.0008
2650.00,0.0009
2647.00,0.0009
2644.00,0.0008
2641.00,0.0008
2638.00,0.0008
2635.00,0.0008
2632.00,0.0009
2629.00,0.0008
2626.00,0.0007
2623.00,0.0007
2620.00,0.0007
2617.00,0.0006
2614.00,0.0006
2611.00,0.0006
2608.00,0.0006
2605.00,0.0006
2602.00,0.0006
2599.00,0.0006
2596.00,0.0006
2593.00,0.0005
2590.00,0.0005
2587.00,0.0005
2584.00,0.0005
2581.00,0.0005
2578.00,0.0005
2575.00,0.0004
2572.00,0.0004
2569.00,0.0003
2566.00,0.0004
2563.00,0.0003
2560.00,0.0003
2557.00,0.0003
2554.00,0.0003
2551.00,0.0003
2548.00,0.0003
2545.00,0.0003
2542.00,0.0002
2539.00,0.0002
2536.00,0.0003
2533.00,0.0002
2530.00,0.0002
2527.00,0.0002
2524.00,0.0002
2521.00,0.0002
2518.00,0.0002
2515.00,0.0001
2512.00,0.0001
2509.00,0.0001
2506.00,0.0001
2503.00,0.0000
2500.00,0.0001
2497.00,0.0001
2494.00,0.0001
2491.00,0.0001
2488.00,0.0001
2485.00,0.0001
2482.00,0.0000
2479.00,0.0000
2476.00,0.0001
2473.00,0.0001
2470.00,0.0001
2467.00,0.0001
2464.00,0.0000
2461.00,0.0001
2458.00,0.0003
2455.00,0.0002
2452.00,0.0002
2449.00,0.0001
2446.00,0.0001
2443.00,0.0001
2440.00,0.0001
2437.00,0.0001
2434.00,0.0001
2431.00,-0.0000
2428.00,-0.0001
2425.00,-0.0001
2422.00,-0.0001
2419.00,-0.0002
2416.00,-0.0001
2413.00,-0.0001
2410.00,-0.0001
2407.00,-0.0002
2404.00,-0.0002
2401.00,-0.0002
2398.00,-0.0002
2395.00,-0.0002
2392.00,-0.0002
2389.00,-0.0002
2386.00,-0.0003
2383.00,-0.0004
2380.00,-0.0005
2377.00,-0.0005
2374.00,-0.0004
2371.00,-0.0004
2368.00,-0.0004
2365.00,-0.0004
2362.00,-0.0004
2359.00,-0.0003
2356.00,-0.0003
2353.00,-0.0006
2350.00,-0.0006
2347.00,-0.0001
2344.00,-0.0000
2341.00,0.0000
2338.00,0.0001
2335.00,0.0001
2332.00,0.0001
2329.00,0.0002
2326.00,0.0010
2323.00,0.0009
2320.00,0.0004
2317.00,0.0004
2314.00,0.0003
2311.00,0.0001
2308.00,0.0002
2305.00,0.0002
2302.00,0.0003
2299.00,0.0004
2296.00,0.0005
2293.00,0.0007
2290.00,0.0009
2287.00,0.0011
2284.00,0.0009
2281.00,0.0008
2278.00,0.0007
2275.00,0.0005
2272.00,0.0005
2269.00,0.0004
2266.00,0.0003
2263.00,0.0003
2260.00,0.0004
2257.00,0.0003
2254.00,0.0001
2251.00,0.0001
2248.00,0.0003
2245.00,0.0002
2242.00,0.0002
2239.00,0.0004
2236.00,0.0004
2233.00,0.0004
2230.00,0.0003
2227.00,0.0001
2224.00,-0.0000
2221.00,0.0001
2218.00,0.0002
2215.00,0.0001
2212.00,0.0003
2209.00,0.0001
2206.00,-0.0001
2203.00,-0.0001
2200.00,0.0002
2197.00,-0.0000
2194.00,-0.0000
2191.00,0.0004
2188.00,0.0004
2185.00,0.0002
2182.00,-0.0001
2179.00,0.0001
2176.00,-0.0005
2173.00,-0.0001
2170.00,0.0007
2167.00,0.0006
2164.00,0.0005
2161.00,-0.0005
2158.00,-0.0030
2155.00,-0.0025
2152.00,-0.0018
2149.00,-0.0016
2146.00,-0.0015
2143.00,-0.0014
2140.00,-0.0015
2137.00,-0.0016
2134.00,-0.0019
2131.00,-0.0017
2128.00,-0.0012
2125.00,-0.0008
2122.00,-0.0007
2119.00,-0.0006
2116.00,-0.0002
2113.00,-0.0001
2110.00,-0.0001
2107.00,-0.0003
2104.00,-0.0002
2101.00,-0.0002
2098.00,-0.0003
2095.00,-0.0006
2092.00,-0.0005
2089.00,-0.0003
2086.00,-0.0002
2083.00,-0.0001
2080.00,0.0000
2077.00,0.0000
2074.00,-0.0001
2071.00,-0.0004
2068.00,-0.0003
2065.00,-0.0002
2062.00,-0.0002
2059.00,-0.0002
2056.00,-0.0002
2053.00,0.0004
2050.00,0.0007
2047.00,-0.0001
2044.00,-0.0001
2041.00,0.0001
2038.00,0.0003
2035.00,-0.0002
2032.00,-0.0007
2029.00,-0.0008
2026.00,-0.0008
2023.00,-0.0004
2020.00,-0.0009
2017.00,-0.0008
2014.00,-0.0009
2011.00,-0.0008
2008.00,-0.0011
2005.00,-0.0015
2002.00,-0.0012
1999.00,-0.0007
1996.00,-0.0003
1993.00,-0.0004
1990.00,-0.0001
1987.00,0.0003
1984.00,0.0005
1981.00,0.0007
1978.00,-0.0002
1975.00,-0.0008
1972.00,-0.0007
1969.00,-0.0005
1966.00,-0.0004
1963.00,-0.0007
1960.00,-0.0010
1957.00,-0.0007
1954.00,-0.0005
1951.00,-0.0006
1948.00,-0.0003
1945.00,-0.0001
1942.00,-0.0001
1939.00,-0.0003
1936.00,-0.0002
1933.00,-0.0004
1930.00,-0.0005
1927.00,-0.0006
1924.00,-0.0006
1921.00,-0.0006
1918.00,-0.0006
1915.00,-0.0006
1912.00,-0.0005
1909.00,-0.0006
1906.00,-0.0006
1903.00,-0.0005
1900.00,-0.0004
1897.00,-0.0004
1894.00,-0.0003
1891.00,-0.0002
1888.00,-0.0002
1885.00,-0.0001
1882.00,0.0000
1879.00,0.0002
1876.00,0.0002
1873.00,0.0003
1870.00,0.0002
1867.00,0.0002
1864.00,0.0001
1861.00,0.0001
1858.00,-0.0001
1855.00,-0.0002
1852.00,-0.0003
1849.00,-0.0004
1846.00,-0.0004
1843.00,-0.0004
1840.00,-0.0004
1837.00,-0.0003
1834.00,-0.0003
1831.00,-0.0003
1828.00,-0.0001
1825.00,-0.0000
1822.00,0.0000
1819.00,-0.0001
1816.00,-0.0000
1813.00,0.0002
1810.00,0.0004
1807.00,0.0006
1804.00,0.0006
1801.00,0.0007
1798.00,0.0006
1795.00,0.0005
1792.00,0.0004
1789.00,0.0003
1786.00,0.0002
1783.00,0.0002
1780.00,0.0002
1777.00,0.0002
1774.00,0.0002
1771.00,0.0003
1768.00,0.0003
1765.00,0.0004
1762.00,0.0005
1759.00,0.0006
1756.00,0.0007
1753.00,0.0009
1750.00,0.0010
1747.00,0.0011
1744.00,0.0012
1741.00,0.0013
1738.00,0.0013
1735.00,0.0013
1732.00,0.0012
1729.00,0.0012
1726.00,0.0011
1723.00,0.0010
1720.00,0.0009
1717.00,0.0009
1714.00,0.0008
1711.00,0.0008
1708.00,0.0008
1705.00,0.0007
1702.00,0.0008
1699.00,0.0007
1696.00,0.0006
1693.00,0.0006
1690.00,0.0007
1687.00,0.0009
1684.00,0.0011
1681.00,0.0013
1678.00,0.0018
1675.00,0.0021
1672.00,0.0025
1669.00,0.0028
1666.00,0.0030
1663.00,0.0032
1660.00,0.0031
1657.00,0.0031
1654.00,0.0031
1651.00,0.0026
1648.00,0.0024
1645.00,0.0021
1642.00,0.0019
1639.00,0.0018
1636.00,0.0016
1633.00,0.0014
1630.00,0.0013
1627.00,0.0013
1624.00,0.0013
1621.00,0.0013
1618.00,0.0013
1615.00,0.0014
1612.00,0.0017
1609.00,0.0025
1606.00,0.0043
1603.00,0.0068
1600.00,0.0075
1597.00,0.0055
1594.00,0.0036
1591.00,0.0026
1588.00,0.0024
1585.00,0.0030
1582.00,0.0034
1579.00,0.0025
1576.00,0.0018
1573.00,0.0013
1570.00,0.0011
1567.00,0.0009
1564.00,0.0008
1561.00,0.0008
1558.00,0.0008
1555.00,0.0009
1552.00,0.0010
1549.00,0.0012
1546.00,0.0014
1543.00,0.0016
1540.00,0.0016
1537.00,0.0015
1534.00,0.0012
1531.00,0.0010
1528.00,0.0009
1525.00,0.0008
1522.00,0.0008
1519.00,0.0008
1516.00,0.0009
1513.00,0.0010
1510.00,0.0011
1507.00,0.0013
1504.00,0.0018
1501.00,0.0028
1498.00,0.0059
1495.00,0.0142
1492.00,0.0199
1489.00,0.0127
1486.00,0.0065
1483.00,0.0042
1480.00,0.0031
1477.00,0.0028
1474.00,0.0030
1471.00,0.0032
1468.00,0.0036
1465.00,0.0040
1462.00,0.0044
1459.00,0.0055
1456.00,0.0112
1453.00,0.0190
1450.00,0.0198
1447.00,0.0152
1444.00,0.0121
1441.00,0.0096
1438.00,0.0078
1435.00,0.0053
1432.00,0.0042
1429.00,0.0033
1426.00,0.0028
1423.00,0.0025
1420.00,0.0023
1417.00,0.0021
1414.00,0.0021
1411.00,0.0020
1408.00,0.0020
1405.00,0.0020
1402.00,0.0019
1399.00,0.0020
1396.00,0.0021
1393.00,0.0023
1390.00,0.0027
1387.00,0.0032
1384.00,0.0037
1381.00,0.0043
1378.00,0.0047
1375.00,0.0050
1372.00,0.0051
1369.00,0.0050
1366.00,0.0049
1363.00,0.0048
1360.00,0.0045
1357.00,0.0043
1354.00,0.0041
1351.00,0.0042
1348.00,0.0041
1345.00,0.0040
1342.00,0.0038
1339.00,0.0036
1336.00,0.0037
1333.00,0.0040
1330.00,0.0043
1327.00,0.0044
1324.00,0.0043
1321.00,0.0042
1318.00,0.0042
1315.00,0.0043
1312.00,0.0044
1309.00,0.0042
1306.00,0.0041
1303.00,0.0039
1300.00,0.0038
1297.00,0.0039
1294.00,0.0039
1291.00,0.0038
1288.00,0.0035
1285.00,0.0033
1282.00,0.0032
1279.00,0.0032
1276.00,0.0030
1273.00,0.0028
1270.00,0.0026
1267.00,0.0025
1264.00,0.0025
1261.00,0.0024
1258.00,0.0024
1255.00,0.0024
1252.00,0.0025
1249.00,0.0025
1246.00,0.0026
1243.00,0.0026
1240.00,0.0026
1237.00,0.0026
1234.00,0.0026
1231.00,0.0026
1228.00,0.0027
1225.00,0.0027
1222.00,0.0027
1219.00,0.0028
1216.00,0.0028
1213.00,0.0028
1210.00,0.0030
1207.00,0.0031
1204.00,0.0035
1201.00,0.0037
1198.00,0.0039
1195.00,0.0041
1192.00,0.0041
1189.00,0.0042
1186.00,0.0047
1183.00,0.0053
1180.00,0.0054
1177.00,0.0047
1174.00,0.0039
1171.00,0.0036
1168.00,0.0035
1165.00,0.0036
1162.00,0.0039
1159.00,0.0045
1156.00,0.0055
1153.00,0.0054
1150.00,0.0043
1147.00,0.0034
1144.00,0.0030
1141.00,0.0028
1138.00,0.0026
1135.00,0.0025
1132.00,0.0027
1129.00,0.0028
1126.00,0.0028
1123.00,0.0028
1120.00,0.0029
1117.00,0.0032
1114.00,0.0034
1111.00,0.0035
1108.00,0.0034
1105.00,0.0034
1102.00,0.0035
1099.00,0.0036
1096.00,0.0037
1093.00,0.0038
1090.00,0.0040
1087.00,0.0041
1084.00,0.0045
1081.00,0.0051
1078.00,0.0056
1075.00,0.0062
1072.00,0.0071
1069.00,0.0077
1066.00,0.0073
1063.00,0.0065
1060.00,0.0058
1057.00,0.0053
1054.00,0.0049
1051.00,0.0044
1048.00,0.0042
1045.00,0.0041
1042.00,0.0041
1039.00,0.0046
1036.00,0.0058
1033.00,0.0087
1030.00,0.0119
1027.00,0.0126
1024.00,0.0105
1021.00,0.0083
1018.00,0.0070
1015.00,0.0061
1012.00,0.0056
1009.00,0.0053
1006.00,0.0055
1003.00,0.0058
1000.00,0.0051
997.00,0.0043
994.00,0.0041
991.00,0.0041
988.00,0.0043
985.00,0.0046
982.00,0.0050
979.00,0.0052
976.00,0.0049
973.00,0.0047
970.00,0.0049
967.00,0.0055
964.00,0.0058
961.00,0.0054
958.00,0.0048
955.00,0.0044
952.00,0.0043
949.00,0.0044
946.00,0.0046
943.00,0.0047
940.00,0.0045
937.00,0.0041
934.00,0.0036
931.00,0.0033
928.00,0.0032
925.00,0.0033
922.00,0.0035
919.00,0.0038
916.00,0.0046
913.00,0.0061
910.00,0.0078
907.00,0.0089
904.00,0.0085
901.00,0.0068
898.00,0.0050
895.00,0.0038
892.00,0.0032
889.00,0.0029
886.00,0.0027
883.00,0.0025
880.00,0.0025
877.00,0.0025
874.00,0.0023
871.00,0.0021
868.00,0.0021
865.00,0.0022
862.00,0.0020
859.00,0.0021
856.00,0.0023
853.00,0.0025
850.00,0.0031
847.00,0.0038
844.00,0.0045
841.00,0.0048
838.00,0.0043
835.00,0.0034
832.00,0.0027
829.00,0.0024
826.00,0.0023
823.00,0.0021
820.00,0.0021
817.00,0.0023
814.00,0.0023
811.00,0.0023
808.00,0.0023
805.00,0.0023
802.00,0.0026
799.00,0.0028
796.00,0.0032
793.00,0.0038
790.00,0.0045
787.00,0.0053
784.00,0.0064
781.00,0.0079
778.00,0.0100
775.00,0.0128
772.00,0.0167
769.00,0.0213
766.00,0.0258
763.00,0.0303
760.00,0.0348
757.00,0.0384
754.00,0.0393
751.00,0.0391
748.00,0.0390
745.00,0.0361
742.00,0.0289
739.00,0.0214
736.00,0.0154
733.00,0.0103
730.00,0.0071
727.00,0.0056
724.00,0.0051
721.00,0.0051
718.00,0.0054
715.00,0.0064
712.00,0.0092
709.00,0.0167
706.00,0.0320
703.00,0.0566
700.00,0.0871
697.00,0.1159
694.00,0.1235
691.00,0.0938
688.00,0.0616
685.00,0.0434
682.00,0.0332
679.00,0.0267
676.00,0.0225
673.00,0.0200
670.00,0.0182
667.00,0.0162
664.00,0.0144
661.00,0.0126
658.00,0.0113
655.00,0.0099
652.00,0.0087
649.00,0.0078
646.00,0.0071
643.00,0.0067
640.00,0.0067
637.00,0.0071
634.00,0.0076
631.00,0.0081
628.00,0.0086
625.00,0.0090
622.00,0.0093
619.00,0.0090
616.00,0.0083
613.00,0.0077
610.00,0.0075
607.00,0.0074
604.00,0.0074
601.00,0.0076
598.00,0.0077
595.00,0.0079
592.00,0.0086
589.00,0.0093
586.00,0.0096
583.00,0.0100
580.00,0.0108
577.00,0.0123
574.00,0.0141
571.00,0.0161
568.00,0.0177
565.00,0.0197
562.00,0.0215
559.00,0.0231
556.00,0.0250
553.00,0.0272
550.00,0.0298
547.00,0.0329
544.00,0.0374
541.00,0.0422
538.00,0.0441
535.00,0.0419
532.00,0.0364
529.00,0.0306
526.00,0.0248
523.00,0.0201
520.00,0.0177
517.00,0.0160
514.00,0.0146
511.00,0.0131
508.00,0.0122
505.00,0.0110
502.00,0.0101
499.00,0.0096
496.00,0.0090
493.00,0.0086
490.00,0.0086
487.00,0.0085
484.00,0.0079
481.00,0.0076
478.00,0.0070
475.00,0.0061
472.00,0.0064
469.00,0.0073
466.00,0.0073
463.00,0.0065
460.00,0.0063
457.00,0.0064
454.00,0.0071
451.00,0.0066
448.00,0.0062
445.00,0.0064
442.00,0.0065
439.00,0.0059
436.00,0.0056
433.00,0.0054
430.00,0.0050
427.00,0.0050
424.00,0.0051
421.00,0.0053
418.00,0.0056
415.00,0.0047
412.00,0.0049
409.00,0.0062
406.00,0.0065
403.00,0.0051
400.00,0.0025