File: FTIR/Olivia/2025_07_24_Polystyrene_Std_scan2.csv
Created as New Dataset,Sample 906 By YargerLab Date Thursday, July 24 2025
cm-1,A
4000.00,0.0005
3997.00,0.0005
3994.00,0.0005
3991.00,0.0004
3988.00,0.0004
3985.00,0.0004
3982.00,0.0005
3979.00,0.0004
3976.00,0.0005
3973.00,0.0005
3970.00,0.0004
3967.00,0.0004
3964.00,0.0004
3961.00,0.0004
3958.00,0.0005
3955.00,0.0004
3952.00,0.0004
3949.00,0.0004
3946.00,0.0005
3943.00,0.0004
3940.00,0.0004
3937.00,0.0004
3934.00,0.0004
3931.00,0.0005
3928.00,0.0005
3925.00,0.0004
3922.00,0.0005
3919.00,0.0005
3916.00,0.0005
3913.00,0.0005
3910.00,0.0004
3907.00,0.0005
3904.00,0.0005
3901.00,0.0005
3898.00,0.0005
3895.00,0.0005
3892.00,0.0005
3889.00,0.0005
3886.00,0.0005
3883.00,0.0005
3880.00,0.0005
3877.00,0.0005
3874.00,0.0005
3871.00,0.0005
3868.00,0.0005
3865.00,0.0005
3862.00,0.0005
3859.00,0.0005
3856.00,0.0007
3853.00,0.0007
3850.00,0.0006
3847.00,0.0005
3844.00,0.0005
3841.00,0.0005
3838.00,0.0005
3835.00,0.0005
3832.00,0.0005
3829.00,0.0006
3826.00,0.0006
3823.00,0.0006
3820.00,0.0006
3817.00,0.0007
3814.00,0.0006
3811.00,0.0006
3808.00,0.0006
3805.00,0.0006
3802.00,0.0006
3799.00,0.0006
3796.00,0.0006
3793.00,0.0005
3790.00,0.0005
3787.00,0.0005
3784.00,0.0005
3781.00,0.0005
3778.00,0.0005
3775.00,0.0006
3772.00,0.0006
3769.00,0.0006
3766.00,0.0006
3763.00,0.0006
3760.00,0.0006
3757.00,0.0006
3754.00,0.0007
3751.00,0.0007
3748.00,0.0007
3745.00,0.0007
3742.00,0.0006
3739.00,0.0006
3736.00,0.0006
3733.00,0.0006
3730.00,0.0006
3727.00,0.0005
3724.00,0.0005
3721.00,0.0005
3718.00,0.0005
3715.00,0.0006
3712.00,0.0006
3709.00,0.0005
3706.00,0.0005
3703.00,0.0005
3700.00,0.0005
3697.00,0.0005
3694.00,0.0005
3691.00,0.0005
3688.00,0.0005
3685.00,0.0005
3682.00,0.0004
3679.00,0.0005
3676.00,0.0006
3673.00,0.0006
3670.00,0.0005
3667.00,0.0005
3664.00,0.0005
3661.00,0.0005
3658.00,0.0005
3655.00,0.0006
3652.00,0.0007
3649.00,0.0006
3646.00,0.0007
3643.00,0.0005
3640.00,0.0004
3637.00,0.0004
3634.00,0.0004
3631.00,0.0005
3628.00,0.0005
3625.00,0.0005
3622.00,0.0005
3619.00,0.0006
3616.00,0.0005
3613.00,0.0005
3610.00,0.0005
3607.00,0.0005
3604.00,0.0005
3601.00,0.0005
3598.00,0.0004
3595.00,0.0004
3592.00,0.0004
3589.00,0.0005
3586.00,0.0005
3583.00,0.0004
3580.00,0.0005
3577.00,0.0005
3574.00,0.0005
3571.00,0.0005
3568.00,0.0004
3565.00,0.0005
3562.00,0.0005
3559.00,0.0005
3556.00,0.0005
3553.00,0.0006
3550.00,0.0006
3547.00,0.0006
3544.00,0.0006
3541.00,0.0007
3538.00,0.0007
3535.00,0.0007
3532.00,0.0007
3529.00,0.0007
3526.00,0.0007
3523.00,0.0007
3520.00,0.0008
3517.00,0.0008
3514.00,0.0008
3511.00,0.0008
3508.00,0.0008
3505.00,0.0008
3502.00,0.0008
3499.00,0.0008
3496.00,0.0008
3493.00,0.0008
3490.00,0.0008
3487.00,0.0008
3484.00,0.0008
3481.00,0.0009
3478.00,0.0009
3475.00,0.0009
3472.00,0.0009
3469.00,0.0009
3466.00,0.0009
3463.00,0.0009
3460.00,0.0010
3457.00,0.0010
3454.00,0.0009
3451.00,0.0009
3448.00,0.0009
3445.00,0.0009
3442.00,0.0010
3439.00,0.0010
3436.00,0.0010
3433.00,0.0009
3430.00,0.0009
3427.00,0.0009
3424.00,0.0009
3421.00,0.0009
3418.00,0.0009
3415.00,0.0009
3412.00,0.0009
3409.00,0.0009
3406.00,0.0010
3403.00,0.0009
3400.00,0.0009
3397.00,0.0009
3394.00,0.0008
3391.00,0.0009
3388.00,0.0009
3385.00,0.0009
3382.00,0.0009
3379.00,0.0009
3376.00,0.0009
3373.00,0.0009
3370.00,0.0009
3367.00,0.0009
3364.00,0.0009
3361.00,0.0009
3358.00,0.0009
3355.00,0.0009
3352.00,0.0009
3349.00,0.0009
3346.00,0.0009
3343.00,0.0009
3340.00,0.0009
3337.00,0.0009
3334.00,0.0009
3331.00,0.0009
3328.00,0.0009
3325.00,0.0008
3322.00,0.0008
3319.00,0.0008
3316.00,0.0009
3313.00,0.0009
3310.00,0.0009
3307.00,0.0009
3304.00,0.0008
3301.00,0.0008
3298.00,0.0008
3295.00,0.0008
3292.00,0.0008
3289.00,0.0009
3286.00,0.0008
3283.00,0.0008
3280.00,0.0009
3277.00,0.0009
3274.00,0.0008
3271.00,0.0008
3268.00,0.0008
3265.00,0.0008
3262.00,0.0008
3259.00,0.0008
3256.00,0.0008
3253.00,0.0008
3250.00,0.0008
3247.00,0.0008
3244.00,0.0008
3241.00,0.0008
3238.00,0.0008
3235.00,0.0007
3232.00,0.0008
3229.00,0.0008
3226.00,0.0007
3223.00,0.0008
3220.00,0.0008
3217.00,0.0007
3214.00,0.0008
3211.00,0.0008
3208.00,0.0008
3205.00,0.0008
3202.00,0.0008
3199.00,0.0008
3196.00,0.0008
3193.00,0.0008
3190.00,0.0008
3187.00,0.0007
3184.00,0.0007
3181.00,0.0007
3178.00,0.0007
3175.00,0.0007
3172.00,0.0007
3169.00,0.0008
3166.00,0.0008
3163.00,0.0008
3160.00,0.0008
3157.00,0.0007
3154.00,0.0007
3151.00,0.0007
3148.00,0.0007
3145.00,0.0007
3142.00,0.0007
3139.00,0.0007
3136.00,0.0007
3133.00,0.0007
3130.00,0.0008
3127.00,0.0008
3124.00,0.0008
3121.00,0.0008
3118.00,0.0009
3115.00,0.0011
3112.00,0.0013
3109.00,0.0017
3106.00,0.0021
3103.00,0.0024
3100.00,0.0022
3097.00,0.0021
3094.00,0.0023
3091.00,0.0030
3088.00,0.0042
3085.00,0.0055
3082.00,0.0060
3079.00,0.0055
3076.00,0.0047
3073.00,0.0044
3070.00,0.0048
3067.00,0.0058
3064.00,0.0072
3061.00,0.0082
3058.00,0.0081
3055.00,0.0069
3052.00,0.0056
3049.00,0.0047
3046.00,0.0043
3043.00,0.0044
3040.00,0.0051
3037.00,0.0063
3034.00,0.0085
3031.00,0.0116
3028.00,0.0149
3025.00,0.0162
3022.00,0.0140
3019.00,0.0100
3016.00,0.0067
3013.00,0.0049
3010.00,0.0041
3007.00,0.0041
3004.00,0.0045
3001.00,0.0047
2998.00,0.0041
2995.00,0.0033
2992.00,0.0027
2989.00,0.0025
2986.00,0.0025
2983.00,0.0025
2980.00,0.0025
2977.00,0.0026
2974.00,0.0027
2971.00,0.0028
2968.00,0.0030
2965.00,0.0033
2962.00,0.0037
2959.00,0.0042
2956.00,0.0047
2953.00,0.0054
2950.00,0.0062
2947.00,0.0072
2944.00,0.0085
2941.00,0.0101
2938.00,0.0119
2935.00,0.0138
2932.00,0.0160
2929.00,0.0179
2926.00,0.0192
2923.00,0.0199
2920.00,0.0199
2917.00,0.0193
2914.00,0.0182
2911.00,0.0168
2908.00,0.0154
2905.00,0.0138
2902.00,0.0123
2899.00,0.0109
2896.00,0.0096
2893.00,0.0087
2890.00,0.0080
2887.00,0.0073
2884.00,0.0068
2881.00,0.0063
2878.00,0.0059
2875.00,0.0055
2872.00,0.0053
2869.00,0.0052
2866.00,0.0053
2863.00,0.0057
2860.00,0.0065
2857.00,0.0074
2854.00,0.0082
2851.00,0.0088
2848.00,0.0088
2845.00,0.0080
2842.00,0.0066
2839.00,0.0051
2836.00,0.0038
2833.00,0.0030
2830.00,0.0024
2827.00,0.0022
2824.00,0.0020
2821.00,0.0019
2818.00,0.0018
2815.00,0.0017
2812.00,0.0018
2809.00,0.0017
2806.00,0.0016
2803.00,0.0015
2800.00,0.0015
2797.00,0.0014
2794.00,0.0014
2791.00,0.0013
2788.00,0.0013
2785.00,0.0013
2782.00,0.0013
2779.00,0.0013
2776.00,0.0012
2773.00,0.0012
2770.00,0.0012
2767.00,0.0011
2764.00,0.0011
2761.00,0.0011
2758.00,0.0011
2755.00,0.0011
2752.00,0.0011
2749.00,0.0011
2746.00,0.0011
2743.00,0.0010
2740.00,0.0010
2737.00,0.0010
2734.00,0.0011
2731.00,0.0011
2728.00,0.0011
2725.00,0.0011
2722.00,0.0011
2719.00,0.0011
2716.00,0.0011
2713.00,0.0011
2710.00,0.0011
2707.00,0.0011
2704.00,0.0011
2701.00,0.0011
2698.00,0.0011
2695.00,0.0011
2692.00,0.0011
2689.00,0.0011
2686.00,0.0010
2683.00,0.0010
2680.00,0.0010
2677.00,0.0010
2674.00,0.0010
2671.00,0.0010
2668.00,0.0011
2665.00,0.0012
2662.00,0.0014
2659.00,0.0014
2656.00,0.0015
2653.00,0.0015
2650.00,0.0015
2647.00,0.0016
2644.00,0.0016
2641.00,0.0016
2638.00,0.0016
2635.00,0.0016
2632.00,0.0016
2629.00,0.0016
2626.00,0.0015
2623.00,0.0014
2620.00,0.0014
2617.00,0.0014
2614.00,0.0014
2611.00,0.0014
2608.00,0.0014
2605.00,0.0013
2602.00,0.0014
2599.00,0.0013
2596.00,0.0013
2593.00,0.0012
2590.00,0.0011
2587.00,0.0012
2584.00,0.0012
2581.00,0.0012
2578.00,0.0011
2575.00,0.0010
2572.00,0.0011
2569.00,0.0009
2566.00,0.0009
2563.00,0.0010
2560.00,0.0009
2557.00,0.0009
2554.00,0.0009
2551.00,0.0010
2548.00,0.0009
2545.00,0.0008
2542.00,0.0009
2539.00,0.0009
2536.00,0.0008
2533.00,0.0008
2530.00,0.0008
2527.00,0.0008
2524.00,0.0008
2521.00,0.0008
2518.00,0.0008
2515.00,0.0008
2512.00,0.0008
2509.00,0.0008
2506.00,0.0008
2503.00,0.0008
2500.00,0.0008
2497.00,0.0007
2494.00,0.0007
2491.00,0.0008
2488.00,0.0008
2485.00,0.0007
2482.00,0.0007
2479.00,0.0007
2476.00,0.0006
2473.00,0.0006
2470.00,0.0005
2467.00,0.0006
2464.00,0.0006
2461.00,0.0007
2458.00,0.0007
2455.00,0.0007
2452.00,0.0007
2449.00,0.0007
2446.00,0.0007
2443.00,0.0006
2440.00,0.0006
2437.00,0.0006
2434.00,0.0005
2431.00,0.0004
2428.00,0.0005
2425.00,0.0005
2422.00,0.0005
2419.00,0.0004
2416.00,0.0004
2413.00,0.0004
2410.00,0.0004
2407.00,0.0003
2404.00,0.0003
2401.00,0.0003
2398.00,0.0002
2395.00,0.0002
2392.00,0.0002
2389.00,0.0002
2386.00,0.0001
2383.00,0.0001
2380.00,0.0001
2377.00,0.0002
2374.00,0.0001
2371.00,0.0001
2368.00,-0.0000
2365.00,0.0001
2362.00,0.0003
2359.00,0.0003
2356.00,0.0003
2353.00,0.0003
2350.00,0.0004
2347.00,0.0006
2344.00,0.0009
2341.00,0.0007
2338.00,0.0008
2335.00,0.0008
2332.00,0.0006
2329.00,0.0008
2326.00,0.0018
2323.00,0.0017
2320.00,0.0013
2317.00,0.0011
2314.00,0.0011
2311.00,0.0010
2308.00,0.0009
2305.00,0.0009
2302.00,0.0009
2299.00,0.0011
2296.00,0.0012
2293.00,0.0013
2290.00,0.0015
2287.00,0.0016
2284.00,0.0015
2281.00,0.0013
2278.00,0.0011
2275.00,0.0010
2272.00,0.0010
2269.00,0.0010
2266.00,0.0009
2263.00,0.0009
2260.00,0.0010
2257.00,0.0009
2254.00,0.0006
2251.00,0.0007
2248.00,0.0008
2245.00,0.0008
2242.00,0.0008
2239.00,0.0009
2236.00,0.0007
2233.00,0.0007
2230.00,0.0006
2227.00,0.0005
2224.00,0.0005
2221.00,0.0006
2218.00,0.0008
2215.00,0.0007
2212.00,0.0007
2209.00,0.0008
2206.00,0.0007
2203.00,0.0006
2200.00,0.0005
2197.00,0.0007
2194.00,0.0007
2191.00,0.0008
2188.00,0.0012
2185.00,0.0010
2182.00,0.0003
2179.00,0.0004
2176.00,-0.0001
2173.00,0.0002
2170.00,0.0009
2167.00,0.0015
2164.00,0.0018
2161.00,0.0003
2158.00,-0.0030
2155.00,-0.0021
2152.00,-0.0013
2149.00,-0.0014
2146.00,-0.0017
2143.00,-0.0015
2140.00,-0.0013
2137.00,-0.0016
2134.00,-0.0018
2131.00,-0.0014
2128.00,-0.0009
2125.00,-0.0006
2122.00,-0.0003
2119.00,-0.0001
2116.00,0.0002
2113.00,0.0003
2110.00,0.0003
2107.00,0.0003
2104.00,0.0002
2101.00,0.0002
2098.00,0.0000
2095.00,-0.0003
2092.00,-0.0000
2089.00,0.0000
2086.00,0.0002
2083.00,0.0005
2080.00,0.0005
2077.00,0.0004
2074.00,0.0004
2071.00,0.0002
2068.00,0.0000
2065.00,-0.0000
2062.00,-0.0000
2059.00,-0.0001
2056.00,-0.0000
2053.00,0.0008
2050.00,0.0010
2047.00,0.0002
2044.00,0.0000
2041.00,0.0003
2038.00,0.0004
2035.00,0.0005
2032.00,0.0000
2029.00,-0.0002
2026.00,-0.0005
2023.00,-0.0007
2020.00,-0.0007
2017.00,-0.0004
2014.00,-0.0002
2011.00,-0.0001
2008.00,-0.0006
2005.00,-0.0007
2002.00,-0.0007
1999.00,-0.0003
1996.00,0.0002
1993.00,0.0003
1990.00,0.0004
1987.00,0.0006
1984.00,0.0011
1981.00,0.0018
1978.00,0.0003
1975.00,-0.0005
1972.00,-0.0004
1969.00,-0.0001
1966.00,0.0001
1963.00,0.0003
1960.00,0.0003
1957.00,0.0007
1954.00,0.0009
1951.00,0.0013
1948.00,0.0014
1945.00,0.0017
1942.00,0.0019
1939.00,0.0015
1936.00,0.0010
1933.00,0.0006
1930.00,0.0004
1927.00,0.0003
1924.00,0.0003
1921.00,0.0003
1918.00,0.0002
1915.00,0.0000
1912.00,0.0001
1909.00,-0.0000
1906.00,0.0001
1903.00,0.0001
1900.00,0.0002
1897.00,0.0005
1894.00,0.0007
1891.00,0.0007
1888.00,0.0010
1885.00,0.0012
1882.00,0.0015
1879.00,0.0016
1876.00,0.0017
1873.00,0.0018
1870.00,0.0018
1867.00,0.0017
1864.00,0.0015
1861.00,0.0013
1858.00,0.0009
1855.00,0.0007
1852.00,0.0004
1849.00,0.0003
1846.00,0.0002
1843.00,0.0002
1840.00,0.0002
1837.00,0.0003
1834.00,0.0003
1831.00,0.0004
1828.00,0.0006
1825.00,0.0008
1822.00,0.0011
1819.00,0.0011
1816.00,0.0011
1813.00,0.0015
1810.00,0.0018
1807.00,0.0021
1804.00,0.0023
1801.00,0.0023
1798.00,0.0021
1795.00,0.0019
1792.00,0.0015
1789.00,0.0013
1786.00,0.0011
1783.00,0.0011
1780.00,0.0011
1777.00,0.0012
1774.00,0.0012
1771.00,0.0013
1768.00,0.0013
1765.00,0.0014
1762.00,0.0016
1759.00,0.0018
1756.00,0.0021
1753.00,0.0024
1750.00,0.0026
1747.00,0.0029
1744.00,0.0031
1741.00,0.0033
1738.00,0.0034
1735.00,0.0032
1732.00,0.0029
1729.00,0.0028
1726.00,0.0027
1723.00,0.0025
1720.00,0.0024
1717.00,0.0022
1714.00,0.0021
1711.00,0.0021
1708.00,0.0021
1705.00,0.0020
1702.00,0.0020
1699.00,0.0019
1696.00,0.0019
1693.00,0.0019
1690.00,0.0019
1687.00,0.0021
1684.00,0.0023
1681.00,0.0024
1678.00,0.0025
1675.00,0.0027
1672.00,0.0027
1669.00,0.0027
1666.00,0.0028
1663.00,0.0028
1660.00,0.0026
1657.00,0.0026
1654.00,0.0025
1651.00,0.0023
1648.00,0.0022
1645.00,0.0022
1642.00,0.0021
1639.00,0.0020
1636.00,0.0019
1633.00,0.0019
1630.00,0.0019
1627.00,0.0019
1624.00,0.0019
1621.00,0.0020
1618.00,0.0022
1615.00,0.0025
1612.00,0.0032
1609.00,0.0051
1606.00,0.0094
1603.00,0.0146
1600.00,0.0154
1597.00,0.0110
1594.00,0.0071
1591.00,0.0052
1588.00,0.0048
1585.00,0.0062
1582.00,0.0064
1579.00,0.0044
1576.00,0.0029
1573.00,0.0023
1570.00,0.0019
1567.00,0.0017
1564.00,0.0016
1561.00,0.0017
1558.00,0.0017
1555.00,0.0017
1552.00,0.0018
1549.00,0.0020
1546.00,0.0023
1543.00,0.0024
1540.00,0.0024
1537.00,0.0021
1534.00,0.0019
1531.00,0.0017
1528.00,0.0015
1525.00,0.0013
1522.00,0.0013
1519.00,0.0013
1516.00,0.0014
1513.00,0.0015
1510.00,0.0017
1507.00,0.0021
1504.00,0.0033
1501.00,0.0053
1498.00,0.0121
1495.00,0.0299
1492.00,0.0381
1489.00,0.0232
1486.00,0.0122
1483.00,0.0075
1480.00,0.0052
1477.00,0.0043
1474.00,0.0040
1471.00,0.0039
1468.00,0.0043
1465.00,0.0049
1462.00,0.0060
1459.00,0.0089
1456.00,0.0225
1453.00,0.0374
1450.00,0.0369
1447.00,0.0283
1444.00,0.0224
1441.00,0.0176
1438.00,0.0139
1435.00,0.0098
1432.00,0.0075
1429.00,0.0057
1426.00,0.0048
1423.00,0.0042
1420.00,0.0039
1417.00,0.0036
1414.00,0.0035
1411.00,0.0034
1408.00,0.0034
1405.00,0.0034
1402.00,0.0034
1399.00,0.0034
1396.00,0.0036
1393.00,0.0041
1390.00,0.0049
1387.00,0.0057
1384.00,0.0066
1381.00,0.0074
1378.00,0.0081
1375.00,0.0087
1372.00,0.0090
1369.00,0.0090
1366.00,0.0088
1363.00,0.0085
1360.00,0.0083
1357.00,0.0080
1354.00,0.0078
1351.00,0.0077
1348.00,0.0076
1345.00,0.0073
1342.00,0.0068
1339.00,0.0064
1336.00,0.0066
1333.00,0.0071
1330.00,0.0076
1327.00,0.0076
1324.00,0.0074
1321.00,0.0071
1318.00,0.0071
1315.00,0.0073
1312.00,0.0073
1309.00,0.0072
1306.00,0.0069
1303.00,0.0065
1300.00,0.0062
1297.00,0.0060
1294.00,0.0060
1291.00,0.0058
1288.00,0.0056
1285.00,0.0054
1282.00,0.0053
1279.00,0.0052
1276.00,0.0050
1273.00,0.0046
1270.00,0.0043
1267.00,0.0041
1264.00,0.0040
1261.00,0.0040
1258.00,0.0040
1255.00,0.0040
1252.00,0.0040
1249.00,0.0042
1246.00,0.0042
1243.00,0.0042
1240.00,0.0041
1237.00,0.0040
1234.00,0.0039
1231.00,0.0040
1228.00,0.0040
1225.00,0.0041
1222.00,0.0041
1219.00,0.0041
1216.00,0.0042
1213.00,0.0043
1210.00,0.0045
1207.00,0.0048
1204.00,0.0053
1201.00,0.0058
1198.00,0.0061
1195.00,0.0062
1192.00,0.0063
1189.00,0.0066
1186.00,0.0073
1183.00,0.0084
1180.00,0.0085
1177.00,0.0071
1174.00,0.0059
1171.00,0.0054
1168.00,0.0052
1165.00,0.0052
1162.00,0.0057
1159.00,0.0069
1156.00,0.0086
1153.00,0.0085
1150.00,0.0066
1147.00,0.0051
1144.00,0.0044
1141.00,0.0040
1138.00,0.0037
1135.00,0.0036
1132.00,0.0035
1129.00,0.0035
1126.00,0.0036
1123.00,0.0037
1120.00,0.0041
1117.00,0.0045
1114.00,0.0048
1111.00,0.0049
1108.00,0.0048
1105.00,0.0048
1102.00,0.0048
1099.00,0.0050
1096.00,0.0053
1093.00,0.0055
1090.00,0.0058
1087.00,0.0062
1084.00,0.0067
1081.00,0.0076
1078.00,0.0085
1075.00,0.0096
1072.00,0.0110
1069.00,0.0118
1066.00,0.0112
1063.00,0.0099
1060.00,0.0085
1057.00,0.0078
1054.00,0.0071
1051.00,0.0065
1048.00,0.0062
1045.00,0.0059
1042.00,0.0059
1039.00,0.0065
1036.00,0.0088
1033.00,0.0137
1030.00,0.0187
1027.00,0.0196
1024.00,0.0160
1021.00,0.0126
1018.00,0.0106
1015.00,0.0092
1012.00,0.0084
1009.00,0.0079
1006.00,0.0082
1003.00,0.0086
1000.00,0.0075
997.00,0.0063
994.00,0.0061
991.00,0.0061
988.00,0.0064
985.00,0.0070
982.00,0.0076
979.00,0.0076
976.00,0.0073
973.00,0.0070
970.00,0.0075
967.00,0.0081
964.00,0.0085
961.00,0.0079
958.00,0.0069
955.00,0.0062
952.00,0.0060
949.00,0.0062
946.00,0.0065
943.00,0.0067
940.00,0.0065
937.00,0.0058
934.00,0.0052
931.00,0.0047
928.00,0.0046
925.00,0.0047
922.00,0.0050
919.00,0.0057
916.00,0.0069
913.00,0.0091
910.00,0.0117
907.00,0.0135
904.00,0.0127
901.00,0.0100
898.00,0.0072
895.00,0.0055
892.00,0.0048
889.00,0.0042
886.00,0.0039
883.00,0.0035
880.00,0.0035
877.00,0.0034
874.00,0.0032
871.00,0.0030
868.00,0.0030
865.00,0.0030
862.00,0.0029
859.00,0.0029
856.00,0.0031
853.00,0.0035
850.00,0.0044
847.00,0.0056
844.00,0.0067
841.00,0.0069
838.00,0.0062
835.00,0.0048
832.00,0.0038
829.00,0.0032
826.00,0.0029
823.00,0.0027
820.00,0.0028
817.00,0.0028
814.00,0.0029
811.00,0.0030
808.00,0.0030
805.00,0.0030
802.00,0.0033
799.00,0.0037
796.00,0.0042
793.00,0.0050
790.00,0.0061
787.00,0.0074
784.00,0.0090
781.00,0.0112
778.00,0.0142
775.00,0.0186
772.00,0.0244
769.00,0.0311
766.00,0.0379
763.00,0.0443
760.00,0.0511
757.00,0.0561
754.00,0.0573
751.00,0.0568
748.00,0.0561
745.00,0.0517
742.00,0.0415
739.00,0.0308
736.00,0.0222
733.00,0.0148
730.00,0.0098
727.00,0.0075
724.00,0.0064
721.00,0.0063
718.00,0.0068
715.00,0.0084
712.00,0.0128
709.00,0.0238
706.00,0.0447
703.00,0.0752
700.00,0.1119
697.00,0.1471
694.00,0.1548
691.00,0.1156
688.00,0.0751
685.00,0.0529
682.00,0.0408
679.00,0.0332
676.00,0.0286
673.00,0.0255
670.00,0.0233
667.00,0.0205
664.00,0.0184
661.00,0.0163
658.00,0.0144
655.00,0.0128
652.00,0.0113
649.00,0.0104
646.00,0.0097
643.00,0.0093
640.00,0.0092
637.00,0.0097
634.00,0.0103
631.00,0.0110
628.00,0.0115
625.00,0.0121
622.00,0.0126
619.00,0.0122
616.00,0.0113
613.00,0.0107
610.00,0.0101
607.00,0.0098
604.00,0.0098
601.00,0.0100
598.00,0.0105
595.00,0.0108
592.00,0.0112
589.00,0.0118
586.00,0.0122
583.00,0.0133
580.00,0.0146
577.00,0.0163
574.00,0.0186
571.00,0.0209
568.00,0.0232
565.00,0.0257
562.00,0.0277
559.00,0.0300
556.00,0.0325
553.00,0.0354
550.00,0.0385
547.00,0.0426
544.00,0.0476
541.00,0.0530
538.00,0.0549
535.00,0.0517
532.00,0.0447
529.00,0.0370
526.00,0.0299
523.00,0.0251
520.00,0.0223
517.00,0.0197
514.00,0.0177
511.00,0.0158
508.00,0.0144
505.00,0.0134
502.00,0.0122
499.00,0.0113
496.00,0.0107
493.00,0.0101
490.00,0.0100
487.00,0.0097
484.00,0.0089
481.00,0.0088
478.00,0.0085
475.00,0.0085
472.00,0.0082
469.00,0.0090
466.00,0.0083
463.00,0.0074
460.00,0.0073
457.00,0.0074
454.00,0.0067
451.00,0.0067
448.00,0.0071
445.00,0.0076
442.00,0.0070
439.00,0.0071
436.00,0.0074
433.00,0.0074
430.00,0.0066
427.00,0.0066
424.00,0.0052
421.00,0.0062
418.00,0.0061
415.00,0.0053
412.00,0.0057
409.00,0.0070
406.00,0.0088
403.00,0.0082
400.00,0.0021