File: FTIR/Olivia/2025_08_06_1CBN_3PVP10_MP_Powder_Scan1.csv
Created as New Dataset,Sample 1088 By YargerLab Date Wednesday, August 06 2025
cm-1,A
4000.00,0.0109
3997.00,0.0109
3994.00,0.0109
3991.00,0.0109
3988.00,0.0109
3985.00,0.0109
3982.00,0.0109
3979.00,0.0109
3976.00,0.0109
3973.00,0.0109
3970.00,0.0109
3967.00,0.0109
3964.00,0.0109
3961.00,0.0110
3958.00,0.0109
3955.00,0.0109
3952.00,0.0110
3949.00,0.0109
3946.00,0.0109
3943.00,0.0109
3940.00,0.0109
3937.00,0.0109
3934.00,0.0109
3931.00,0.0109
3928.00,0.0109
3925.00,0.0109
3922.00,0.0109
3919.00,0.0109
3916.00,0.0108
3913.00,0.0109
3910.00,0.0109
3907.00,0.0108
3904.00,0.0108
3901.00,0.0108
3898.00,0.0109
3895.00,0.0109
3892.00,0.0108
3889.00,0.0108
3886.00,0.0108
3883.00,0.0108
3880.00,0.0108
3877.00,0.0108
3874.00,0.0107
3871.00,0.0107
3868.00,0.0108
3865.00,0.0108
3862.00,0.0108
3859.00,0.0107
3856.00,0.0106
3853.00,0.0107
3850.00,0.0107
3847.00,0.0108
3844.00,0.0108
3841.00,0.0107
3838.00,0.0108
3835.00,0.0108
3832.00,0.0108
3829.00,0.0108
3826.00,0.0107
3823.00,0.0107
3820.00,0.0107
3817.00,0.0107
3814.00,0.0108
3811.00,0.0107
3808.00,0.0106
3805.00,0.0107
3802.00,0.0107
3799.00,0.0107
3796.00,0.0107
3793.00,0.0107
3790.00,0.0107
3787.00,0.0107
3784.00,0.0107
3781.00,0.0107
3778.00,0.0107
3775.00,0.0107
3772.00,0.0107
3769.00,0.0107
3766.00,0.0107
3763.00,0.0107
3760.00,0.0108
3757.00,0.0107
3754.00,0.0106
3751.00,0.0105
3748.00,0.0105
3745.00,0.0106
3742.00,0.0106
3739.00,0.0105
3736.00,0.0105
3733.00,0.0105
3730.00,0.0105
3727.00,0.0104
3724.00,0.0105
3721.00,0.0106
3718.00,0.0106
3715.00,0.0106
3712.00,0.0105
3709.00,0.0104
3706.00,0.0104
3703.00,0.0104
3700.00,0.0105
3697.00,0.0105
3694.00,0.0104
3691.00,0.0105
3688.00,0.0106
3685.00,0.0107
3682.00,0.0108
3679.00,0.0107
3676.00,0.0108
3673.00,0.0108
3670.00,0.0108
3667.00,0.0110
3664.00,0.0110
3661.00,0.0111
3658.00,0.0111
3655.00,0.0112
3652.00,0.0112
3649.00,0.0113
3646.00,0.0115
3643.00,0.0117
3640.00,0.0118
3637.00,0.0119
3634.00,0.0120
3631.00,0.0121
3628.00,0.0124
3625.00,0.0127
3622.00,0.0128
3619.00,0.0130
3616.00,0.0133
3613.00,0.0135
3610.00,0.0137
3607.00,0.0140
3604.00,0.0143
3601.00,0.0146
3598.00,0.0149
3595.00,0.0151
3592.00,0.0154
3589.00,0.0158
3586.00,0.0162
3583.00,0.0165
3580.00,0.0169
3577.00,0.0172
3574.00,0.0175
3571.00,0.0180
3568.00,0.0184
3565.00,0.0188
3562.00,0.0192
3559.00,0.0195
3556.00,0.0199
3553.00,0.0204
3550.00,0.0208
3547.00,0.0211
3544.00,0.0215
3541.00,0.0217
3538.00,0.0221
3535.00,0.0225
3532.00,0.0228
3529.00,0.0231
3526.00,0.0234
3523.00,0.0238
3520.00,0.0240
3517.00,0.0241
3514.00,0.0244
3511.00,0.0246
3508.00,0.0249
3505.00,0.0251
3502.00,0.0253
3499.00,0.0255
3496.00,0.0258
3493.00,0.0260
3490.00,0.0263
3487.00,0.0266
3484.00,0.0269
3481.00,0.0273
3478.00,0.0275
3475.00,0.0278
3472.00,0.0282
3469.00,0.0286
3466.00,0.0288
3463.00,0.0292
3460.00,0.0296
3457.00,0.0299
3454.00,0.0303
3451.00,0.0307
3448.00,0.0310
3445.00,0.0314
3442.00,0.0318
3439.00,0.0322
3436.00,0.0327
3433.00,0.0331
3430.00,0.0335
3427.00,0.0340
3424.00,0.0346
3421.00,0.0352
3418.00,0.0357
3415.00,0.0362
3412.00,0.0366
3409.00,0.0370
3406.00,0.0373
3403.00,0.0376
3400.00,0.0377
3397.00,0.0375
3394.00,0.0373
3391.00,0.0371
3388.00,0.0368
3385.00,0.0363
3382.00,0.0359
3379.00,0.0354
3376.00,0.0349
3373.00,0.0344
3370.00,0.0338
3367.00,0.0334
3364.00,0.0331
3361.00,0.0326
3358.00,0.0323
3355.00,0.0320
3352.00,0.0316
3349.00,0.0313
3346.00,0.0311
3343.00,0.0308
3340.00,0.0305
3337.00,0.0305
3334.00,0.0304
3331.00,0.0303
3328.00,0.0301
3325.00,0.0300
3322.00,0.0301
3319.00,0.0302
3316.00,0.0302
3313.00,0.0301
3310.00,0.0299
3307.00,0.0298
3304.00,0.0301
3301.00,0.0303
3298.00,0.0303
3295.00,0.0303
3292.00,0.0305
3289.00,0.0308
3286.00,0.0310
3283.00,0.0311
3280.00,0.0312
3277.00,0.0312
3274.00,0.0312
3271.00,0.0312
3268.00,0.0313
3265.00,0.0316
3262.00,0.0317
3259.00,0.0318
3256.00,0.0318
3253.00,0.0320
3250.00,0.0319
3247.00,0.0319
3244.00,0.0320
3241.00,0.0321
3238.00,0.0321
3235.00,0.0318
3232.00,0.0317
3229.00,0.0317
3226.00,0.0317
3223.00,0.0315
3220.00,0.0313
3217.00,0.0310
3214.00,0.0307
3211.00,0.0304
3208.00,0.0300
3205.00,0.0297
3202.00,0.0293
3199.00,0.0289
3196.00,0.0285
3193.00,0.0281
3190.00,0.0276
3187.00,0.0271
3184.00,0.0267
3181.00,0.0263
3178.00,0.0259
3175.00,0.0255
3172.00,0.0251
3169.00,0.0247
3166.00,0.0243
3163.00,0.0239
3160.00,0.0234
3157.00,0.0229
3154.00,0.0225
3151.00,0.0222
3148.00,0.0218
3145.00,0.0214
3142.00,0.0211
3139.00,0.0206
3136.00,0.0204
3133.00,0.0202
3130.00,0.0199
3127.00,0.0197
3124.00,0.0194
3121.00,0.0192
3118.00,0.0190
3115.00,0.0187
3112.00,0.0184
3109.00,0.0182
3106.00,0.0180
3103.00,0.0178
3100.00,0.0176
3097.00,0.0175
3094.00,0.0174
3091.00,0.0174
3088.00,0.0174
3085.00,0.0173
3082.00,0.0173
3079.00,0.0172
3076.00,0.0171
3073.00,0.0169
3070.00,0.0168
3067.00,0.0166
3064.00,0.0167
3061.00,0.0167
3058.00,0.0167
3055.00,0.0166
3052.00,0.0166
3049.00,0.0166
3046.00,0.0165
3043.00,0.0165
3040.00,0.0167
3037.00,0.0169
3034.00,0.0171
3031.00,0.0171
3028.00,0.0169
3025.00,0.0166
3022.00,0.0164
3019.00,0.0163
3016.00,0.0164
3013.00,0.0165
3010.00,0.0169
3007.00,0.0175
3004.00,0.0184
3001.00,0.0196
2998.00,0.0211
2995.00,0.0229
2992.00,0.0246
2989.00,0.0261
2986.00,0.0278
2983.00,0.0300
2980.00,0.0327
2977.00,0.0345
2974.00,0.0361
2971.00,0.0391
2968.00,0.0414
2965.00,0.0429
2962.00,0.0448
2959.00,0.0456
2956.00,0.0443
2953.00,0.0421
2950.00,0.0405
2947.00,0.0400
2944.00,0.0407
2941.00,0.0423
2938.00,0.0450
2935.00,0.0493
2932.00,0.0545
2929.00,0.0590
2926.00,0.0606
2923.00,0.0590
2920.00,0.0558
2917.00,0.0519
2914.00,0.0482
2911.00,0.0450
2908.00,0.0424
2905.00,0.0403
2902.00,0.0386
2899.00,0.0372
2896.00,0.0362
2893.00,0.0354
2890.00,0.0346
2887.00,0.0341
2884.00,0.0338
2881.00,0.0338
2878.00,0.0348
2875.00,0.0363
2872.00,0.0372
2869.00,0.0368
2866.00,0.0366
2863.00,0.0382
2860.00,0.0416
2857.00,0.0444
2854.00,0.0445
2851.00,0.0423
2848.00,0.0379
2845.00,0.0332
2842.00,0.0295
2839.00,0.0267
2836.00,0.0250
2833.00,0.0237
2830.00,0.0226
2827.00,0.0216
2824.00,0.0207
2821.00,0.0199
2818.00,0.0194
2815.00,0.0190
2812.00,0.0185
2809.00,0.0182
2806.00,0.0179
2803.00,0.0177
2800.00,0.0175
2797.00,0.0173
2794.00,0.0171
2791.00,0.0168
2788.00,0.0167
2785.00,0.0165
2782.00,0.0164
2779.00,0.0162
2776.00,0.0160
2773.00,0.0160
2770.00,0.0159
2767.00,0.0159
2764.00,0.0157
2761.00,0.0157
2758.00,0.0157
2755.00,0.0157
2752.00,0.0157
2749.00,0.0157
2746.00,0.0157
2743.00,0.0157
2740.00,0.0158
2737.00,0.0159
2734.00,0.0160
2731.00,0.0161
2728.00,0.0161
2725.00,0.0160
2722.00,0.0159
2719.00,0.0158
2716.00,0.0157
2713.00,0.0156
2710.00,0.0156
2707.00,0.0156
2704.00,0.0155
2701.00,0.0154
2698.00,0.0153
2695.00,0.0152
2692.00,0.0152
2689.00,0.0151
2686.00,0.0150
2683.00,0.0150
2680.00,0.0150
2677.00,0.0150
2674.00,0.0150
2671.00,0.0150
2668.00,0.0150
2665.00,0.0152
2662.00,0.0154
2659.00,0.0156
2656.00,0.0156
2653.00,0.0156
2650.00,0.0156
2647.00,0.0155
2644.00,0.0155
2641.00,0.0154
2638.00,0.0153
2635.00,0.0153
2632.00,0.0152
2629.00,0.0150
2626.00,0.0149
2623.00,0.0149
2620.00,0.0148
2617.00,0.0148
2614.00,0.0147
2611.00,0.0146
2608.00,0.0147
2605.00,0.0147
2602.00,0.0147
2599.00,0.0147
2596.00,0.0147
2593.00,0.0148
2590.00,0.0149
2587.00,0.0147
2584.00,0.0147
2581.00,0.0147
2578.00,0.0147
2575.00,0.0147
2572.00,0.0146
2569.00,0.0146
2566.00,0.0146
2563.00,0.0146
2560.00,0.0144
2557.00,0.0143
2554.00,0.0143
2551.00,0.0143
2548.00,0.0141
2545.00,0.0141
2542.00,0.0141
2539.00,0.0142
2536.00,0.0141
2533.00,0.0142
2530.00,0.0140
2527.00,0.0139
2524.00,0.0139
2521.00,0.0138
2518.00,0.0138
2515.00,0.0138
2512.00,0.0138
2509.00,0.0136
2506.00,0.0135
2503.00,0.0135
2500.00,0.0134
2497.00,0.0135
2494.00,0.0134
2491.00,0.0134
2488.00,0.0133
2485.00,0.0134
2482.00,0.0134
2479.00,0.0133
2476.00,0.0133
2473.00,0.0133
2470.00,0.0132
2467.00,0.0132
2464.00,0.0133
2461.00,0.0133
2458.00,0.0133
2455.00,0.0133
2452.00,0.0134
2449.00,0.0133
2446.00,0.0132
2443.00,0.0131
2440.00,0.0131
2437.00,0.0130
2434.00,0.0130
2431.00,0.0130
2428.00,0.0130
2425.00,0.0130
2422.00,0.0129
2419.00,0.0129
2416.00,0.0130
2413.00,0.0130
2410.00,0.0129
2407.00,0.0128
2404.00,0.0128
2401.00,0.0130
2398.00,0.0129
2395.00,0.0129
2392.00,0.0129
2389.00,0.0128
2386.00,0.0126
2383.00,0.0125
2380.00,0.0124
2377.00,0.0124
2374.00,0.0124
2371.00,0.0122
2368.00,0.0122
2365.00,0.0123
2362.00,0.0123
2359.00,0.0124
2356.00,0.0125
2353.00,0.0125
2350.00,0.0125
2347.00,0.0126
2344.00,0.0128
2341.00,0.0129
2338.00,0.0130
2335.00,0.0130
2332.00,0.0129
2329.00,0.0133
2326.00,0.0145
2323.00,0.0143
2320.00,0.0138
2317.00,0.0136
2314.00,0.0134
2311.00,0.0134
2308.00,0.0133
2305.00,0.0134
2302.00,0.0133
2299.00,0.0134
2296.00,0.0137
2293.00,0.0139
2290.00,0.0141
2287.00,0.0142
2284.00,0.0140
2281.00,0.0136
2278.00,0.0135
2275.00,0.0134
2272.00,0.0132
2269.00,0.0131
2266.00,0.0129
2263.00,0.0129
2260.00,0.0130
2257.00,0.0129
2254.00,0.0126
2251.00,0.0128
2248.00,0.0129
2245.00,0.0130
2242.00,0.0127
2239.00,0.0130
2236.00,0.0129
2233.00,0.0128
2230.00,0.0131
2227.00,0.0130
2224.00,0.0128
2221.00,0.0125
2218.00,0.0124
2215.00,0.0128
2212.00,0.0128
2209.00,0.0129
2206.00,0.0129
2203.00,0.0127
2200.00,0.0128
2197.00,0.0128
2194.00,0.0128
2191.00,0.0129
2188.00,0.0134
2185.00,0.0131
2182.00,0.0124
2179.00,0.0123
2176.00,0.0121
2173.00,0.0124
2170.00,0.0133
2167.00,0.0137
2164.00,0.0142
2161.00,0.0118
2158.00,0.0092
2155.00,0.0099
2152.00,0.0106
2149.00,0.0104
2146.00,0.0105
2143.00,0.0107
2140.00,0.0109
2137.00,0.0103
2134.00,0.0102
2131.00,0.0107
2128.00,0.0112
2125.00,0.0116
2122.00,0.0118
2119.00,0.0118
2116.00,0.0123
2113.00,0.0123
2110.00,0.0123
2107.00,0.0122
2104.00,0.0122
2101.00,0.0124
2098.00,0.0123
2095.00,0.0120
2092.00,0.0121
2089.00,0.0120
2086.00,0.0124
2083.00,0.0126
2080.00,0.0126
2077.00,0.0125
2074.00,0.0125
2071.00,0.0125
2068.00,0.0121
2065.00,0.0117
2062.00,0.0118
2059.00,0.0119
2056.00,0.0115
2053.00,0.0124
2050.00,0.0124
2047.00,0.0117
2044.00,0.0118
2041.00,0.0118
2038.00,0.0117
2035.00,0.0116
2032.00,0.0112
2029.00,0.0109
2026.00,0.0109
2023.00,0.0108
2020.00,0.0112
2017.00,0.0103
2014.00,0.0104
2011.00,0.0113
2008.00,0.0101
2005.00,0.0096
2002.00,0.0107
1999.00,0.0108
1996.00,0.0112
1993.00,0.0114
1990.00,0.0114
1987.00,0.0117
1984.00,0.0118
1981.00,0.0122
1978.00,0.0106
1975.00,0.0102
1972.00,0.0101
1969.00,0.0098
1966.00,0.0099
1963.00,0.0101
1960.00,0.0097
1957.00,0.0100
1954.00,0.0102
1951.00,0.0101
1948.00,0.0100
1945.00,0.0102
1942.00,0.0102
1939.00,0.0103
1936.00,0.0103
1933.00,0.0103
1930.00,0.0104
1927.00,0.0106
1924.00,0.0107
1921.00,0.0106
1918.00,0.0105
1915.00,0.0109
1912.00,0.0115
1909.00,0.0121
1906.00,0.0118
1903.00,0.0113
1900.00,0.0111
1897.00,0.0113
1894.00,0.0114
1891.00,0.0114
1888.00,0.0109
1885.00,0.0109
1882.00,0.0109
1879.00,0.0110
1876.00,0.0110
1873.00,0.0108
1870.00,0.0109
1867.00,0.0108
1864.00,0.0109
1861.00,0.0110
1858.00,0.0109
1855.00,0.0110
1852.00,0.0111
1849.00,0.0112
1846.00,0.0110
1843.00,0.0111
1840.00,0.0112
1837.00,0.0111
1834.00,0.0109
1831.00,0.0109
1828.00,0.0107
1825.00,0.0107
1822.00,0.0109
1819.00,0.0107
1816.00,0.0106
1813.00,0.0108
1810.00,0.0108
1807.00,0.0109
1804.00,0.0109
1801.00,0.0110
1798.00,0.0112
1795.00,0.0110
1792.00,0.0107
1789.00,0.0109
1786.00,0.0109
1783.00,0.0111
1780.00,0.0111
1777.00,0.0112
1774.00,0.0111
1771.00,0.0110
1768.00,0.0111
1765.00,0.0112
1762.00,0.0111
1759.00,0.0115
1756.00,0.0112
1753.00,0.0112
1750.00,0.0113
1747.00,0.0115
1744.00,0.0115
1741.00,0.0112
1738.00,0.0113
1735.00,0.0114
1732.00,0.0123
1729.00,0.0129
1726.00,0.0136
1723.00,0.0142
1720.00,0.0145
1717.00,0.0151
1714.00,0.0164
1711.00,0.0179
1708.00,0.0194
1705.00,0.0215
1702.00,0.0235
1699.00,0.0305
1696.00,0.0376
1693.00,0.0470
1690.00,0.0563
1687.00,0.0653
1684.00,0.0768
1681.00,0.0884
1678.00,0.0964
1675.00,0.1056
1672.00,0.1139
1669.00,0.1220
1666.00,0.1290
1663.00,0.1348
1660.00,0.1407
1657.00,0.1430
1654.00,0.1433
1651.00,0.1452
1648.00,0.1414
1645.00,0.1345
1642.00,0.1268
1639.00,0.1170
1636.00,0.1057
1633.00,0.0988
1630.00,0.0968
1627.00,0.1011
1624.00,0.1056
1621.00,0.1053
1618.00,0.0969
1615.00,0.0837
1612.00,0.0802
1609.00,0.0761
1606.00,0.0671
1603.00,0.0573
1600.00,0.0498
1597.00,0.0455
1594.00,0.0447
1591.00,0.0486
1588.00,0.0561
1585.00,0.0614
1582.00,0.0610
1579.00,0.0569
1576.00,0.0500
1573.00,0.0451
1570.00,0.0420
1567.00,0.0396
1564.00,0.0354
1561.00,0.0309
1558.00,0.0270
1555.00,0.0268
1552.00,0.0262
1549.00,0.0253
1546.00,0.0247
1543.00,0.0239
1540.00,0.0236
1537.00,0.0228
1534.00,0.0223
1531.00,0.0222
1528.00,0.0221
1525.00,0.0219
1522.00,0.0221
1519.00,0.0234
1516.00,0.0248
1513.00,0.0264
1510.00,0.0279
1507.00,0.0287
1504.00,0.0328
1501.00,0.0380
1498.00,0.0483
1495.00,0.0558
1492.00,0.0521
1489.00,0.0434
1486.00,0.0365
1483.00,0.0323
1480.00,0.0299
1477.00,0.0299
1474.00,0.0327
1471.00,0.0424
1468.00,0.0564
1465.00,0.0701
1462.00,0.0767
1459.00,0.0765
1456.00,0.0681
1453.00,0.0623
1450.00,0.0610
1447.00,0.0657
1444.00,0.0750
1441.00,0.0858
1438.00,0.0935
1435.00,0.1011
1432.00,0.1060
1429.00,0.1107
1426.00,0.1161
1423.00,0.1198
1420.00,0.1154
1417.00,0.1005
1414.00,0.0853
1411.00,0.0741
1408.00,0.0699
1405.00,0.0718
1402.00,0.0751
1399.00,0.0740
1396.00,0.0672
1393.00,0.0583
1390.00,0.0543
1387.00,0.0570
1384.00,0.0574
1381.00,0.0582
1378.00,0.0605
1375.00,0.0591
1372.00,0.0550
1369.00,0.0559
1366.00,0.0607
1363.00,0.0623
1360.00,0.0653
1357.00,0.0599
1354.00,0.0528
1351.00,0.0501
1348.00,0.0497
1345.00,0.0486
1342.00,0.0460
1339.00,0.0427
1336.00,0.0414
1333.00,0.0433
1330.00,0.0461
1327.00,0.0483
1324.00,0.0503
1321.00,0.0531
1318.00,0.0547
1315.00,0.0536
1312.00,0.0514
1309.00,0.0510
1306.00,0.0546
1303.00,0.0635
1300.00,0.0731
1297.00,0.0813
1294.00,0.0950
1291.00,0.1094
1288.00,0.1210
1285.00,0.1281
1282.00,0.1261
1279.00,0.1171
1276.00,0.1113
1273.00,0.1100
1270.00,0.1074
1267.00,0.1006
1264.00,0.0909
1261.00,0.0803
1258.00,0.0712
1255.00,0.0647
1252.00,0.0609
1249.00,0.0605
1246.00,0.0636
1243.00,0.0673
1240.00,0.0705
1237.00,0.0763
1234.00,0.0824
1231.00,0.0820
1228.00,0.0770
1225.00,0.0724
1222.00,0.0699
1219.00,0.0699
1216.00,0.0717
1213.00,0.0710
1210.00,0.0652
1207.00,0.0594
1204.00,0.0579
1201.00,0.0614
1198.00,0.0681
1195.00,0.0746
1192.00,0.0730
1189.00,0.0650
1186.00,0.0564
1183.00,0.0508
1180.00,0.0481
1177.00,0.0473
1174.00,0.0476
1171.00,0.0484
1168.00,0.0488
1165.00,0.0490
1162.00,0.0506
1159.00,0.0572
1156.00,0.0689
1153.00,0.0695
1150.00,0.0554
1147.00,0.0452
1144.00,0.0414
1141.00,0.0400
1138.00,0.0406
1135.00,0.0457
1132.00,0.0591
1129.00,0.0730
1126.00,0.0724
1123.00,0.0623
1120.00,0.0517
1117.00,0.0468
1114.00,0.0457
1111.00,0.0439
1108.00,0.0421
1105.00,0.0440
1102.00,0.0520
1099.00,0.0582
1096.00,0.0519
1093.00,0.0431
1090.00,0.0388
1087.00,0.0369
1084.00,0.0360
1081.00,0.0359
1078.00,0.0366
1075.00,0.0374
1072.00,0.0384
1069.00,0.0397
1066.00,0.0418
1063.00,0.0462
1060.00,0.0562
1057.00,0.0734
1054.00,0.0875
1051.00,0.0913
1048.00,0.0885
1045.00,0.0778
1042.00,0.0644
1039.00,0.0559
1036.00,0.0547
1033.00,0.0574
1030.00,0.0680
1027.00,0.0827
1024.00,0.0791
1021.00,0.0653
1018.00,0.0556
1015.00,0.0490
1012.00,0.0447
1009.00,0.0449
1006.00,0.0504
1003.00,0.0550
1000.00,0.0532
997.00,0.0493
994.00,0.0463
991.00,0.0426
988.00,0.0387
985.00,0.0360
982.00,0.0344
979.00,0.0337
976.00,0.0335
973.00,0.0332
970.00,0.0326
967.00,0.0324
964.00,0.0329
961.00,0.0334
958.00,0.0312
955.00,0.0291
952.00,0.0283
949.00,0.0290
946.00,0.0293
943.00,0.0299
940.00,0.0323
937.00,0.0351
934.00,0.0375
931.00,0.0376
928.00,0.0357
925.00,0.0360
922.00,0.0377
919.00,0.0357
916.00,0.0319
913.00,0.0298
910.00,0.0291
907.00,0.0295
904.00,0.0319
901.00,0.0372
898.00,0.0397
895.00,0.0366
892.00,0.0371
889.00,0.0388
886.00,0.0329
883.00,0.0306
880.00,0.0317
877.00,0.0366
874.00,0.0472
871.00,0.0591
868.00,0.0601
865.00,0.0527
862.00,0.0459
859.00,0.0422
856.00,0.0461
853.00,0.0540
850.00,0.0624
847.00,0.0635
844.00,0.0570
841.00,0.0530
838.00,0.0549
835.00,0.0618
832.00,0.0625
829.00,0.0540
826.00,0.0442
823.00,0.0477
820.00,0.0645
817.00,0.0711
814.00,0.0683
811.00,0.0477
808.00,0.0381
805.00,0.0342
802.00,0.0324
799.00,0.0314
796.00,0.0311
793.00,0.0308
790.00,0.0306
787.00,0.0306
784.00,0.0311
781.00,0.0314
778.00,0.0329
775.00,0.0370
772.00,0.0368
769.00,0.0349
766.00,0.0351
763.00,0.0367
760.00,0.0395
757.00,0.0405
754.00,0.0406
751.00,0.0416
748.00,0.0432
745.00,0.0452
742.00,0.0479
739.00,0.0533
736.00,0.0631
733.00,0.0656
730.00,0.0635
727.00,0.0616
724.00,0.0535
721.00,0.0490
718.00,0.0498
715.00,0.0529
712.00,0.0521
709.00,0.0497
706.00,0.0492
703.00,0.0507
700.00,0.0530
697.00,0.0546
694.00,0.0539
691.00,0.0555
688.00,0.0598
685.00,0.0592
682.00,0.0584
679.00,0.0599
676.00,0.0637
673.00,0.0688
670.00,0.0723
667.00,0.0732
664.00,0.0749
661.00,0.0785
658.00,0.0790
655.00,0.0791
652.00,0.0805
649.00,0.0814
646.00,0.0811
643.00,0.0796
640.00,0.0776
637.00,0.0757
634.00,0.0740
631.00,0.0727
628.00,0.0722
625.00,0.0731
622.00,0.0753
619.00,0.0765
616.00,0.0742
613.00,0.0713
610.00,0.0712
607.00,0.0765
604.00,0.0835
601.00,0.0871
598.00,0.0879
595.00,0.0883
592.00,0.0885
589.00,0.0887
586.00,0.0892
583.00,0.0920
580.00,0.0965
577.00,0.1039
574.00,0.1040
571.00,0.0987
568.00,0.0950
565.00,0.0951
562.00,0.0976
559.00,0.0991
556.00,0.0950
553.00,0.0918
550.00,0.0933
547.00,0.0974
544.00,0.0970
541.00,0.0927
538.00,0.0894
535.00,0.0901
532.00,0.0945
529.00,0.0945
526.00,0.0892
523.00,0.0851
520.00,0.0832
517.00,0.0820
514.00,0.0809
511.00,0.0810
508.00,0.0822
505.00,0.0833
502.00,0.0818
499.00,0.0806
496.00,0.0811
493.00,0.0833
490.00,0.0839
487.00,0.0820
484.00,0.0805
481.00,0.0807
478.00,0.0803
475.00,0.0787
472.00,0.0792
469.00,0.0801
466.00,0.0789
463.00,0.0781
460.00,0.0774
457.00,0.0775
454.00,0.0772
451.00,0.0755
448.00,0.0751
445.00,0.0745
442.00,0.0734
439.00,0.0725
436.00,0.0707
433.00,0.0703
430.00,0.0688
427.00,0.0663
424.00,0.0663
421.00,0.0669
418.00,0.0652
415.00,0.0639
412.00,0.0677
409.00,0.0701
406.00,0.0668
403.00,0.0622
400.00,0.0652