File: FTIR/Olivia/2025_08_04_1CBN_3PVP90kDa_MortPest_powder_scan2.csv
Created as New Dataset,Sample 1052 By YargerLab Date Monday, August 04 2025
cm-1,A
4000.00,0.0043
3997.00,0.0043
3994.00,0.0042
3991.00,0.0042
3988.00,0.0042
3985.00,0.0043
3982.00,0.0043
3979.00,0.0043
3976.00,0.0043
3973.00,0.0042
3970.00,0.0043
3967.00,0.0043
3964.00,0.0042
3961.00,0.0042
3958.00,0.0042
3955.00,0.0042
3952.00,0.0042
3949.00,0.0042
3946.00,0.0042
3943.00,0.0042
3940.00,0.0042
3937.00,0.0042
3934.00,0.0042
3931.00,0.0042
3928.00,0.0042
3925.00,0.0042
3922.00,0.0042
3919.00,0.0042
3916.00,0.0042
3913.00,0.0042
3910.00,0.0042
3907.00,0.0042
3904.00,0.0041
3901.00,0.0042
3898.00,0.0042
3895.00,0.0042
3892.00,0.0041
3889.00,0.0041
3886.00,0.0041
3883.00,0.0041
3880.00,0.0041
3877.00,0.0042
3874.00,0.0041
3871.00,0.0041
3868.00,0.0041
3865.00,0.0041
3862.00,0.0041
3859.00,0.0041
3856.00,0.0041
3853.00,0.0041
3850.00,0.0040
3847.00,0.0041
3844.00,0.0041
3841.00,0.0041
3838.00,0.0040
3835.00,0.0041
3832.00,0.0042
3829.00,0.0041
3826.00,0.0041
3823.00,0.0041
3820.00,0.0042
3817.00,0.0040
3814.00,0.0041
3811.00,0.0041
3808.00,0.0041
3805.00,0.0040
3802.00,0.0040
3799.00,0.0040
3796.00,0.0041
3793.00,0.0041
3790.00,0.0042
3787.00,0.0042
3784.00,0.0042
3781.00,0.0042
3778.00,0.0041
3775.00,0.0042
3772.00,0.0042
3769.00,0.0041
3766.00,0.0041
3763.00,0.0042
3760.00,0.0042
3757.00,0.0042
3754.00,0.0041
3751.00,0.0040
3748.00,0.0039
3745.00,0.0040
3742.00,0.0041
3739.00,0.0040
3736.00,0.0040
3733.00,0.0039
3730.00,0.0039
3727.00,0.0040
3724.00,0.0041
3721.00,0.0041
3718.00,0.0041
3715.00,0.0040
3712.00,0.0040
3709.00,0.0040
3706.00,0.0039
3703.00,0.0040
3700.00,0.0040
3697.00,0.0040
3694.00,0.0040
3691.00,0.0040
3688.00,0.0039
3685.00,0.0039
3682.00,0.0040
3679.00,0.0041
3676.00,0.0040
3673.00,0.0040
3670.00,0.0041
3667.00,0.0041
3664.00,0.0042
3661.00,0.0042
3658.00,0.0042
3655.00,0.0042
3652.00,0.0042
3649.00,0.0042
3646.00,0.0043
3643.00,0.0044
3640.00,0.0044
3637.00,0.0044
3634.00,0.0045
3631.00,0.0045
3628.00,0.0046
3625.00,0.0046
3622.00,0.0047
3619.00,0.0048
3616.00,0.0048
3613.00,0.0049
3610.00,0.0050
3607.00,0.0052
3604.00,0.0052
3601.00,0.0053
3598.00,0.0054
3595.00,0.0055
3592.00,0.0056
3589.00,0.0057
3586.00,0.0058
3583.00,0.0059
3580.00,0.0060
3577.00,0.0061
3574.00,0.0062
3571.00,0.0063
3568.00,0.0064
3565.00,0.0066
3562.00,0.0068
3559.00,0.0070
3556.00,0.0071
3553.00,0.0072
3550.00,0.0073
3547.00,0.0075
3544.00,0.0077
3541.00,0.0078
3538.00,0.0079
3535.00,0.0081
3532.00,0.0083
3529.00,0.0084
3526.00,0.0085
3523.00,0.0087
3520.00,0.0089
3517.00,0.0090
3514.00,0.0091
3511.00,0.0092
3508.00,0.0094
3505.00,0.0095
3502.00,0.0097
3499.00,0.0099
3496.00,0.0101
3493.00,0.0104
3490.00,0.0106
3487.00,0.0108
3484.00,0.0111
3481.00,0.0113
3478.00,0.0116
3475.00,0.0119
3472.00,0.0123
3469.00,0.0126
3466.00,0.0129
3463.00,0.0133
3460.00,0.0137
3457.00,0.0140
3454.00,0.0144
3451.00,0.0148
3448.00,0.0152
3445.00,0.0156
3442.00,0.0160
3439.00,0.0165
3436.00,0.0171
3433.00,0.0176
3430.00,0.0182
3427.00,0.0188
3424.00,0.0195
3421.00,0.0202
3418.00,0.0209
3415.00,0.0215
3412.00,0.0220
3409.00,0.0225
3406.00,0.0229
3403.00,0.0231
3400.00,0.0232
3397.00,0.0231
3394.00,0.0230
3391.00,0.0228
3388.00,0.0224
3385.00,0.0220
3382.00,0.0216
3379.00,0.0212
3376.00,0.0207
3373.00,0.0202
3370.00,0.0198
3367.00,0.0194
3364.00,0.0191
3361.00,0.0188
3358.00,0.0185
3355.00,0.0183
3352.00,0.0180
3349.00,0.0178
3346.00,0.0177
3343.00,0.0175
3340.00,0.0174
3337.00,0.0173
3334.00,0.0173
3331.00,0.0173
3328.00,0.0173
3325.00,0.0173
3322.00,0.0174
3319.00,0.0174
3316.00,0.0175
3313.00,0.0177
3310.00,0.0177
3307.00,0.0178
3304.00,0.0180
3301.00,0.0183
3298.00,0.0185
3295.00,0.0186
3292.00,0.0189
3289.00,0.0192
3286.00,0.0195
3283.00,0.0197
3280.00,0.0199
3277.00,0.0201
3274.00,0.0203
3271.00,0.0205
3268.00,0.0208
3265.00,0.0210
3262.00,0.0212
3259.00,0.0215
3256.00,0.0217
3253.00,0.0220
3250.00,0.0221
3247.00,0.0222
3244.00,0.0225
3241.00,0.0225
3238.00,0.0226
3235.00,0.0225
3232.00,0.0225
3229.00,0.0226
3226.00,0.0225
3223.00,0.0223
3220.00,0.0221
3217.00,0.0220
3214.00,0.0218
3211.00,0.0215
3208.00,0.0212
3205.00,0.0208
3202.00,0.0204
3199.00,0.0200
3196.00,0.0196
3193.00,0.0192
3190.00,0.0188
3187.00,0.0184
3184.00,0.0180
3181.00,0.0176
3178.00,0.0172
3175.00,0.0168
3172.00,0.0164
3169.00,0.0160
3166.00,0.0155
3163.00,0.0151
3160.00,0.0147
3157.00,0.0143
3154.00,0.0138
3151.00,0.0134
3148.00,0.0131
3145.00,0.0128
3142.00,0.0124
3139.00,0.0120
3136.00,0.0118
3133.00,0.0115
3130.00,0.0112
3127.00,0.0110
3124.00,0.0108
3121.00,0.0106
3118.00,0.0104
3115.00,0.0102
3112.00,0.0099
3109.00,0.0097
3106.00,0.0094
3103.00,0.0092
3100.00,0.0090
3097.00,0.0090
3094.00,0.0089
3091.00,0.0090
3088.00,0.0091
3085.00,0.0091
3082.00,0.0090
3079.00,0.0089
3076.00,0.0089
3073.00,0.0087
3070.00,0.0086
3067.00,0.0086
3064.00,0.0086
3061.00,0.0086
3058.00,0.0086
3055.00,0.0087
3052.00,0.0087
3049.00,0.0087
3046.00,0.0086
3043.00,0.0085
3040.00,0.0087
3037.00,0.0090
3034.00,0.0092
3031.00,0.0092
3028.00,0.0090
3025.00,0.0087
3022.00,0.0084
3019.00,0.0082
3016.00,0.0081
3013.00,0.0081
3010.00,0.0083
3007.00,0.0086
3004.00,0.0092
3001.00,0.0100
2998.00,0.0111
2995.00,0.0125
2992.00,0.0135
2989.00,0.0143
2986.00,0.0153
2983.00,0.0170
2980.00,0.0194
2977.00,0.0206
2974.00,0.0220
2971.00,0.0250
2968.00,0.0267
2965.00,0.0279
2962.00,0.0297
2959.00,0.0301
2956.00,0.0283
2953.00,0.0256
2950.00,0.0238
2947.00,0.0236
2944.00,0.0248
2941.00,0.0270
2938.00,0.0303
2935.00,0.0352
2932.00,0.0411
2929.00,0.0460
2926.00,0.0477
2923.00,0.0457
2920.00,0.0420
2917.00,0.0378
2914.00,0.0338
2911.00,0.0307
2908.00,0.0282
2905.00,0.0261
2902.00,0.0244
2899.00,0.0229
2896.00,0.0216
2893.00,0.0206
2890.00,0.0197
2887.00,0.0190
2884.00,0.0186
2881.00,0.0187
2878.00,0.0200
2875.00,0.0219
2872.00,0.0230
2869.00,0.0228
2866.00,0.0230
2863.00,0.0253
2860.00,0.0297
2857.00,0.0334
2854.00,0.0340
2851.00,0.0320
2848.00,0.0272
2845.00,0.0221
2842.00,0.0183
2839.00,0.0156
2836.00,0.0140
2833.00,0.0128
2830.00,0.0119
2827.00,0.0111
2824.00,0.0105
2821.00,0.0101
2818.00,0.0097
2815.00,0.0093
2812.00,0.0091
2809.00,0.0089
2806.00,0.0087
2803.00,0.0086
2800.00,0.0084
2797.00,0.0082
2794.00,0.0080
2791.00,0.0078
2788.00,0.0076
2785.00,0.0075
2782.00,0.0074
2779.00,0.0073
2776.00,0.0072
2773.00,0.0071
2770.00,0.0071
2767.00,0.0071
2764.00,0.0070
2761.00,0.0070
2758.00,0.0070
2755.00,0.0070
2752.00,0.0070
2749.00,0.0070
2746.00,0.0071
2743.00,0.0072
2740.00,0.0072
2737.00,0.0074
2734.00,0.0076
2731.00,0.0077
2728.00,0.0077
2725.00,0.0075
2722.00,0.0074
2719.00,0.0074
2716.00,0.0072
2713.00,0.0072
2710.00,0.0071
2707.00,0.0071
2704.00,0.0071
2701.00,0.0071
2698.00,0.0070
2695.00,0.0069
2692.00,0.0068
2689.00,0.0068
2686.00,0.0067
2683.00,0.0067
2680.00,0.0066
2677.00,0.0066
2674.00,0.0066
2671.00,0.0067
2668.00,0.0068
2665.00,0.0069
2662.00,0.0070
2659.00,0.0071
2656.00,0.0072
2653.00,0.0072
2650.00,0.0072
2647.00,0.0072
2644.00,0.0072
2641.00,0.0072
2638.00,0.0071
2635.00,0.0070
2632.00,0.0069
2629.00,0.0068
2626.00,0.0066
2623.00,0.0066
2620.00,0.0065
2617.00,0.0064
2614.00,0.0064
2611.00,0.0065
2608.00,0.0065
2605.00,0.0065
2602.00,0.0066
2599.00,0.0067
2596.00,0.0067
2593.00,0.0067
2590.00,0.0067
2587.00,0.0067
2584.00,0.0066
2581.00,0.0066
2578.00,0.0066
2575.00,0.0065
2572.00,0.0065
2569.00,0.0065
2566.00,0.0065
2563.00,0.0064
2560.00,0.0063
2557.00,0.0062
2554.00,0.0061
2551.00,0.0060
2548.00,0.0060
2545.00,0.0060
2542.00,0.0061
2539.00,0.0061
2536.00,0.0061
2533.00,0.0061
2530.00,0.0061
2527.00,0.0060
2524.00,0.0059
2521.00,0.0058
2518.00,0.0057
2515.00,0.0057
2512.00,0.0058
2509.00,0.0056
2506.00,0.0056
2503.00,0.0056
2500.00,0.0055
2497.00,0.0055
2494.00,0.0055
2491.00,0.0054
2488.00,0.0055
2485.00,0.0054
2482.00,0.0054
2479.00,0.0053
2476.00,0.0053
2473.00,0.0053
2470.00,0.0053
2467.00,0.0053
2464.00,0.0053
2461.00,0.0053
2458.00,0.0054
2455.00,0.0054
2452.00,0.0053
2449.00,0.0053
2446.00,0.0052
2443.00,0.0052
2440.00,0.0052
2437.00,0.0051
2434.00,0.0051
2431.00,0.0051
2428.00,0.0051
2425.00,0.0049
2422.00,0.0049
2419.00,0.0050
2416.00,0.0050
2413.00,0.0050
2410.00,0.0051
2407.00,0.0050
2404.00,0.0050
2401.00,0.0049
2398.00,0.0049
2395.00,0.0048
2392.00,0.0048
2389.00,0.0048
2386.00,0.0048
2383.00,0.0047
2380.00,0.0046
2377.00,0.0046
2374.00,0.0045
2371.00,0.0045
2368.00,0.0043
2365.00,0.0043
2362.00,0.0045
2359.00,0.0045
2356.00,0.0053
2353.00,0.0054
2350.00,0.0054
2347.00,0.0053
2344.00,0.0055
2341.00,0.0048
2338.00,0.0048
2335.00,0.0048
2332.00,0.0047
2329.00,0.0050
2326.00,0.0059
2323.00,0.0058
2320.00,0.0054
2317.00,0.0052
2314.00,0.0052
2311.00,0.0052
2308.00,0.0052
2305.00,0.0051
2302.00,0.0052
2299.00,0.0053
2296.00,0.0055
2293.00,0.0057
2290.00,0.0058
2287.00,0.0059
2284.00,0.0058
2281.00,0.0056
2278.00,0.0054
2275.00,0.0054
2272.00,0.0052
2269.00,0.0050
2266.00,0.0048
2263.00,0.0046
2260.00,0.0046
2257.00,0.0046
2254.00,0.0045
2251.00,0.0047
2248.00,0.0047
2245.00,0.0048
2242.00,0.0049
2239.00,0.0050
2236.00,0.0047
2233.00,0.0046
2230.00,0.0048
2227.00,0.0048
2224.00,0.0046
2221.00,0.0046
2218.00,0.0047
2215.00,0.0048
2212.00,0.0048
2209.00,0.0046
2206.00,0.0047
2203.00,0.0046
2200.00,0.0044
2197.00,0.0046
2194.00,0.0048
2191.00,0.0049
2188.00,0.0051
2185.00,0.0049
2182.00,0.0044
2179.00,0.0044
2176.00,0.0041
2173.00,0.0044
2170.00,0.0053
2167.00,0.0056
2164.00,0.0052
2161.00,0.0041
2158.00,0.0021
2155.00,0.0023
2152.00,0.0026
2149.00,0.0031
2146.00,0.0031
2143.00,0.0030
2140.00,0.0033
2137.00,0.0031
2134.00,0.0026
2131.00,0.0030
2128.00,0.0034
2125.00,0.0037
2122.00,0.0039
2119.00,0.0041
2116.00,0.0043
2113.00,0.0043
2110.00,0.0043
2107.00,0.0043
2104.00,0.0040
2101.00,0.0040
2098.00,0.0037
2095.00,0.0034
2092.00,0.0037
2089.00,0.0040
2086.00,0.0041
2083.00,0.0042
2080.00,0.0043
2077.00,0.0043
2074.00,0.0045
2071.00,0.0042
2068.00,0.0040
2065.00,0.0038
2062.00,0.0037
2059.00,0.0038
2056.00,0.0037
2053.00,0.0041
2050.00,0.0042
2047.00,0.0036
2044.00,0.0038
2041.00,0.0040
2038.00,0.0042
2035.00,0.0039
2032.00,0.0034
2029.00,0.0033
2026.00,0.0038
2023.00,0.0037
2020.00,0.0034
2017.00,0.0032
2014.00,0.0031
2011.00,0.0032
2008.00,0.0028
2005.00,0.0025
2002.00,0.0029
1999.00,0.0032
1996.00,0.0033
1993.00,0.0037
1990.00,0.0039
1987.00,0.0040
1984.00,0.0042
1981.00,0.0047
1978.00,0.0037
1975.00,0.0029
1972.00,0.0030
1969.00,0.0033
1966.00,0.0032
1963.00,0.0031
1960.00,0.0029
1957.00,0.0031
1954.00,0.0034
1951.00,0.0034
1948.00,0.0033
1945.00,0.0034
1942.00,0.0034
1939.00,0.0035
1936.00,0.0033
1933.00,0.0034
1930.00,0.0036
1927.00,0.0037
1924.00,0.0037
1921.00,0.0039
1918.00,0.0038
1915.00,0.0039
1912.00,0.0045
1909.00,0.0051
1906.00,0.0049
1903.00,0.0043
1900.00,0.0042
1897.00,0.0043
1894.00,0.0047
1891.00,0.0045
1888.00,0.0041
1885.00,0.0041
1882.00,0.0040
1879.00,0.0040
1876.00,0.0040
1873.00,0.0041
1870.00,0.0043
1867.00,0.0043
1864.00,0.0042
1861.00,0.0043
1858.00,0.0043
1855.00,0.0042
1852.00,0.0043
1849.00,0.0046
1846.00,0.0047
1843.00,0.0044
1840.00,0.0043
1837.00,0.0042
1834.00,0.0042
1831.00,0.0043
1828.00,0.0043
1825.00,0.0043
1822.00,0.0042
1819.00,0.0041
1816.00,0.0039
1813.00,0.0041
1810.00,0.0043
1807.00,0.0042
1804.00,0.0044
1801.00,0.0045
1798.00,0.0046
1795.00,0.0048
1792.00,0.0048
1789.00,0.0046
1786.00,0.0046
1783.00,0.0047
1780.00,0.0048
1777.00,0.0050
1774.00,0.0053
1771.00,0.0052
1768.00,0.0050
1765.00,0.0049
1762.00,0.0052
1759.00,0.0053
1756.00,0.0051
1753.00,0.0051
1750.00,0.0054
1747.00,0.0055
1744.00,0.0056
1741.00,0.0054
1738.00,0.0054
1735.00,0.0054
1732.00,0.0057
1729.00,0.0061
1726.00,0.0063
1723.00,0.0066
1720.00,0.0068
1717.00,0.0071
1714.00,0.0075
1711.00,0.0080
1708.00,0.0085
1705.00,0.0093
1702.00,0.0097
1699.00,0.0114
1696.00,0.0133
1693.00,0.0159
1690.00,0.0185
1687.00,0.0204
1684.00,0.0235
1681.00,0.0262
1678.00,0.0277
1675.00,0.0299
1672.00,0.0319
1669.00,0.0342
1666.00,0.0357
1663.00,0.0373
1660.00,0.0390
1657.00,0.0394
1654.00,0.0393
1651.00,0.0419
1648.00,0.0412
1645.00,0.0414
1642.00,0.0405
1639.00,0.0392
1636.00,0.0379
1633.00,0.0389
1630.00,0.0431
1627.00,0.0539
1624.00,0.0633
1621.00,0.0675
1618.00,0.0617
1615.00,0.0532
1612.00,0.0522
1609.00,0.0507
1606.00,0.0434
1603.00,0.0351
1600.00,0.0289
1597.00,0.0258
1594.00,0.0261
1591.00,0.0310
1588.00,0.0395
1585.00,0.0461
1582.00,0.0470
1579.00,0.0433
1576.00,0.0370
1573.00,0.0323
1570.00,0.0296
1567.00,0.0270
1564.00,0.0228
1561.00,0.0187
1558.00,0.0152
1555.00,0.0141
1552.00,0.0134
1549.00,0.0129
1546.00,0.0125
1543.00,0.0121
1540.00,0.0112
1537.00,0.0110
1534.00,0.0110
1531.00,0.0107
1528.00,0.0108
1525.00,0.0111
1522.00,0.0116
1519.00,0.0127
1516.00,0.0142
1513.00,0.0155
1510.00,0.0169
1507.00,0.0174
1504.00,0.0185
1501.00,0.0218
1498.00,0.0302
1495.00,0.0354
1492.00,0.0303
1489.00,0.0235
1486.00,0.0186
1483.00,0.0161
1480.00,0.0151
1477.00,0.0155
1474.00,0.0173
1471.00,0.0234
1468.00,0.0328
1465.00,0.0394
1462.00,0.0400
1459.00,0.0396
1456.00,0.0369
1453.00,0.0342
1450.00,0.0343
1447.00,0.0372
1444.00,0.0418
1441.00,0.0468
1438.00,0.0498
1435.00,0.0539
1432.00,0.0571
1429.00,0.0596
1426.00,0.0595
1423.00,0.0582
1420.00,0.0548
1417.00,0.0493
1414.00,0.0435
1411.00,0.0409
1408.00,0.0429
1405.00,0.0493
1402.00,0.0555
1399.00,0.0565
1396.00,0.0506
1393.00,0.0416
1390.00,0.0371
1387.00,0.0395
1384.00,0.0379
1381.00,0.0368
1378.00,0.0375
1375.00,0.0346
1372.00,0.0303
1369.00,0.0321
1366.00,0.0386
1363.00,0.0419
1360.00,0.0473
1357.00,0.0424
1354.00,0.0363
1351.00,0.0347
1348.00,0.0351
1345.00,0.0343
1342.00,0.0313
1339.00,0.0278
1336.00,0.0262
1333.00,0.0277
1330.00,0.0296
1327.00,0.0300
1324.00,0.0295
1321.00,0.0294
1318.00,0.0290
1315.00,0.0272
1312.00,0.0263
1309.00,0.0278
1306.00,0.0327
1303.00,0.0414
1300.00,0.0473
1297.00,0.0474
1294.00,0.0497
1291.00,0.0516
1288.00,0.0542
1285.00,0.0589
1282.00,0.0595
1279.00,0.0536
1276.00,0.0475
1273.00,0.0444
1270.00,0.0417
1267.00,0.0388
1264.00,0.0355
1261.00,0.0320
1258.00,0.0290
1255.00,0.0271
1252.00,0.0268
1249.00,0.0288
1246.00,0.0334
1243.00,0.0375
1240.00,0.0402
1237.00,0.0454
1234.00,0.0507
1231.00,0.0489
1228.00,0.0428
1225.00,0.0381
1222.00,0.0359
1219.00,0.0365
1216.00,0.0392
1213.00,0.0395
1210.00,0.0348
1207.00,0.0302
1204.00,0.0300
1201.00,0.0351
1198.00,0.0432
1195.00,0.0507
1192.00,0.0494
1189.00,0.0411
1186.00,0.0323
1183.00,0.0265
1180.00,0.0236
1177.00,0.0224
1174.00,0.0218
1171.00,0.0217
1168.00,0.0216
1165.00,0.0221
1162.00,0.0246
1159.00,0.0325
1156.00,0.0458
1153.00,0.0468
1150.00,0.0327
1147.00,0.0232
1144.00,0.0202
1141.00,0.0198
1138.00,0.0213
1135.00,0.0271
1132.00,0.0411
1129.00,0.0553
1126.00,0.0545
1123.00,0.0438
1120.00,0.0327
1117.00,0.0278
1114.00,0.0268
1111.00,0.0249
1108.00,0.0232
1105.00,0.0251
1102.00,0.0332
1099.00,0.0390
1096.00,0.0322
1093.00,0.0234
1090.00,0.0191
1087.00,0.0173
1084.00,0.0167
1081.00,0.0166
1078.00,0.0170
1075.00,0.0175
1072.00,0.0186
1069.00,0.0203
1066.00,0.0227
1063.00,0.0271
1060.00,0.0371
1057.00,0.0547
1054.00,0.0696
1051.00,0.0743
1048.00,0.0729
1045.00,0.0623
1042.00,0.0480
1039.00,0.0391
1036.00,0.0380
1033.00,0.0408
1030.00,0.0519
1027.00,0.0666
1024.00,0.0614
1021.00,0.0452
1018.00,0.0342
1015.00,0.0280
1012.00,0.0249
1009.00,0.0261
1006.00,0.0320
1003.00,0.0362
1000.00,0.0340
997.00,0.0304
994.00,0.0280
991.00,0.0248
988.00,0.0210
985.00,0.0185
982.00,0.0173
979.00,0.0170
976.00,0.0170
973.00,0.0168
970.00,0.0165
967.00,0.0164
964.00,0.0171
961.00,0.0174
958.00,0.0152
955.00,0.0133
952.00,0.0126
949.00,0.0135
946.00,0.0138
943.00,0.0141
940.00,0.0162
937.00,0.0178
934.00,0.0193
931.00,0.0194
928.00,0.0180
925.00,0.0189
922.00,0.0213
919.00,0.0195
916.00,0.0155
913.00,0.0136
910.00,0.0130
907.00,0.0135
904.00,0.0157
901.00,0.0209
898.00,0.0232
895.00,0.0198
892.00,0.0211
889.00,0.0231
886.00,0.0173
883.00,0.0157
880.00,0.0171
877.00,0.0226
874.00,0.0339
871.00,0.0465
868.00,0.0471
865.00,0.0384
862.00,0.0304
859.00,0.0257
856.00,0.0289
853.00,0.0359
850.00,0.0431
847.00,0.0427
844.00,0.0354
841.00,0.0319
838.00,0.0348
835.00,0.0430
832.00,0.0449
829.00,0.0366
826.00,0.0274
823.00,0.0329
820.00,0.0516
817.00,0.0585
814.00,0.0545
811.00,0.0312
808.00,0.0219
805.00,0.0186
802.00,0.0173
799.00,0.0166
796.00,0.0162
793.00,0.0160
790.00,0.0159
787.00,0.0160
784.00,0.0161
781.00,0.0165
778.00,0.0181
775.00,0.0222
772.00,0.0216
769.00,0.0192
766.00,0.0190
763.00,0.0203
760.00,0.0224
757.00,0.0228
754.00,0.0221
751.00,0.0224
748.00,0.0231
745.00,0.0243
742.00,0.0263
739.00,0.0311
736.00,0.0409
733.00,0.0430
730.00,0.0410
727.00,0.0399
724.00,0.0329
721.00,0.0294
718.00,0.0311
715.00,0.0346
712.00,0.0337
709.00,0.0312
706.00,0.0307
703.00,0.0321
700.00,0.0346
697.00,0.0359
694.00,0.0341
691.00,0.0350
688.00,0.0390
685.00,0.0375
682.00,0.0358
679.00,0.0370
676.00,0.0400
673.00,0.0444
670.00,0.0462
667.00,0.0452
664.00,0.0459
661.00,0.0479
658.00,0.0460
655.00,0.0439
652.00,0.0437
649.00,0.0439
646.00,0.0438
643.00,0.0434
640.00,0.0429
637.00,0.0424
634.00,0.0417
631.00,0.0412
628.00,0.0417
625.00,0.0434
622.00,0.0461
619.00,0.0476
616.00,0.0448
613.00,0.0416
610.00,0.0417
607.00,0.0470
604.00,0.0544
601.00,0.0573
598.00,0.0572
595.00,0.0567
592.00,0.0561
589.00,0.0548
586.00,0.0540
583.00,0.0549
580.00,0.0577
577.00,0.0638
574.00,0.0627
571.00,0.0570
568.00,0.0542
565.00,0.0554
562.00,0.0593
559.00,0.0619
556.00,0.0586
553.00,0.0558
550.00,0.0578
547.00,0.0627
544.00,0.0630
541.00,0.0586
538.00,0.0555
535.00,0.0562
532.00,0.0598
529.00,0.0594
526.00,0.0548
523.00,0.0509
520.00,0.0490
517.00,0.0478
514.00,0.0466
511.00,0.0471
508.00,0.0482
505.00,0.0485
502.00,0.0472
499.00,0.0455
496.00,0.0456
493.00,0.0475
490.00,0.0472
487.00,0.0457
484.00,0.0450
481.00,0.0448
478.00,0.0442
475.00,0.0432
472.00,0.0431
469.00,0.0441
466.00,0.0439
463.00,0.0426
460.00,0.0428
457.00,0.0434
454.00,0.0426
451.00,0.0420
448.00,0.0417
445.00,0.0424
442.00,0.0431
439.00,0.0430
436.00,0.0430
433.00,0.0418
430.00,0.0413
427.00,0.0410
424.00,0.0411
421.00,0.0407
418.00,0.0422
415.00,0.0417
412.00,0.0428
409.00,0.0454
406.00,0.0415
403.00,0.0403
400.00,0.0415