File: FTIR/Olivia/2025_08_06_1CBN_3PVP29_MP_Powder_Scan1.csv
Created as New Dataset,Sample 1091 By YargerLab Date Wednesday, August 06 2025
cm-1,A
4000.00,0.0004
3997.00,0.0004
3994.00,0.0004
3991.00,0.0004
3988.00,0.0004
3985.00,0.0004
3982.00,0.0004
3979.00,0.0004
3976.00,0.0004
3973.00,0.0004
3970.00,0.0004
3967.00,0.0004
3964.00,0.0004
3961.00,0.0004
3958.00,0.0004
3955.00,0.0004
3952.00,0.0004
3949.00,0.0004
3946.00,0.0004
3943.00,0.0004
3940.00,0.0004
3937.00,0.0004
3934.00,0.0004
3931.00,0.0003
3928.00,0.0003
3925.00,0.0003
3922.00,0.0003
3919.00,0.0003
3916.00,0.0003
3913.00,0.0004
3910.00,0.0004
3907.00,0.0004
3904.00,0.0002
3901.00,0.0002
3898.00,0.0003
3895.00,0.0004
3892.00,0.0004
3889.00,0.0004
3886.00,0.0003
3883.00,0.0002
3880.00,0.0002
3877.00,0.0003
3874.00,0.0004
3871.00,0.0002
3868.00,0.0002
3865.00,0.0002
3862.00,0.0003
3859.00,0.0003
3856.00,0.0002
3853.00,0.0002
3850.00,0.0002
3847.00,0.0003
3844.00,0.0004
3841.00,0.0003
3838.00,0.0002
3835.00,0.0002
3832.00,0.0003
3829.00,0.0004
3826.00,0.0004
3823.00,0.0003
3820.00,0.0003
3817.00,0.0002
3814.00,0.0003
3811.00,0.0003
3808.00,0.0003
3805.00,0.0003
3802.00,0.0003
3799.00,0.0003
3796.00,0.0003
3793.00,0.0004
3790.00,0.0005
3787.00,0.0005
3784.00,0.0004
3781.00,0.0004
3778.00,0.0004
3775.00,0.0004
3772.00,0.0005
3769.00,0.0004
3766.00,0.0003
3763.00,0.0004
3760.00,0.0004
3757.00,0.0004
3754.00,0.0003
3751.00,0.0003
3748.00,0.0002
3745.00,0.0001
3742.00,0.0003
3739.00,0.0003
3736.00,0.0002
3733.00,0.0001
3730.00,0.0003
3727.00,0.0004
3724.00,0.0004
3721.00,0.0003
3718.00,0.0004
3715.00,0.0004
3712.00,0.0004
3709.00,0.0002
3706.00,0.0003
3703.00,0.0004
3700.00,0.0004
3697.00,0.0003
3694.00,0.0004
3691.00,0.0003
3688.00,0.0003
3685.00,0.0003
3682.00,0.0004
3679.00,0.0004
3676.00,0.0003
3673.00,0.0003
3670.00,0.0003
3667.00,0.0004
3664.00,0.0005
3661.00,0.0006
3658.00,0.0005
3655.00,0.0005
3652.00,0.0003
3649.00,0.0003
3646.00,0.0003
3643.00,0.0005
3640.00,0.0007
3637.00,0.0007
3634.00,0.0007
3631.00,0.0006
3628.00,0.0006
3625.00,0.0007
3622.00,0.0008
3619.00,0.0008
3616.00,0.0008
3613.00,0.0009
3610.00,0.0009
3607.00,0.0010
3604.00,0.0011
3601.00,0.0012
3598.00,0.0012
3595.00,0.0012
3592.00,0.0013
3589.00,0.0013
3586.00,0.0014
3583.00,0.0014
3580.00,0.0016
3577.00,0.0017
3574.00,0.0017
3571.00,0.0018
3568.00,0.0018
3565.00,0.0018
3562.00,0.0019
3559.00,0.0021
3556.00,0.0022
3553.00,0.0023
3550.00,0.0024
3547.00,0.0024
3544.00,0.0024
3541.00,0.0025
3538.00,0.0027
3535.00,0.0028
3532.00,0.0029
3529.00,0.0029
3526.00,0.0029
3523.00,0.0029
3520.00,0.0030
3517.00,0.0031
3514.00,0.0032
3511.00,0.0033
3508.00,0.0033
3505.00,0.0033
3502.00,0.0034
3499.00,0.0034
3496.00,0.0035
3493.00,0.0036
3490.00,0.0036
3487.00,0.0036
3484.00,0.0037
3481.00,0.0037
3478.00,0.0038
3475.00,0.0038
3472.00,0.0039
3469.00,0.0040
3466.00,0.0040
3463.00,0.0040
3460.00,0.0042
3457.00,0.0042
3454.00,0.0043
3451.00,0.0043
3448.00,0.0044
3445.00,0.0044
3442.00,0.0045
3439.00,0.0046
3436.00,0.0047
3433.00,0.0047
3430.00,0.0047
3427.00,0.0048
3424.00,0.0049
3421.00,0.0049
3418.00,0.0051
3415.00,0.0052
3412.00,0.0053
3409.00,0.0054
3406.00,0.0056
3403.00,0.0057
3400.00,0.0058
3397.00,0.0058
3394.00,0.0058
3391.00,0.0058
3388.00,0.0058
3385.00,0.0058
3382.00,0.0057
3379.00,0.0055
3376.00,0.0055
3373.00,0.0053
3370.00,0.0052
3367.00,0.0051
3364.00,0.0050
3361.00,0.0049
3358.00,0.0049
3355.00,0.0047
3352.00,0.0046
3349.00,0.0045
3346.00,0.0044
3343.00,0.0044
3340.00,0.0043
3337.00,0.0042
3334.00,0.0041
3331.00,0.0041
3328.00,0.0041
3325.00,0.0040
3322.00,0.0040
3319.00,0.0039
3316.00,0.0039
3313.00,0.0039
3310.00,0.0039
3307.00,0.0039
3304.00,0.0038
3301.00,0.0039
3298.00,0.0040
3295.00,0.0039
3292.00,0.0039
3289.00,0.0039
3286.00,0.0039
3283.00,0.0040
3280.00,0.0041
3277.00,0.0041
3274.00,0.0040
3271.00,0.0041
3268.00,0.0041
3265.00,0.0042
3262.00,0.0041
3259.00,0.0041
3256.00,0.0042
3253.00,0.0042
3250.00,0.0042
3247.00,0.0042
3244.00,0.0042
3241.00,0.0043
3238.00,0.0043
3235.00,0.0043
3232.00,0.0043
3229.00,0.0043
3226.00,0.0043
3223.00,0.0043
3220.00,0.0043
3217.00,0.0043
3214.00,0.0043
3211.00,0.0042
3208.00,0.0042
3205.00,0.0041
3202.00,0.0041
3199.00,0.0040
3196.00,0.0039
3193.00,0.0038
3190.00,0.0038
3187.00,0.0038
3184.00,0.0037
3181.00,0.0036
3178.00,0.0034
3175.00,0.0033
3172.00,0.0032
3169.00,0.0032
3166.00,0.0031
3163.00,0.0030
3160.00,0.0029
3157.00,0.0028
3154.00,0.0027
3151.00,0.0027
3148.00,0.0026
3145.00,0.0025
3142.00,0.0025
3139.00,0.0024
3136.00,0.0023
3133.00,0.0022
3130.00,0.0021
3127.00,0.0021
3124.00,0.0021
3121.00,0.0021
3118.00,0.0020
3115.00,0.0019
3112.00,0.0018
3109.00,0.0018
3106.00,0.0018
3103.00,0.0017
3100.00,0.0017
3097.00,0.0016
3094.00,0.0016
3091.00,0.0017
3088.00,0.0017
3085.00,0.0016
3082.00,0.0016
3079.00,0.0015
3076.00,0.0015
3073.00,0.0014
3070.00,0.0014
3067.00,0.0014
3064.00,0.0015
3061.00,0.0014
3058.00,0.0014
3055.00,0.0014
3052.00,0.0014
3049.00,0.0014
3046.00,0.0014
3043.00,0.0014
3040.00,0.0014
3037.00,0.0014
3034.00,0.0014
3031.00,0.0014
3028.00,0.0013
3025.00,0.0013
3022.00,0.0013
3019.00,0.0014
3016.00,0.0014
3013.00,0.0015
3010.00,0.0015
3007.00,0.0017
3004.00,0.0019
3001.00,0.0022
2998.00,0.0025
2995.00,0.0028
2992.00,0.0028
2989.00,0.0029
2986.00,0.0030
2983.00,0.0033
2980.00,0.0036
2977.00,0.0038
2974.00,0.0043
2971.00,0.0049
2968.00,0.0051
2965.00,0.0054
2962.00,0.0056
2959.00,0.0052
2956.00,0.0046
2953.00,0.0045
2950.00,0.0046
2947.00,0.0048
2944.00,0.0050
2941.00,0.0052
2938.00,0.0057
2935.00,0.0064
2932.00,0.0072
2929.00,0.0078
2926.00,0.0078
2923.00,0.0074
2920.00,0.0067
2917.00,0.0061
2914.00,0.0057
2911.00,0.0054
2908.00,0.0051
2905.00,0.0048
2902.00,0.0047
2899.00,0.0045
2896.00,0.0044
2893.00,0.0043
2890.00,0.0042
2887.00,0.0042
2884.00,0.0041
2881.00,0.0041
2878.00,0.0043
2875.00,0.0044
2872.00,0.0043
2869.00,0.0042
2866.00,0.0043
2863.00,0.0047
2860.00,0.0053
2857.00,0.0054
2854.00,0.0052
2851.00,0.0050
2848.00,0.0045
2845.00,0.0037
2842.00,0.0033
2839.00,0.0029
2836.00,0.0026
2833.00,0.0024
2830.00,0.0023
2827.00,0.0021
2824.00,0.0020
2821.00,0.0019
2818.00,0.0017
2815.00,0.0017
2812.00,0.0016
2809.00,0.0016
2806.00,0.0016
2803.00,0.0015
2800.00,0.0014
2797.00,0.0014
2794.00,0.0014
2791.00,0.0014
2788.00,0.0013
2785.00,0.0013
2782.00,0.0013
2779.00,0.0013
2776.00,0.0013
2773.00,0.0012
2770.00,0.0012
2767.00,0.0012
2764.00,0.0012
2761.00,0.0012
2758.00,0.0012
2755.00,0.0012
2752.00,0.0012
2749.00,0.0012
2746.00,0.0012
2743.00,0.0012
2740.00,0.0012
2737.00,0.0012
2734.00,0.0012
2731.00,0.0012
2728.00,0.0013
2725.00,0.0013
2722.00,0.0013
2719.00,0.0012
2716.00,0.0012
2713.00,0.0012
2710.00,0.0012
2707.00,0.0012
2704.00,0.0012
2701.00,0.0012
2698.00,0.0011
2695.00,0.0011
2692.00,0.0011
2689.00,0.0011
2686.00,0.0011
2683.00,0.0011
2680.00,0.0011
2677.00,0.0011
2674.00,0.0011
2671.00,0.0011
2668.00,0.0012
2665.00,0.0013
2662.00,0.0014
2659.00,0.0015
2656.00,0.0015
2653.00,0.0016
2650.00,0.0016
2647.00,0.0016
2644.00,0.0016
2641.00,0.0016
2638.00,0.0016
2635.00,0.0015
2632.00,0.0015
2629.00,0.0015
2626.00,0.0014
2623.00,0.0014
2620.00,0.0014
2617.00,0.0014
2614.00,0.0014
2611.00,0.0013
2608.00,0.0013
2605.00,0.0013
2602.00,0.0013
2599.00,0.0013
2596.00,0.0013
2593.00,0.0012
2590.00,0.0012
2587.00,0.0012
2584.00,0.0011
2581.00,0.0010
2578.00,0.0011
2575.00,0.0012
2572.00,0.0011
2569.00,0.0010
2566.00,0.0010
2563.00,0.0010
2560.00,0.0010
2557.00,0.0010
2554.00,0.0009
2551.00,0.0009
2548.00,0.0010
2545.00,0.0010
2542.00,0.0009
2539.00,0.0009
2536.00,0.0009
2533.00,0.0009
2530.00,0.0009
2527.00,0.0009
2524.00,0.0008
2521.00,0.0008
2518.00,0.0008
2515.00,0.0008
2512.00,0.0008
2509.00,0.0008
2506.00,0.0007
2503.00,0.0008
2500.00,0.0008
2497.00,0.0009
2494.00,0.0009
2491.00,0.0008
2488.00,0.0008
2485.00,0.0008
2482.00,0.0008
2479.00,0.0007
2476.00,0.0007
2473.00,0.0008
2470.00,0.0007
2467.00,0.0007
2464.00,0.0007
2461.00,0.0007
2458.00,0.0009
2455.00,0.0009
2452.00,0.0009
2449.00,0.0009
2446.00,0.0009
2443.00,0.0008
2440.00,0.0007
2437.00,0.0007
2434.00,0.0007
2431.00,0.0006
2428.00,0.0006
2425.00,0.0006
2422.00,0.0005
2419.00,0.0006
2416.00,0.0006
2413.00,0.0006
2410.00,0.0006
2407.00,0.0005
2404.00,0.0004
2401.00,0.0004
2398.00,0.0004
2395.00,0.0004
2392.00,0.0004
2389.00,0.0004
2386.00,0.0003
2383.00,0.0002
2380.00,0.0002
2377.00,0.0002
2374.00,0.0003
2371.00,0.0002
2368.00,0.0002
2365.00,0.0004
2362.00,0.0005
2359.00,0.0004
2356.00,0.0004
2353.00,0.0004
2350.00,0.0005
2347.00,0.0007
2344.00,0.0007
2341.00,0.0008
2338.00,0.0008
2335.00,0.0008
2332.00,0.0006
2329.00,0.0009
2326.00,0.0021
2323.00,0.0019
2320.00,0.0014
2317.00,0.0013
2314.00,0.0011
2311.00,0.0011
2308.00,0.0011
2305.00,0.0013
2302.00,0.0013
2299.00,0.0014
2296.00,0.0015
2293.00,0.0017
2290.00,0.0019
2287.00,0.0019
2284.00,0.0018
2281.00,0.0017
2278.00,0.0016
2275.00,0.0015
2272.00,0.0015
2269.00,0.0014
2266.00,0.0011
2263.00,0.0011
2260.00,0.0013
2257.00,0.0012
2254.00,0.0008
2251.00,0.0009
2248.00,0.0010
2245.00,0.0010
2242.00,0.0010
2239.00,0.0010
2236.00,0.0012
2233.00,0.0011
2230.00,0.0011
2227.00,0.0012
2224.00,0.0012
2221.00,0.0012
2218.00,0.0010
2215.00,0.0010
2212.00,0.0011
2209.00,0.0010
2206.00,0.0010
2203.00,0.0011
2200.00,0.0011
2197.00,0.0010
2194.00,0.0012
2191.00,0.0014
2188.00,0.0015
2185.00,0.0012
2182.00,0.0006
2179.00,0.0008
2176.00,0.0005
2173.00,0.0008
2170.00,0.0018
2167.00,0.0020
2164.00,0.0024
2161.00,0.0012
2158.00,-0.0019
2155.00,-0.0015
2152.00,-0.0008
2149.00,-0.0008
2146.00,-0.0007
2143.00,-0.0007
2140.00,-0.0006
2137.00,-0.0010
2134.00,-0.0014
2131.00,-0.0008
2128.00,-0.0002
2125.00,-0.0001
2122.00,0.0001
2119.00,0.0004
2116.00,0.0008
2113.00,0.0009
2110.00,0.0009
2107.00,0.0008
2104.00,0.0008
2101.00,0.0007
2098.00,0.0006
2095.00,0.0003
2092.00,0.0004
2089.00,0.0007
2086.00,0.0007
2083.00,0.0009
2080.00,0.0010
2077.00,0.0010
2074.00,0.0009
2071.00,0.0007
2068.00,0.0007
2065.00,0.0009
2062.00,0.0008
2059.00,0.0007
2056.00,0.0007
2053.00,0.0015
2050.00,0.0016
2047.00,0.0010
2044.00,0.0008
2041.00,0.0007
2038.00,0.0012
2035.00,0.0010
2032.00,0.0005
2029.00,0.0005
2026.00,0.0001
2023.00,0.0002
2020.00,0.0006
2017.00,0.0004
2014.00,0.0002
2011.00,0.0005
2008.00,-0.0002
2005.00,-0.0008
2002.00,-0.0002
1999.00,0.0003
1996.00,0.0004
1993.00,0.0007
1990.00,0.0010
1987.00,0.0010
1984.00,0.0015
1981.00,0.0022
1978.00,0.0009
1975.00,-0.0000
1972.00,-0.0002
1969.00,-0.0002
1966.00,-0.0001
1963.00,-0.0003
1960.00,-0.0005
1957.00,-0.0005
1954.00,-0.0002
1951.00,-0.0002
1948.00,-0.0002
1945.00,-0.0000
1942.00,-0.0001
1939.00,-0.0003
1936.00,-0.0003
1933.00,-0.0002
1930.00,-0.0001
1927.00,-0.0002
1924.00,-0.0001
1921.00,0.0002
1918.00,0.0002
1915.00,0.0003
1912.00,0.0003
1909.00,0.0003
1906.00,0.0004
1903.00,0.0003
1900.00,0.0002
1897.00,0.0002
1894.00,0.0003
1891.00,0.0003
1888.00,0.0003
1885.00,0.0004
1882.00,0.0003
1879.00,0.0002
1876.00,0.0003
1873.00,0.0004
1870.00,0.0003
1867.00,0.0003
1864.00,0.0003
1861.00,0.0003
1858.00,0.0004
1855.00,0.0004
1852.00,0.0005
1849.00,0.0004
1846.00,0.0004
1843.00,0.0004
1840.00,0.0004
1837.00,0.0004
1834.00,0.0005
1831.00,0.0004
1828.00,0.0005
1825.00,0.0004
1822.00,0.0004
1819.00,0.0003
1816.00,0.0001
1813.00,0.0004
1810.00,0.0005
1807.00,0.0005
1804.00,0.0005
1801.00,0.0006
1798.00,0.0006
1795.00,0.0006
1792.00,0.0005
1789.00,0.0006
1786.00,0.0006
1783.00,0.0006
1780.00,0.0006
1777.00,0.0006
1774.00,0.0006
1771.00,0.0007
1768.00,0.0008
1765.00,0.0008
1762.00,0.0008
1759.00,0.0009
1756.00,0.0008
1753.00,0.0009
1750.00,0.0009
1747.00,0.0009
1744.00,0.0010
1741.00,0.0009
1738.00,0.0011
1735.00,0.0011
1732.00,0.0012
1729.00,0.0013
1726.00,0.0014
1723.00,0.0016
1720.00,0.0016
1717.00,0.0017
1714.00,0.0019
1711.00,0.0023
1708.00,0.0026
1705.00,0.0030
1702.00,0.0035
1699.00,0.0044
1696.00,0.0054
1693.00,0.0069
1690.00,0.0084
1687.00,0.0100
1684.00,0.0120
1681.00,0.0137
1678.00,0.0155
1675.00,0.0170
1672.00,0.0183
1669.00,0.0194
1666.00,0.0209
1663.00,0.0226
1660.00,0.0242
1657.00,0.0260
1654.00,0.0277
1651.00,0.0274
1648.00,0.0285
1645.00,0.0274
1642.00,0.0267
1639.00,0.0255
1636.00,0.0233
1633.00,0.0208
1630.00,0.0205
1627.00,0.0203
1624.00,0.0197
1621.00,0.0182
1618.00,0.0168
1615.00,0.0143
1612.00,0.0137
1609.00,0.0128
1606.00,0.0112
1603.00,0.0094
1600.00,0.0080
1597.00,0.0072
1594.00,0.0069
1591.00,0.0074
1588.00,0.0080
1585.00,0.0081
1582.00,0.0079
1579.00,0.0076
1576.00,0.0068
1573.00,0.0061
1570.00,0.0057
1567.00,0.0052
1564.00,0.0047
1561.00,0.0042
1558.00,0.0033
1555.00,0.0032
1552.00,0.0031
1549.00,0.0030
1546.00,0.0030
1543.00,0.0028
1540.00,0.0025
1537.00,0.0025
1534.00,0.0025
1531.00,0.0025
1528.00,0.0025
1525.00,0.0025
1522.00,0.0026
1519.00,0.0027
1516.00,0.0029
1513.00,0.0031
1510.00,0.0034
1507.00,0.0037
1504.00,0.0044
1501.00,0.0057
1498.00,0.0075
1495.00,0.0083
1492.00,0.0079
1489.00,0.0066
1486.00,0.0053
1483.00,0.0045
1480.00,0.0042
1477.00,0.0043
1474.00,0.0049
1471.00,0.0066
1468.00,0.0091
1465.00,0.0117
1462.00,0.0127
1459.00,0.0129
1456.00,0.0108
1453.00,0.0099
1450.00,0.0099
1447.00,0.0109
1444.00,0.0127
1441.00,0.0148
1438.00,0.0162
1435.00,0.0167
1432.00,0.0174
1429.00,0.0178
1426.00,0.0188
1423.00,0.0196
1420.00,0.0193
1417.00,0.0161
1414.00,0.0132
1411.00,0.0110
1408.00,0.0099
1405.00,0.0098
1402.00,0.0100
1399.00,0.0097
1396.00,0.0089
1393.00,0.0079
1390.00,0.0077
1387.00,0.0082
1384.00,0.0079
1381.00,0.0078
1378.00,0.0083
1375.00,0.0089
1372.00,0.0083
1369.00,0.0084
1366.00,0.0089
1363.00,0.0086
1360.00,0.0090
1357.00,0.0085
1354.00,0.0074
1351.00,0.0071
1348.00,0.0072
1345.00,0.0069
1342.00,0.0063
1339.00,0.0058
1336.00,0.0058
1333.00,0.0063
1330.00,0.0068
1327.00,0.0072
1324.00,0.0076
1321.00,0.0083
1318.00,0.0086
1315.00,0.0084
1312.00,0.0081
1309.00,0.0082
1306.00,0.0089
1303.00,0.0106
1300.00,0.0122
1297.00,0.0141
1294.00,0.0170
1291.00,0.0196
1288.00,0.0217
1285.00,0.0228
1282.00,0.0221
1279.00,0.0206
1276.00,0.0200
1273.00,0.0199
1270.00,0.0191
1267.00,0.0177
1264.00,0.0158
1261.00,0.0137
1258.00,0.0120
1255.00,0.0108
1252.00,0.0101
1249.00,0.0102
1246.00,0.0107
1243.00,0.0110
1240.00,0.0115
1237.00,0.0125
1234.00,0.0131
1231.00,0.0127
1228.00,0.0120
1225.00,0.0116
1222.00,0.0113
1219.00,0.0115
1216.00,0.0117
1213.00,0.0116
1210.00,0.0106
1207.00,0.0097
1204.00,0.0095
1201.00,0.0100
1198.00,0.0109
1195.00,0.0114
1192.00,0.0106
1189.00,0.0093
1186.00,0.0083
1183.00,0.0077
1180.00,0.0076
1177.00,0.0076
1174.00,0.0078
1171.00,0.0079
1168.00,0.0078
1165.00,0.0075
1162.00,0.0073
1159.00,0.0079
1156.00,0.0093
1153.00,0.0094
1150.00,0.0075
1147.00,0.0062
1144.00,0.0058
1141.00,0.0056
1138.00,0.0057
1135.00,0.0065
1132.00,0.0086
1129.00,0.0103
1126.00,0.0097
1123.00,0.0084
1120.00,0.0073
1117.00,0.0072
1114.00,0.0071
1111.00,0.0067
1108.00,0.0064
1105.00,0.0068
1102.00,0.0082
1099.00,0.0089
1096.00,0.0079
1093.00,0.0065
1090.00,0.0059
1087.00,0.0057
1084.00,0.0056
1081.00,0.0057
1078.00,0.0057
1075.00,0.0058
1072.00,0.0060
1069.00,0.0060
1066.00,0.0061
1063.00,0.0064
1060.00,0.0076
1057.00,0.0099
1054.00,0.0120
1051.00,0.0132
1048.00,0.0129
1045.00,0.0111
1042.00,0.0094
1039.00,0.0086
1036.00,0.0089
1033.00,0.0090
1030.00,0.0103
1027.00,0.0130
1024.00,0.0131
1021.00,0.0113
1018.00,0.0098
1015.00,0.0085
1012.00,0.0078
1009.00,0.0082
1006.00,0.0092
1003.00,0.0094
1000.00,0.0089
997.00,0.0083
994.00,0.0079
991.00,0.0071
988.00,0.0064
985.00,0.0060
982.00,0.0057
979.00,0.0055
976.00,0.0054
973.00,0.0052
970.00,0.0052
967.00,0.0052
964.00,0.0054
961.00,0.0056
958.00,0.0051
955.00,0.0043
952.00,0.0036
949.00,0.0032
946.00,0.0032
943.00,0.0038
940.00,0.0045
937.00,0.0051
934.00,0.0056
931.00,0.0056
928.00,0.0054
925.00,0.0056
922.00,0.0057
919.00,0.0053
916.00,0.0047
913.00,0.0045
910.00,0.0045
907.00,0.0048
904.00,0.0052
901.00,0.0062
898.00,0.0061
895.00,0.0055
892.00,0.0057
889.00,0.0063
886.00,0.0052
883.00,0.0046
880.00,0.0046
877.00,0.0054
874.00,0.0073
871.00,0.0092
868.00,0.0087
865.00,0.0076
862.00,0.0067
859.00,0.0064
856.00,0.0073
853.00,0.0087
850.00,0.0105
847.00,0.0104
844.00,0.0090
841.00,0.0085
838.00,0.0093
835.00,0.0106
832.00,0.0101
829.00,0.0082
826.00,0.0066
823.00,0.0070
820.00,0.0101
817.00,0.0118
814.00,0.0094
811.00,0.0058
808.00,0.0052
805.00,0.0054
802.00,0.0056
799.00,0.0057
796.00,0.0058
793.00,0.0057
790.00,0.0056
787.00,0.0057
784.00,0.0056
781.00,0.0058
778.00,0.0061
775.00,0.0069
772.00,0.0069
769.00,0.0067
766.00,0.0068
763.00,0.0073
760.00,0.0080
757.00,0.0081
754.00,0.0081
751.00,0.0082
748.00,0.0085
745.00,0.0089
742.00,0.0093
739.00,0.0102
736.00,0.0119
733.00,0.0123
730.00,0.0129
727.00,0.0127
724.00,0.0108
721.00,0.0100
718.00,0.0103
715.00,0.0109
712.00,0.0108
709.00,0.0104
706.00,0.0103
703.00,0.0106
700.00,0.0112
697.00,0.0114
694.00,0.0110
691.00,0.0111
688.00,0.0120
685.00,0.0121
682.00,0.0124
679.00,0.0126
676.00,0.0134
673.00,0.0146
670.00,0.0151
667.00,0.0145
664.00,0.0153
661.00,0.0161
658.00,0.0162
655.00,0.0163
652.00,0.0168
649.00,0.0171
646.00,0.0170
643.00,0.0167
640.00,0.0165
637.00,0.0162
634.00,0.0159
631.00,0.0156
628.00,0.0154
625.00,0.0158
622.00,0.0162
619.00,0.0163
616.00,0.0159
613.00,0.0153
610.00,0.0151
607.00,0.0164
604.00,0.0174
601.00,0.0186
598.00,0.0188
595.00,0.0184
592.00,0.0186
589.00,0.0187
586.00,0.0187
583.00,0.0188
580.00,0.0197
577.00,0.0215
574.00,0.0215
571.00,0.0204
568.00,0.0203
565.00,0.0203
562.00,0.0209
559.00,0.0211
556.00,0.0204
553.00,0.0203
550.00,0.0204
547.00,0.0216
544.00,0.0213
541.00,0.0203
538.00,0.0198
535.00,0.0200
532.00,0.0205
529.00,0.0202
526.00,0.0199
523.00,0.0193
520.00,0.0189
517.00,0.0189
514.00,0.0188
511.00,0.0182
508.00,0.0184
505.00,0.0192
502.00,0.0188
499.00,0.0179
496.00,0.0184
493.00,0.0191
490.00,0.0186
487.00,0.0183
484.00,0.0179
481.00,0.0185
478.00,0.0191
475.00,0.0182
472.00,0.0189
469.00,0.0196
466.00,0.0184
463.00,0.0176
460.00,0.0183
457.00,0.0184
454.00,0.0181
451.00,0.0179
448.00,0.0176
445.00,0.0176
442.00,0.0176
439.00,0.0169
436.00,0.0165
433.00,0.0166
430.00,0.0166
427.00,0.0162
424.00,0.0158
421.00,0.0161
418.00,0.0156
415.00,0.0152
412.00,0.0168
409.00,0.0175
406.00,0.0144
403.00,0.0135
400.00,0.0191