File: FTIR/Olivia/2025_08_01_1CBN_3PVP40_mortar_dry_scan1.csv
Created as New Dataset,Sample 1023 By YargerLab Date Friday, August 01 2025
cm-1,A
4000.00,0.0076
3997.00,0.0076
3994.00,0.0076
3991.00,0.0076
3988.00,0.0076
3985.00,0.0076
3982.00,0.0076
3979.00,0.0076
3976.00,0.0076
3973.00,0.0076
3970.00,0.0077
3967.00,0.0077
3964.00,0.0076
3961.00,0.0076
3958.00,0.0076
3955.00,0.0076
3952.00,0.0076
3949.00,0.0076
3946.00,0.0076
3943.00,0.0076
3940.00,0.0076
3937.00,0.0076
3934.00,0.0076
3931.00,0.0076
3928.00,0.0076
3925.00,0.0076
3922.00,0.0076
3919.00,0.0077
3916.00,0.0077
3913.00,0.0076
3910.00,0.0076
3907.00,0.0077
3904.00,0.0077
3901.00,0.0077
3898.00,0.0076
3895.00,0.0076
3892.00,0.0076
3889.00,0.0077
3886.00,0.0076
3883.00,0.0076
3880.00,0.0075
3877.00,0.0075
3874.00,0.0076
3871.00,0.0076
3868.00,0.0076
3865.00,0.0076
3862.00,0.0076
3859.00,0.0076
3856.00,0.0077
3853.00,0.0076
3850.00,0.0076
3847.00,0.0075
3844.00,0.0075
3841.00,0.0076
3838.00,0.0076
3835.00,0.0076
3832.00,0.0075
3829.00,0.0076
3826.00,0.0075
3823.00,0.0075
3820.00,0.0074
3817.00,0.0075
3814.00,0.0076
3811.00,0.0075
3808.00,0.0075
3805.00,0.0076
3802.00,0.0076
3799.00,0.0076
3796.00,0.0074
3793.00,0.0075
3790.00,0.0074
3787.00,0.0075
3784.00,0.0075
3781.00,0.0075
3778.00,0.0074
3775.00,0.0074
3772.00,0.0075
3769.00,0.0075
3766.00,0.0074
3763.00,0.0075
3760.00,0.0075
3757.00,0.0075
3754.00,0.0076
3751.00,0.0076
3748.00,0.0077
3745.00,0.0075
3742.00,0.0076
3739.00,0.0075
3736.00,0.0075
3733.00,0.0074
3730.00,0.0074
3727.00,0.0074
3724.00,0.0073
3721.00,0.0074
3718.00,0.0074
3715.00,0.0075
3712.00,0.0075
3709.00,0.0074
3706.00,0.0074
3703.00,0.0073
3700.00,0.0073
3697.00,0.0073
3694.00,0.0074
3691.00,0.0075
3688.00,0.0076
3685.00,0.0076
3682.00,0.0076
3679.00,0.0078
3676.00,0.0079
3673.00,0.0080
3670.00,0.0080
3667.00,0.0080
3664.00,0.0081
3661.00,0.0081
3658.00,0.0082
3655.00,0.0083
3652.00,0.0085
3649.00,0.0086
3646.00,0.0087
3643.00,0.0087
3640.00,0.0089
3637.00,0.0090
3634.00,0.0091
3631.00,0.0094
3628.00,0.0095
3625.00,0.0097
3622.00,0.0098
3619.00,0.0100
3616.00,0.0103
3613.00,0.0105
3610.00,0.0108
3607.00,0.0109
3604.00,0.0111
3601.00,0.0113
3598.00,0.0115
3595.00,0.0117
3592.00,0.0120
3589.00,0.0122
3586.00,0.0126
3583.00,0.0129
3580.00,0.0131
3577.00,0.0134
3574.00,0.0137
3571.00,0.0140
3568.00,0.0144
3565.00,0.0148
3562.00,0.0151
3559.00,0.0153
3556.00,0.0156
3553.00,0.0159
3550.00,0.0163
3547.00,0.0166
3544.00,0.0170
3541.00,0.0172
3538.00,0.0175
3535.00,0.0178
3532.00,0.0180
3529.00,0.0183
3526.00,0.0186
3523.00,0.0189
3520.00,0.0192
3517.00,0.0194
3514.00,0.0197
3511.00,0.0199
3508.00,0.0201
3505.00,0.0204
3502.00,0.0207
3499.00,0.0209
3496.00,0.0211
3493.00,0.0213
3490.00,0.0216
3487.00,0.0219
3484.00,0.0221
3481.00,0.0224
3478.00,0.0227
3475.00,0.0229
3472.00,0.0232
3469.00,0.0236
3466.00,0.0238
3463.00,0.0241
3460.00,0.0245
3457.00,0.0248
3454.00,0.0250
3451.00,0.0254
3448.00,0.0257
3445.00,0.0260
3442.00,0.0263
3439.00,0.0267
3436.00,0.0272
3433.00,0.0276
3430.00,0.0280
3427.00,0.0284
3424.00,0.0289
3421.00,0.0293
3418.00,0.0298
3415.00,0.0302
3412.00,0.0306
3409.00,0.0309
3406.00,0.0312
3403.00,0.0314
3400.00,0.0314
3397.00,0.0314
3394.00,0.0313
3391.00,0.0311
3388.00,0.0309
3385.00,0.0306
3382.00,0.0303
3379.00,0.0299
3376.00,0.0296
3373.00,0.0292
3370.00,0.0289
3367.00,0.0287
3364.00,0.0284
3361.00,0.0280
3358.00,0.0278
3355.00,0.0275
3352.00,0.0272
3349.00,0.0270
3346.00,0.0269
3343.00,0.0267
3340.00,0.0265
3337.00,0.0263
3334.00,0.0262
3331.00,0.0261
3328.00,0.0261
3325.00,0.0260
3322.00,0.0260
3319.00,0.0261
3316.00,0.0261
3313.00,0.0261
3310.00,0.0260
3307.00,0.0259
3304.00,0.0262
3301.00,0.0264
3298.00,0.0264
3295.00,0.0265
3292.00,0.0266
3289.00,0.0268
3286.00,0.0269
3283.00,0.0270
3280.00,0.0271
3277.00,0.0272
3274.00,0.0272
3271.00,0.0273
3268.00,0.0274
3265.00,0.0276
3262.00,0.0276
3259.00,0.0276
3256.00,0.0275
3253.00,0.0276
3250.00,0.0276
3247.00,0.0275
3244.00,0.0275
3241.00,0.0275
3238.00,0.0274
3235.00,0.0272
3232.00,0.0271
3229.00,0.0270
3226.00,0.0268
3223.00,0.0267
3220.00,0.0264
3217.00,0.0261
3214.00,0.0258
3211.00,0.0255
3208.00,0.0252
3205.00,0.0248
3202.00,0.0244
3199.00,0.0241
3196.00,0.0238
3193.00,0.0234
3190.00,0.0229
3187.00,0.0226
3184.00,0.0222
3181.00,0.0218
3178.00,0.0214
3175.00,0.0210
3172.00,0.0207
3169.00,0.0202
3166.00,0.0198
3163.00,0.0194
3160.00,0.0191
3157.00,0.0187
3154.00,0.0184
3151.00,0.0180
3148.00,0.0177
3145.00,0.0174
3142.00,0.0171
3139.00,0.0168
3136.00,0.0165
3133.00,0.0162
3130.00,0.0160
3127.00,0.0158
3124.00,0.0156
3121.00,0.0154
3118.00,0.0151
3115.00,0.0149
3112.00,0.0147
3109.00,0.0145
3106.00,0.0143
3103.00,0.0141
3100.00,0.0139
3097.00,0.0138
3094.00,0.0136
3091.00,0.0135
3088.00,0.0135
3085.00,0.0135
3082.00,0.0134
3079.00,0.0132
3076.00,0.0131
3073.00,0.0130
3070.00,0.0129
3067.00,0.0128
3064.00,0.0127
3061.00,0.0127
3058.00,0.0127
3055.00,0.0127
3052.00,0.0126
3049.00,0.0125
3046.00,0.0124
3043.00,0.0124
3040.00,0.0124
3037.00,0.0126
3034.00,0.0127
3031.00,0.0126
3028.00,0.0125
3025.00,0.0123
3022.00,0.0121
3019.00,0.0120
3016.00,0.0119
3013.00,0.0120
3010.00,0.0123
3007.00,0.0126
3004.00,0.0132
3001.00,0.0139
2998.00,0.0148
2995.00,0.0159
2992.00,0.0169
2989.00,0.0177
2986.00,0.0185
2983.00,0.0198
2980.00,0.0215
2977.00,0.0224
2974.00,0.0234
2971.00,0.0256
2968.00,0.0271
2965.00,0.0281
2962.00,0.0295
2959.00,0.0301
2956.00,0.0291
2953.00,0.0274
2950.00,0.0261
2947.00,0.0257
2944.00,0.0262
2941.00,0.0272
2938.00,0.0291
2935.00,0.0320
2932.00,0.0358
2929.00,0.0391
2926.00,0.0404
2923.00,0.0393
2920.00,0.0369
2917.00,0.0342
2914.00,0.0315
2911.00,0.0294
2908.00,0.0278
2905.00,0.0264
2902.00,0.0253
2899.00,0.0245
2896.00,0.0237
2893.00,0.0232
2890.00,0.0226
2887.00,0.0221
2884.00,0.0218
2881.00,0.0217
2878.00,0.0223
2875.00,0.0234
2872.00,0.0240
2869.00,0.0238
2866.00,0.0237
2863.00,0.0249
2860.00,0.0274
2857.00,0.0295
2854.00,0.0297
2851.00,0.0283
2848.00,0.0253
2845.00,0.0219
2842.00,0.0193
2839.00,0.0175
2836.00,0.0164
2833.00,0.0156
2830.00,0.0149
2827.00,0.0144
2824.00,0.0139
2821.00,0.0135
2818.00,0.0131
2815.00,0.0129
2812.00,0.0126
2809.00,0.0124
2806.00,0.0123
2803.00,0.0121
2800.00,0.0120
2797.00,0.0118
2794.00,0.0117
2791.00,0.0116
2788.00,0.0114
2785.00,0.0113
2782.00,0.0112
2779.00,0.0111
2776.00,0.0110
2773.00,0.0110
2770.00,0.0109
2767.00,0.0109
2764.00,0.0109
2761.00,0.0108
2758.00,0.0108
2755.00,0.0108
2752.00,0.0108
2749.00,0.0108
2746.00,0.0108
2743.00,0.0108
2740.00,0.0109
2737.00,0.0110
2734.00,0.0111
2731.00,0.0111
2728.00,0.0111
2725.00,0.0110
2722.00,0.0109
2719.00,0.0109
2716.00,0.0108
2713.00,0.0108
2710.00,0.0108
2707.00,0.0108
2704.00,0.0107
2701.00,0.0106
2698.00,0.0106
2695.00,0.0105
2692.00,0.0105
2689.00,0.0104
2686.00,0.0104
2683.00,0.0104
2680.00,0.0103
2677.00,0.0103
2674.00,0.0103
2671.00,0.0103
2668.00,0.0104
2665.00,0.0105
2662.00,0.0107
2659.00,0.0108
2656.00,0.0108
2653.00,0.0108
2650.00,0.0108
2647.00,0.0108
2644.00,0.0108
2641.00,0.0107
2638.00,0.0106
2635.00,0.0106
2632.00,0.0105
2629.00,0.0104
2626.00,0.0103
2623.00,0.0102
2620.00,0.0102
2617.00,0.0102
2614.00,0.0102
2611.00,0.0102
2608.00,0.0102
2605.00,0.0102
2602.00,0.0102
2599.00,0.0102
2596.00,0.0102
2593.00,0.0101
2590.00,0.0102
2587.00,0.0102
2584.00,0.0102
2581.00,0.0102
2578.00,0.0101
2575.00,0.0101
2572.00,0.0100
2569.00,0.0100
2566.00,0.0100
2563.00,0.0100
2560.00,0.0099
2557.00,0.0099
2554.00,0.0098
2551.00,0.0098
2548.00,0.0097
2545.00,0.0096
2542.00,0.0097
2539.00,0.0098
2536.00,0.0097
2533.00,0.0097
2530.00,0.0097
2527.00,0.0096
2524.00,0.0095
2521.00,0.0095
2518.00,0.0094
2515.00,0.0095
2512.00,0.0094
2509.00,0.0095
2506.00,0.0094
2503.00,0.0094
2500.00,0.0093
2497.00,0.0093
2494.00,0.0093
2491.00,0.0093
2488.00,0.0093
2485.00,0.0092
2482.00,0.0092
2479.00,0.0092
2476.00,0.0092
2473.00,0.0092
2470.00,0.0091
2467.00,0.0091
2464.00,0.0092
2461.00,0.0092
2458.00,0.0092
2455.00,0.0093
2452.00,0.0093
2449.00,0.0093
2446.00,0.0093
2443.00,0.0092
2440.00,0.0091
2437.00,0.0090
2434.00,0.0091
2431.00,0.0090
2428.00,0.0091
2425.00,0.0090
2422.00,0.0090
2419.00,0.0090
2416.00,0.0090
2413.00,0.0090
2410.00,0.0091
2407.00,0.0090
2404.00,0.0090
2401.00,0.0090
2398.00,0.0090
2395.00,0.0089
2392.00,0.0089
2389.00,0.0088
2386.00,0.0088
2383.00,0.0086
2380.00,0.0084
2377.00,0.0083
2374.00,0.0084
2371.00,0.0084
2368.00,0.0083
2365.00,0.0083
2362.00,0.0084
2359.00,0.0084
2356.00,0.0084
2353.00,0.0085
2350.00,0.0084
2347.00,0.0086
2344.00,0.0086
2341.00,0.0086
2338.00,0.0088
2335.00,0.0089
2332.00,0.0089
2329.00,0.0091
2326.00,0.0100
2323.00,0.0098
2320.00,0.0094
2317.00,0.0093
2314.00,0.0091
2311.00,0.0090
2308.00,0.0090
2305.00,0.0090
2302.00,0.0092
2299.00,0.0092
2296.00,0.0094
2293.00,0.0097
2290.00,0.0100
2287.00,0.0101
2284.00,0.0100
2281.00,0.0098
2278.00,0.0097
2275.00,0.0096
2272.00,0.0095
2269.00,0.0094
2266.00,0.0093
2263.00,0.0093
2260.00,0.0094
2257.00,0.0093
2254.00,0.0089
2251.00,0.0091
2248.00,0.0093
2245.00,0.0093
2242.00,0.0093
2239.00,0.0095
2236.00,0.0094
2233.00,0.0092
2230.00,0.0094
2227.00,0.0096
2224.00,0.0094
2221.00,0.0093
2218.00,0.0091
2215.00,0.0093
2212.00,0.0095
2209.00,0.0092
2206.00,0.0094
2203.00,0.0096
2200.00,0.0095
2197.00,0.0093
2194.00,0.0096
2191.00,0.0093
2188.00,0.0096
2185.00,0.0096
2182.00,0.0091
2179.00,0.0092
2176.00,0.0089
2173.00,0.0093
2170.00,0.0098
2167.00,0.0101
2164.00,0.0102
2161.00,0.0089
2158.00,0.0059
2155.00,0.0066
2152.00,0.0074
2149.00,0.0077
2146.00,0.0078
2143.00,0.0079
2140.00,0.0080
2137.00,0.0079
2134.00,0.0073
2131.00,0.0076
2128.00,0.0080
2125.00,0.0083
2122.00,0.0086
2119.00,0.0090
2116.00,0.0092
2113.00,0.0092
2110.00,0.0090
2107.00,0.0091
2104.00,0.0089
2101.00,0.0088
2098.00,0.0088
2095.00,0.0085
2092.00,0.0087
2089.00,0.0088
2086.00,0.0089
2083.00,0.0091
2080.00,0.0090
2077.00,0.0090
2074.00,0.0088
2071.00,0.0087
2068.00,0.0086
2065.00,0.0086
2062.00,0.0084
2059.00,0.0085
2056.00,0.0087
2053.00,0.0090
2050.00,0.0091
2047.00,0.0086
2044.00,0.0085
2041.00,0.0086
2038.00,0.0082
2035.00,0.0082
2032.00,0.0083
2029.00,0.0078
2026.00,0.0076
2023.00,0.0079
2020.00,0.0083
2017.00,0.0079
2014.00,0.0076
2011.00,0.0076
2008.00,0.0072
2005.00,0.0067
2002.00,0.0072
1999.00,0.0077
1996.00,0.0079
1993.00,0.0082
1990.00,0.0086
1987.00,0.0084
1984.00,0.0087
1981.00,0.0092
1978.00,0.0080
1975.00,0.0075
1972.00,0.0073
1969.00,0.0071
1966.00,0.0070
1963.00,0.0071
1960.00,0.0068
1957.00,0.0069
1954.00,0.0071
1951.00,0.0073
1948.00,0.0075
1945.00,0.0076
1942.00,0.0074
1939.00,0.0074
1936.00,0.0074
1933.00,0.0075
1930.00,0.0074
1927.00,0.0074
1924.00,0.0075
1921.00,0.0076
1918.00,0.0076
1915.00,0.0078
1912.00,0.0080
1909.00,0.0084
1906.00,0.0084
1903.00,0.0080
1900.00,0.0080
1897.00,0.0080
1894.00,0.0081
1891.00,0.0080
1888.00,0.0079
1885.00,0.0078
1882.00,0.0078
1879.00,0.0078
1876.00,0.0078
1873.00,0.0078
1870.00,0.0077
1867.00,0.0078
1864.00,0.0078
1861.00,0.0079
1858.00,0.0079
1855.00,0.0079
1852.00,0.0080
1849.00,0.0080
1846.00,0.0081
1843.00,0.0080
1840.00,0.0079
1837.00,0.0079
1834.00,0.0079
1831.00,0.0078
1828.00,0.0077
1825.00,0.0077
1822.00,0.0079
1819.00,0.0078
1816.00,0.0077
1813.00,0.0078
1810.00,0.0079
1807.00,0.0079
1804.00,0.0080
1801.00,0.0080
1798.00,0.0080
1795.00,0.0081
1792.00,0.0080
1789.00,0.0080
1786.00,0.0081
1783.00,0.0081
1780.00,0.0082
1777.00,0.0083
1774.00,0.0083
1771.00,0.0082
1768.00,0.0082
1765.00,0.0084
1762.00,0.0084
1759.00,0.0086
1756.00,0.0086
1753.00,0.0085
1750.00,0.0086
1747.00,0.0088
1744.00,0.0089
1741.00,0.0089
1738.00,0.0090
1735.00,0.0090
1732.00,0.0093
1729.00,0.0098
1726.00,0.0102
1723.00,0.0105
1720.00,0.0107
1717.00,0.0110
1714.00,0.0116
1711.00,0.0124
1708.00,0.0131
1705.00,0.0139
1702.00,0.0147
1699.00,0.0166
1696.00,0.0195
1693.00,0.0229
1690.00,0.0268
1687.00,0.0310
1684.00,0.0362
1681.00,0.0418
1678.00,0.0470
1675.00,0.0524
1672.00,0.0578
1669.00,0.0637
1666.00,0.0692
1663.00,0.0740
1660.00,0.0789
1657.00,0.0824
1654.00,0.0841
1651.00,0.0875
1648.00,0.0883
1645.00,0.0882
1642.00,0.0877
1639.00,0.0857
1636.00,0.0814
1633.00,0.0781
1630.00,0.0772
1627.00,0.0792
1624.00,0.0811
1621.00,0.0801
1618.00,0.0742
1615.00,0.0644
1612.00,0.0615
1609.00,0.0584
1606.00,0.0520
1603.00,0.0451
1600.00,0.0396
1597.00,0.0360
1594.00,0.0346
1591.00,0.0362
1588.00,0.0404
1585.00,0.0437
1582.00,0.0435
1579.00,0.0408
1576.00,0.0362
1573.00,0.0328
1570.00,0.0307
1567.00,0.0288
1564.00,0.0262
1561.00,0.0235
1558.00,0.0203
1555.00,0.0198
1552.00,0.0195
1549.00,0.0190
1546.00,0.0184
1543.00,0.0178
1540.00,0.0169
1537.00,0.0169
1534.00,0.0167
1531.00,0.0165
1528.00,0.0165
1525.00,0.0164
1522.00,0.0164
1519.00,0.0169
1516.00,0.0178
1513.00,0.0190
1510.00,0.0199
1507.00,0.0208
1504.00,0.0232
1501.00,0.0270
1498.00,0.0337
1495.00,0.0388
1492.00,0.0359
1489.00,0.0297
1486.00,0.0250
1483.00,0.0223
1480.00,0.0210
1477.00,0.0211
1474.00,0.0231
1471.00,0.0301
1468.00,0.0401
1465.00,0.0496
1462.00,0.0532
1459.00,0.0520
1456.00,0.0450
1453.00,0.0417
1450.00,0.0423
1447.00,0.0471
1444.00,0.0540
1441.00,0.0604
1438.00,0.0632
1435.00,0.0640
1432.00,0.0650
1429.00,0.0672
1426.00,0.0706
1423.00,0.0725
1420.00,0.0686
1417.00,0.0585
1414.00,0.0500
1411.00,0.0443
1408.00,0.0428
1405.00,0.0448
1402.00,0.0477
1399.00,0.0476
1396.00,0.0437
1393.00,0.0383
1390.00,0.0359
1387.00,0.0375
1384.00,0.0374
1381.00,0.0376
1378.00,0.0389
1375.00,0.0379
1372.00,0.0352
1369.00,0.0356
1366.00,0.0384
1363.00,0.0390
1360.00,0.0415
1357.00,0.0386
1354.00,0.0346
1351.00,0.0333
1348.00,0.0335
1345.00,0.0331
1342.00,0.0313
1339.00,0.0293
1336.00,0.0287
1333.00,0.0301
1330.00,0.0323
1327.00,0.0342
1324.00,0.0358
1321.00,0.0372
1318.00,0.0377
1315.00,0.0362
1312.00,0.0343
1309.00,0.0341
1306.00,0.0368
1303.00,0.0434
1300.00,0.0511
1297.00,0.0580
1294.00,0.0674
1291.00,0.0750
1288.00,0.0788
1285.00,0.0799
1282.00,0.0777
1279.00,0.0733
1276.00,0.0704
1273.00,0.0684
1270.00,0.0645
1267.00,0.0589
1264.00,0.0529
1261.00,0.0474
1258.00,0.0429
1255.00,0.0399
1252.00,0.0382
1249.00,0.0383
1246.00,0.0405
1243.00,0.0430
1240.00,0.0450
1237.00,0.0488
1234.00,0.0527
1231.00,0.0523
1228.00,0.0487
1225.00,0.0458
1222.00,0.0444
1219.00,0.0449
1216.00,0.0465
1213.00,0.0463
1210.00,0.0427
1207.00,0.0390
1204.00,0.0379
1201.00,0.0400
1198.00,0.0444
1195.00,0.0489
1192.00,0.0480
1189.00,0.0430
1186.00,0.0376
1183.00,0.0341
1180.00,0.0325
1177.00,0.0322
1174.00,0.0324
1171.00,0.0326
1168.00,0.0323
1165.00,0.0319
1162.00,0.0325
1159.00,0.0367
1156.00,0.0445
1153.00,0.0450
1150.00,0.0361
1147.00,0.0298
1144.00,0.0275
1141.00,0.0268
1138.00,0.0274
1135.00,0.0308
1132.00,0.0398
1129.00,0.0493
1126.00,0.0491
1123.00,0.0427
1120.00,0.0359
1117.00,0.0329
1114.00,0.0323
1111.00,0.0311
1108.00,0.0299
1105.00,0.0310
1102.00,0.0363
1099.00,0.0405
1096.00,0.0365
1093.00,0.0309
1090.00,0.0281
1087.00,0.0270
1084.00,0.0266
1081.00,0.0266
1078.00,0.0270
1075.00,0.0275
1072.00,0.0280
1069.00,0.0287
1066.00,0.0299
1063.00,0.0324
1060.00,0.0385
1057.00,0.0498
1054.00,0.0595
1051.00,0.0620
1048.00,0.0604
1045.00,0.0535
1042.00,0.0449
1039.00,0.0392
1036.00,0.0385
1033.00,0.0401
1030.00,0.0468
1027.00,0.0567
1024.00,0.0547
1021.00,0.0457
1018.00,0.0392
1015.00,0.0347
1012.00,0.0318
1009.00,0.0320
1006.00,0.0359
1003.00,0.0393
1000.00,0.0381
997.00,0.0354
994.00,0.0334
991.00,0.0311
988.00,0.0284
985.00,0.0266
982.00,0.0257
979.00,0.0252
976.00,0.0250
973.00,0.0247
970.00,0.0243
967.00,0.0242
964.00,0.0245
961.00,0.0246
958.00,0.0232
955.00,0.0219
952.00,0.0214
949.00,0.0218
946.00,0.0221
943.00,0.0225
940.00,0.0239
937.00,0.0254
934.00,0.0268
931.00,0.0266
928.00,0.0254
925.00,0.0255
922.00,0.0267
919.00,0.0256
916.00,0.0233
913.00,0.0219
910.00,0.0215
907.00,0.0217
904.00,0.0232
901.00,0.0266
898.00,0.0286
895.00,0.0268
892.00,0.0273
889.00,0.0285
886.00,0.0247
883.00,0.0233
880.00,0.0238
877.00,0.0268
874.00,0.0336
871.00,0.0415
868.00,0.0423
865.00,0.0376
862.00,0.0334
859.00,0.0311
856.00,0.0332
853.00,0.0381
850.00,0.0434
847.00,0.0443
844.00,0.0404
841.00,0.0380
838.00,0.0392
835.00,0.0438
832.00,0.0447
829.00,0.0396
826.00,0.0337
823.00,0.0362
820.00,0.0468
817.00,0.0508
814.00,0.0497
811.00,0.0371
808.00,0.0317
805.00,0.0297
802.00,0.0290
799.00,0.0288
796.00,0.0287
793.00,0.0287
790.00,0.0288
787.00,0.0290
784.00,0.0293
781.00,0.0298
778.00,0.0309
775.00,0.0335
772.00,0.0337
769.00,0.0328
766.00,0.0331
763.00,0.0343
760.00,0.0364
757.00,0.0372
754.00,0.0377
751.00,0.0386
748.00,0.0399
745.00,0.0412
742.00,0.0431
739.00,0.0464
736.00,0.0526
733.00,0.0542
730.00,0.0531
727.00,0.0525
724.00,0.0482
721.00,0.0455
718.00,0.0461
715.00,0.0482
712.00,0.0480
709.00,0.0468
706.00,0.0466
703.00,0.0474
700.00,0.0490
697.00,0.0503
694.00,0.0499
691.00,0.0505
688.00,0.0533
685.00,0.0534
682.00,0.0532
679.00,0.0541
676.00,0.0561
673.00,0.0591
670.00,0.0610
667.00,0.0617
664.00,0.0626
661.00,0.0649
658.00,0.0655
655.00,0.0657
652.00,0.0666
649.00,0.0677
646.00,0.0682
643.00,0.0676
640.00,0.0667
637.00,0.0656
634.00,0.0649
631.00,0.0645
628.00,0.0644
625.00,0.0649
622.00,0.0663
619.00,0.0674
616.00,0.0661
613.00,0.0638
610.00,0.0639
607.00,0.0668
604.00,0.0710
601.00,0.0729
598.00,0.0734
595.00,0.0738
592.00,0.0739
589.00,0.0741
586.00,0.0745
583.00,0.0760
580.00,0.0789
577.00,0.0829
574.00,0.0835
571.00,0.0808
568.00,0.0788
565.00,0.0790
562.00,0.0808
559.00,0.0826
556.00,0.0805
553.00,0.0782
550.00,0.0794
547.00,0.0821
544.00,0.0818
541.00,0.0793
538.00,0.0777
535.00,0.0781
532.00,0.0807
529.00,0.0810
526.00,0.0783
523.00,0.0760
520.00,0.0748
517.00,0.0742
514.00,0.0735
511.00,0.0735
508.00,0.0743
505.00,0.0752
502.00,0.0741
499.00,0.0733
496.00,0.0735
493.00,0.0747
490.00,0.0753
487.00,0.0740
484.00,0.0737
481.00,0.0736
478.00,0.0733
475.00,0.0733
472.00,0.0726
469.00,0.0727
466.00,0.0723
463.00,0.0716
460.00,0.0713
457.00,0.0709
454.00,0.0703
451.00,0.0700
448.00,0.0694
445.00,0.0680
442.00,0.0682
439.00,0.0671
436.00,0.0664
433.00,0.0644
430.00,0.0644
427.00,0.0644
424.00,0.0626
421.00,0.0617
418.00,0.0615
415.00,0.0609
412.00,0.0621
409.00,0.0618
406.00,0.0611
403.00,0.0615
400.00,0.0589