File: FTIR/Olivia/2025_08_15_1CBG_3PVP29_silicone_powder_scan3.csv
Created as New Dataset,Sample 123 By YargerLab Date Friday, August 15 2025
cm-1,A
4000.00,0.0050
3997.00,0.0049
3994.00,0.0049
3991.00,0.0049
3988.00,0.0050
3985.00,0.0050
3982.00,0.0050
3979.00,0.0049
3976.00,0.0049
3973.00,0.0049
3970.00,0.0049
3967.00,0.0049
3964.00,0.0050
3961.00,0.0050
3958.00,0.0050
3955.00,0.0050
3952.00,0.0050
3949.00,0.0049
3946.00,0.0049
3943.00,0.0049
3940.00,0.0049
3937.00,0.0049
3934.00,0.0049
3931.00,0.0048
3928.00,0.0049
3925.00,0.0049
3922.00,0.0049
3919.00,0.0049
3916.00,0.0049
3913.00,0.0049
3910.00,0.0049
3907.00,0.0050
3904.00,0.0050
3901.00,0.0049
3898.00,0.0049
3895.00,0.0049
3892.00,0.0049
3889.00,0.0051
3886.00,0.0049
3883.00,0.0049
3880.00,0.0048
3877.00,0.0049
3874.00,0.0049
3871.00,0.0049
3868.00,0.0050
3865.00,0.0048
3862.00,0.0049
3859.00,0.0050
3856.00,0.0051
3853.00,0.0050
3850.00,0.0049
3847.00,0.0049
3844.00,0.0049
3841.00,0.0050
3838.00,0.0050
3835.00,0.0050
3832.00,0.0049
3829.00,0.0049
3826.00,0.0050
3823.00,0.0050
3820.00,0.0050
3817.00,0.0049
3814.00,0.0050
3811.00,0.0050
3808.00,0.0050
3805.00,0.0051
3802.00,0.0050
3799.00,0.0050
3796.00,0.0048
3793.00,0.0048
3790.00,0.0049
3787.00,0.0049
3784.00,0.0049
3781.00,0.0049
3778.00,0.0049
3775.00,0.0049
3772.00,0.0049
3769.00,0.0049
3766.00,0.0049
3763.00,0.0049
3760.00,0.0050
3757.00,0.0051
3754.00,0.0051
3751.00,0.0051
3748.00,0.0051
3745.00,0.0049
3742.00,0.0049
3739.00,0.0048
3736.00,0.0049
3733.00,0.0048
3730.00,0.0048
3727.00,0.0048
3724.00,0.0048
3721.00,0.0048
3718.00,0.0048
3715.00,0.0049
3712.00,0.0049
3709.00,0.0049
3706.00,0.0049
3703.00,0.0048
3700.00,0.0048
3697.00,0.0049
3694.00,0.0051
3691.00,0.0052
3688.00,0.0052
3685.00,0.0054
3682.00,0.0055
3679.00,0.0057
3676.00,0.0057
3673.00,0.0058
3670.00,0.0058
3667.00,0.0058
3664.00,0.0059
3661.00,0.0061
3658.00,0.0062
3655.00,0.0064
3652.00,0.0064
3649.00,0.0065
3646.00,0.0067
3643.00,0.0069
3640.00,0.0072
3637.00,0.0073
3634.00,0.0076
3631.00,0.0079
3628.00,0.0081
3625.00,0.0082
3622.00,0.0085
3619.00,0.0088
3616.00,0.0091
3613.00,0.0093
3610.00,0.0096
3607.00,0.0099
3604.00,0.0101
3601.00,0.0104
3598.00,0.0107
3595.00,0.0111
3592.00,0.0115
3589.00,0.0118
3586.00,0.0122
3583.00,0.0125
3580.00,0.0128
3577.00,0.0132
3574.00,0.0136
3571.00,0.0140
3568.00,0.0144
3565.00,0.0148
3562.00,0.0152
3559.00,0.0156
3556.00,0.0159
3553.00,0.0164
3550.00,0.0167
3547.00,0.0171
3544.00,0.0175
3541.00,0.0177
3538.00,0.0181
3535.00,0.0184
3532.00,0.0188
3529.00,0.0191
3526.00,0.0194
3523.00,0.0197
3520.00,0.0200
3517.00,0.0203
3514.00,0.0206
3511.00,0.0209
3508.00,0.0212
3505.00,0.0215
3502.00,0.0217
3499.00,0.0220
3496.00,0.0222
3493.00,0.0224
3490.00,0.0227
3487.00,0.0230
3484.00,0.0232
3481.00,0.0235
3478.00,0.0237
3475.00,0.0239
3472.00,0.0241
3469.00,0.0244
3466.00,0.0246
3463.00,0.0247
3460.00,0.0249
3457.00,0.0251
3454.00,0.0252
3451.00,0.0254
3448.00,0.0256
3445.00,0.0258
3442.00,0.0260
3439.00,0.0261
3436.00,0.0263
3433.00,0.0264
3430.00,0.0266
3427.00,0.0267
3424.00,0.0269
3421.00,0.0270
3418.00,0.0271
3415.00,0.0272
3412.00,0.0274
3409.00,0.0276
3406.00,0.0277
3403.00,0.0278
3400.00,0.0280
3397.00,0.0281
3394.00,0.0281
3391.00,0.0282
3388.00,0.0284
3385.00,0.0285
3382.00,0.0287
3379.00,0.0288
3376.00,0.0288
3373.00,0.0289
3370.00,0.0287
3367.00,0.0289
3364.00,0.0291
3361.00,0.0293
3358.00,0.0294
3355.00,0.0295
3352.00,0.0294
3349.00,0.0295
3346.00,0.0297
3343.00,0.0297
3340.00,0.0297
3337.00,0.0298
3334.00,0.0302
3331.00,0.0302
3328.00,0.0302
3325.00,0.0302
3322.00,0.0305
3319.00,0.0306
3316.00,0.0307
3313.00,0.0307
3310.00,0.0304
3307.00,0.0302
3304.00,0.0305
3301.00,0.0310
3298.00,0.0309
3295.00,0.0308
3292.00,0.0309
3289.00,0.0313
3286.00,0.0314
3283.00,0.0314
3280.00,0.0314
3277.00,0.0312
3274.00,0.0310
3271.00,0.0309
3268.00,0.0311
3265.00,0.0312
3262.00,0.0311
3259.00,0.0310
3256.00,0.0309
3253.00,0.0309
3250.00,0.0307
3247.00,0.0306
3244.00,0.0306
3241.00,0.0306
3238.00,0.0305
3235.00,0.0302
3232.00,0.0301
3229.00,0.0301
3226.00,0.0300
3223.00,0.0298
3220.00,0.0296
3217.00,0.0294
3214.00,0.0293
3211.00,0.0292
3208.00,0.0290
3205.00,0.0289
3202.00,0.0288
3199.00,0.0288
3196.00,0.0286
3193.00,0.0284
3190.00,0.0282
3187.00,0.0280
3184.00,0.0277
3181.00,0.0275
3178.00,0.0273
3175.00,0.0270
3172.00,0.0267
3169.00,0.0265
3166.00,0.0263
3163.00,0.0260
3160.00,0.0257
3157.00,0.0254
3154.00,0.0251
3151.00,0.0248
3148.00,0.0246
3145.00,0.0243
3142.00,0.0241
3139.00,0.0239
3136.00,0.0236
3133.00,0.0235
3130.00,0.0233
3127.00,0.0231
3124.00,0.0228
3121.00,0.0226
3118.00,0.0223
3115.00,0.0221
3112.00,0.0218
3109.00,0.0215
3106.00,0.0213
3103.00,0.0209
3100.00,0.0206
3097.00,0.0204
3094.00,0.0201
3091.00,0.0197
3088.00,0.0195
3085.00,0.0192
3082.00,0.0190
3079.00,0.0188
3076.00,0.0185
3073.00,0.0183
3070.00,0.0181
3067.00,0.0179
3064.00,0.0177
3061.00,0.0176
3058.00,0.0174
3055.00,0.0173
3052.00,0.0171
3049.00,0.0170
3046.00,0.0168
3043.00,0.0166
3040.00,0.0165
3037.00,0.0164
3034.00,0.0163
3031.00,0.0162
3028.00,0.0162
3025.00,0.0162
3022.00,0.0162
3019.00,0.0162
3016.00,0.0162
3013.00,0.0164
3010.00,0.0167
3007.00,0.0172
3004.00,0.0178
3001.00,0.0188
2998.00,0.0199
2995.00,0.0213
2992.00,0.0230
2989.00,0.0246
2986.00,0.0261
2983.00,0.0272
2980.00,0.0284
2977.00,0.0298
2974.00,0.0312
2971.00,0.0328
2968.00,0.0349
2965.00,0.0370
2962.00,0.0389
2959.00,0.0403
2956.00,0.0410
2953.00,0.0410
2950.00,0.0405
2947.00,0.0399
2944.00,0.0396
2941.00,0.0400
2938.00,0.0411
2935.00,0.0427
2932.00,0.0444
2929.00,0.0459
2926.00,0.0470
2923.00,0.0474
2920.00,0.0473
2917.00,0.0465
2914.00,0.0451
2911.00,0.0434
2908.00,0.0416
2905.00,0.0399
2902.00,0.0386
2899.00,0.0378
2896.00,0.0372
2893.00,0.0367
2890.00,0.0361
2887.00,0.0355
2884.00,0.0350
2881.00,0.0348
2878.00,0.0347
2875.00,0.0347
2872.00,0.0348
2869.00,0.0347
2866.00,0.0345
2863.00,0.0346
2860.00,0.0350
2857.00,0.0352
2854.00,0.0343
2851.00,0.0325
2848.00,0.0301
2845.00,0.0279
2842.00,0.0257
2839.00,0.0237
2836.00,0.0223
2833.00,0.0210
2830.00,0.0199
2827.00,0.0188
2824.00,0.0177
2821.00,0.0167
2818.00,0.0158
2815.00,0.0151
2812.00,0.0145
2809.00,0.0141
2806.00,0.0138
2803.00,0.0135
2800.00,0.0131
2797.00,0.0128
2794.00,0.0127
2791.00,0.0125
2788.00,0.0123
2785.00,0.0122
2782.00,0.0121
2779.00,0.0119
2776.00,0.0118
2773.00,0.0117
2770.00,0.0116
2767.00,0.0115
2764.00,0.0114
2761.00,0.0114
2758.00,0.0114
2755.00,0.0114
2752.00,0.0114
2749.00,0.0114
2746.00,0.0114
2743.00,0.0115
2740.00,0.0115
2737.00,0.0115
2734.00,0.0116
2731.00,0.0116
2728.00,0.0116
2725.00,0.0116
2722.00,0.0115
2719.00,0.0115
2716.00,0.0115
2713.00,0.0114
2710.00,0.0113
2707.00,0.0112
2704.00,0.0112
2701.00,0.0112
2698.00,0.0111
2695.00,0.0110
2692.00,0.0110
2689.00,0.0109
2686.00,0.0109
2683.00,0.0108
2680.00,0.0107
2677.00,0.0106
2674.00,0.0106
2671.00,0.0105
2668.00,0.0105
2665.00,0.0105
2662.00,0.0106
2659.00,0.0106
2656.00,0.0105
2653.00,0.0105
2650.00,0.0104
2647.00,0.0102
2644.00,0.0102
2641.00,0.0101
2638.00,0.0100
2635.00,0.0099
2632.00,0.0098
2629.00,0.0097
2626.00,0.0097
2623.00,0.0095
2620.00,0.0095
2617.00,0.0094
2614.00,0.0093
2611.00,0.0092
2608.00,0.0092
2605.00,0.0092
2602.00,0.0091
2599.00,0.0091
2596.00,0.0091
2593.00,0.0091
2590.00,0.0091
2587.00,0.0090
2584.00,0.0090
2581.00,0.0090
2578.00,0.0089
2575.00,0.0089
2572.00,0.0088
2569.00,0.0088
2566.00,0.0087
2563.00,0.0087
2560.00,0.0086
2557.00,0.0086
2554.00,0.0086
2551.00,0.0085
2548.00,0.0084
2545.00,0.0084
2542.00,0.0084
2539.00,0.0083
2536.00,0.0083
2533.00,0.0083
2530.00,0.0082
2527.00,0.0081
2524.00,0.0080
2521.00,0.0080
2518.00,0.0080
2515.00,0.0080
2512.00,0.0079
2509.00,0.0079
2506.00,0.0078
2503.00,0.0078
2500.00,0.0078
2497.00,0.0078
2494.00,0.0077
2491.00,0.0077
2488.00,0.0076
2485.00,0.0077
2482.00,0.0077
2479.00,0.0076
2476.00,0.0075
2473.00,0.0075
2470.00,0.0075
2467.00,0.0075
2464.00,0.0075
2461.00,0.0075
2458.00,0.0075
2455.00,0.0075
2452.00,0.0075
2449.00,0.0074
2446.00,0.0074
2443.00,0.0074
2440.00,0.0074
2437.00,0.0072
2434.00,0.0073
2431.00,0.0073
2428.00,0.0073
2425.00,0.0073
2422.00,0.0072
2419.00,0.0073
2416.00,0.0073
2413.00,0.0073
2410.00,0.0074
2407.00,0.0073
2404.00,0.0073
2401.00,0.0072
2398.00,0.0073
2395.00,0.0073
2392.00,0.0072
2389.00,0.0072
2386.00,0.0070
2383.00,0.0068
2380.00,0.0065
2377.00,0.0065
2374.00,0.0066
2371.00,0.0066
2368.00,0.0065
2365.00,0.0065
2362.00,0.0065
2359.00,0.0065
2356.00,0.0066
2353.00,0.0066
2350.00,0.0063
2347.00,0.0066
2344.00,0.0068
2341.00,0.0069
2338.00,0.0069
2335.00,0.0070
2332.00,0.0070
2329.00,0.0072
2326.00,0.0078
2323.00,0.0077
2320.00,0.0074
2317.00,0.0073
2314.00,0.0072
2311.00,0.0071
2308.00,0.0071
2305.00,0.0072
2302.00,0.0072
2299.00,0.0073
2296.00,0.0076
2293.00,0.0077
2290.00,0.0079
2287.00,0.0080
2284.00,0.0078
2281.00,0.0076
2278.00,0.0076
2275.00,0.0075
2272.00,0.0075
2269.00,0.0074
2266.00,0.0073
2263.00,0.0072
2260.00,0.0073
2257.00,0.0073
2254.00,0.0072
2251.00,0.0072
2248.00,0.0072
2245.00,0.0073
2242.00,0.0074
2239.00,0.0073
2236.00,0.0073
2233.00,0.0073
2230.00,0.0072
2227.00,0.0073
2224.00,0.0075
2221.00,0.0074
2218.00,0.0074
2215.00,0.0071
2212.00,0.0072
2209.00,0.0072
2206.00,0.0073
2203.00,0.0074
2200.00,0.0074
2197.00,0.0074
2194.00,0.0075
2191.00,0.0075
2188.00,0.0077
2185.00,0.0074
2182.00,0.0068
2179.00,0.0071
2176.00,0.0069
2173.00,0.0070
2170.00,0.0076
2167.00,0.0078
2164.00,0.0077
2161.00,0.0064
2158.00,0.0048
2155.00,0.0055
2152.00,0.0059
2149.00,0.0056
2146.00,0.0057
2143.00,0.0059
2140.00,0.0059
2137.00,0.0058
2134.00,0.0057
2131.00,0.0059
2128.00,0.0061
2125.00,0.0065
2122.00,0.0067
2119.00,0.0069
2116.00,0.0072
2113.00,0.0072
2110.00,0.0070
2107.00,0.0072
2104.00,0.0070
2101.00,0.0069
2098.00,0.0068
2095.00,0.0066
2092.00,0.0066
2089.00,0.0067
2086.00,0.0068
2083.00,0.0068
2080.00,0.0068
2077.00,0.0068
2074.00,0.0067
2071.00,0.0065
2068.00,0.0066
2065.00,0.0066
2062.00,0.0065
2059.00,0.0064
2056.00,0.0064
2053.00,0.0070
2050.00,0.0069
2047.00,0.0065
2044.00,0.0065
2041.00,0.0064
2038.00,0.0061
2035.00,0.0057
2032.00,0.0058
2029.00,0.0058
2026.00,0.0056
2023.00,0.0056
2020.00,0.0059
2017.00,0.0057
2014.00,0.0055
2011.00,0.0058
2008.00,0.0056
2005.00,0.0054
2002.00,0.0056
1999.00,0.0056
1996.00,0.0060
1993.00,0.0060
1990.00,0.0059
1987.00,0.0063
1984.00,0.0069
1981.00,0.0071
1978.00,0.0057
1975.00,0.0049
1972.00,0.0051
1969.00,0.0053
1966.00,0.0055
1963.00,0.0055
1960.00,0.0052
1957.00,0.0055
1954.00,0.0056
1951.00,0.0055
1948.00,0.0056
1945.00,0.0057
1942.00,0.0056
1939.00,0.0057
1936.00,0.0058
1933.00,0.0058
1930.00,0.0057
1927.00,0.0059
1924.00,0.0059
1921.00,0.0059
1918.00,0.0059
1915.00,0.0060
1912.00,0.0060
1909.00,0.0062
1906.00,0.0061
1903.00,0.0061
1900.00,0.0060
1897.00,0.0060
1894.00,0.0061
1891.00,0.0061
1888.00,0.0061
1885.00,0.0060
1882.00,0.0061
1879.00,0.0061
1876.00,0.0061
1873.00,0.0061
1870.00,0.0062
1867.00,0.0062
1864.00,0.0061
1861.00,0.0060
1858.00,0.0061
1855.00,0.0061
1852.00,0.0062
1849.00,0.0062
1846.00,0.0061
1843.00,0.0061
1840.00,0.0062
1837.00,0.0063
1834.00,0.0062
1831.00,0.0063
1828.00,0.0063
1825.00,0.0063
1822.00,0.0062
1819.00,0.0061
1816.00,0.0060
1813.00,0.0062
1810.00,0.0062
1807.00,0.0062
1804.00,0.0063
1801.00,0.0062
1798.00,0.0063
1795.00,0.0063
1792.00,0.0062
1789.00,0.0063
1786.00,0.0064
1783.00,0.0065
1780.00,0.0065
1777.00,0.0065
1774.00,0.0065
1771.00,0.0066
1768.00,0.0067
1765.00,0.0068
1762.00,0.0068
1759.00,0.0070
1756.00,0.0070
1753.00,0.0071
1750.00,0.0074
1747.00,0.0076
1744.00,0.0078
1741.00,0.0077
1738.00,0.0080
1735.00,0.0082
1732.00,0.0089
1729.00,0.0094
1726.00,0.0100
1723.00,0.0108
1720.00,0.0114
1717.00,0.0125
1714.00,0.0141
1711.00,0.0160
1708.00,0.0186
1705.00,0.0226
1702.00,0.0266
1699.00,0.0369
1696.00,0.0478
1693.00,0.0619
1690.00,0.0765
1687.00,0.0908
1684.00,0.1087
1681.00,0.1227
1678.00,0.1326
1675.00,0.1440
1672.00,0.1541
1669.00,0.1675
1666.00,0.1796
1663.00,0.1928
1660.00,0.2054
1657.00,0.2134
1654.00,0.2194
1651.00,0.2207
1648.00,0.2155
1645.00,0.2006
1642.00,0.1842
1639.00,0.1653
1636.00,0.1438
1633.00,0.1234
1630.00,0.1097
1627.00,0.0979
1624.00,0.0903
1621.00,0.0851
1618.00,0.0801
1615.00,0.0734
1612.00,0.0671
1609.00,0.0618
1606.00,0.0598
1603.00,0.0617
1600.00,0.0646
1597.00,0.0643
1594.00,0.0599
1591.00,0.0543
1588.00,0.0497
1585.00,0.0455
1582.00,0.0412
1579.00,0.0372
1576.00,0.0335
1573.00,0.0311
1570.00,0.0290
1567.00,0.0274
1564.00,0.0261
1561.00,0.0244
1558.00,0.0237
1555.00,0.0235
1552.00,0.0232
1549.00,0.0229
1546.00,0.0228
1543.00,0.0226
1540.00,0.0225
1537.00,0.0225
1534.00,0.0220
1531.00,0.0216
1528.00,0.0214
1525.00,0.0214
1522.00,0.0214
1519.00,0.0217
1516.00,0.0220
1513.00,0.0221
1510.00,0.0228
1507.00,0.0245
1504.00,0.0285
1501.00,0.0333
1498.00,0.0404
1495.00,0.0468
1492.00,0.0474
1489.00,0.0421
1486.00,0.0349
1483.00,0.0302
1480.00,0.0280
1477.00,0.0285
1474.00,0.0320
1471.00,0.0424
1468.00,0.0553
1465.00,0.0732
1462.00,0.0870
1459.00,0.0882
1456.00,0.0775
1453.00,0.0712
1450.00,0.0714
1447.00,0.0805
1444.00,0.0938
1441.00,0.1074
1438.00,0.1174
1435.00,0.1276
1432.00,0.1347
1429.00,0.1425
1426.00,0.1487
1423.00,0.1532
1420.00,0.1453
1417.00,0.1196
1414.00,0.0952
1411.00,0.0765
1408.00,0.0651
1405.00,0.0586
1402.00,0.0549
1399.00,0.0528
1396.00,0.0516
1393.00,0.0514
1390.00,0.0523
1387.00,0.0552
1384.00,0.0594
1381.00,0.0636
1378.00,0.0671
1375.00,0.0682
1372.00,0.0656
1369.00,0.0616
1366.00,0.0571
1363.00,0.0526
1360.00,0.0488
1357.00,0.0466
1354.00,0.0453
1351.00,0.0441
1348.00,0.0425
1345.00,0.0408
1342.00,0.0399
1339.00,0.0400
1336.00,0.0405
1333.00,0.0419
1330.00,0.0445
1327.00,0.0487
1324.00,0.0543
1321.00,0.0596
1318.00,0.0625
1315.00,0.0616
1312.00,0.0581
1309.00,0.0548
1306.00,0.0537
1303.00,0.0569
1300.00,0.0667
1297.00,0.0859
1294.00,0.1131
1291.00,0.1386
1288.00,0.1526
1285.00,0.1520
1282.00,0.1418
1279.00,0.1335
1276.00,0.1331
1273.00,0.1351
1270.00,0.1318
1267.00,0.1220
1264.00,0.1098
1261.00,0.0974
1258.00,0.0858
1255.00,0.0758
1252.00,0.0678
1249.00,0.0623
1246.00,0.0589
1243.00,0.0576
1240.00,0.0585
1237.00,0.0617
1234.00,0.0670
1231.00,0.0726
1228.00,0.0759
1225.00,0.0765
1222.00,0.0758
1219.00,0.0742
1216.00,0.0710
1213.00,0.0666
1210.00,0.0624
1207.00,0.0590
1204.00,0.0565
1201.00,0.0544
1198.00,0.0524
1195.00,0.0505
1192.00,0.0492
1189.00,0.0483
1186.00,0.0478
1183.00,0.0478
1180.00,0.0488
1177.00,0.0513
1174.00,0.0552
1171.00,0.0599
1168.00,0.0639
1165.00,0.0653
1162.00,0.0633
1159.00,0.0596
1156.00,0.0557
1153.00,0.0519
1150.00,0.0483
1147.00,0.0450
1144.00,0.0423
1141.00,0.0404
1138.00,0.0390
1135.00,0.0382
1132.00,0.0378
1129.00,0.0379
1126.00,0.0382
1123.00,0.0387
1120.00,0.0395
1117.00,0.0408
1114.00,0.0426
1111.00,0.0447
1108.00,0.0461
1105.00,0.0467
1102.00,0.0470
1099.00,0.0478
1096.00,0.0488
1093.00,0.0493
1090.00,0.0496
1087.00,0.0507
1084.00,0.0521
1081.00,0.0523
1078.00,0.0513
1075.00,0.0500
1072.00,0.0482
1069.00,0.0463
1066.00,0.0454
1063.00,0.0457
1060.00,0.0482
1057.00,0.0542
1054.00,0.0653
1051.00,0.0774
1048.00,0.0811
1045.00,0.0755
1042.00,0.0687
1039.00,0.0645
1036.00,0.0619
1033.00,0.0600
1030.00,0.0583
1027.00,0.0570
1024.00,0.0565
1021.00,0.0565
1018.00,0.0557
1015.00,0.0524
1012.00,0.0469
1009.00,0.0429
1006.00,0.0422
1003.00,0.0432
1000.00,0.0421
997.00,0.0392
994.00,0.0370
991.00,0.0359
988.00,0.0358
985.00,0.0353
982.00,0.0340
979.00,0.0325
976.00,0.0312
973.00,0.0299
970.00,0.0286
967.00,0.0273
964.00,0.0263
961.00,0.0254
958.00,0.0244
955.00,0.0237
952.00,0.0231
949.00,0.0228
946.00,0.0228
943.00,0.0231
940.00,0.0242
937.00,0.0265
934.00,0.0288
931.00,0.0288
928.00,0.0275
925.00,0.0272
922.00,0.0274
919.00,0.0277
916.00,0.0284
913.00,0.0290
910.00,0.0299
907.00,0.0307
904.00,0.0310
901.00,0.0313
898.00,0.0320
895.00,0.0323
892.00,0.0318
889.00,0.0310
886.00,0.0306
883.00,0.0305
880.00,0.0309
877.00,0.0316
874.00,0.0323
871.00,0.0331
868.00,0.0343
865.00,0.0361
862.00,0.0386
859.00,0.0416
856.00,0.0453
853.00,0.0496
850.00,0.0535
847.00,0.0567
844.00,0.0589
841.00,0.0599
838.00,0.0607
835.00,0.0615
832.00,0.0620
829.00,0.0620
826.00,0.0606
823.00,0.0580
820.00,0.0548
817.00,0.0521
814.00,0.0502
811.00,0.0494
808.00,0.0489
805.00,0.0486
802.00,0.0487
799.00,0.0487
796.00,0.0487
793.00,0.0485
790.00,0.0477
787.00,0.0470
784.00,0.0467
781.00,0.0465
778.00,0.0467
775.00,0.0468
772.00,0.0468
769.00,0.0470
766.00,0.0479
763.00,0.0491
760.00,0.0511
757.00,0.0537
754.00,0.0565
751.00,0.0594
748.00,0.0622
745.00,0.0649
742.00,0.0674
739.00,0.0696
736.00,0.0711
733.00,0.0709
730.00,0.0687
727.00,0.0651
724.00,0.0619
721.00,0.0597
718.00,0.0581
715.00,0.0576
712.00,0.0575
709.00,0.0577
706.00,0.0581
703.00,0.0587
700.00,0.0593
697.00,0.0602
694.00,0.0612
691.00,0.0625
688.00,0.0642
685.00,0.0663
682.00,0.0682
679.00,0.0699
676.00,0.0719
673.00,0.0740
670.00,0.0759
667.00,0.0799
664.00,0.0828
661.00,0.0866
658.00,0.0910
655.00,0.0953
652.00,0.0993
649.00,0.1017
646.00,0.1015
643.00,0.0990
640.00,0.0952
637.00,0.0914
634.00,0.0880
631.00,0.0852
628.00,0.0828
625.00,0.0812
622.00,0.0799
619.00,0.0792
616.00,0.0791
613.00,0.0792
610.00,0.0802
607.00,0.0807
604.00,0.0820
601.00,0.0832
598.00,0.0845
595.00,0.0859
592.00,0.0882
589.00,0.0907
586.00,0.0942
583.00,0.0988
580.00,0.1030
577.00,0.1061
574.00,0.1071
571.00,0.1071
568.00,0.1056
565.00,0.1031
562.00,0.0997
559.00,0.0964
556.00,0.0937
553.00,0.0911
550.00,0.0894
547.00,0.0877
544.00,0.0866
541.00,0.0859
538.00,0.0852
535.00,0.0848
532.00,0.0847
529.00,0.0844
526.00,0.0842
523.00,0.0835
520.00,0.0829
517.00,0.0821
514.00,0.0816
511.00,0.0813
508.00,0.0808
505.00,0.0805
502.00,0.0811
499.00,0.0814
496.00,0.0811
493.00,0.0819
490.00,0.0822
487.00,0.0825
484.00,0.0831
481.00,0.0831
478.00,0.0835
475.00,0.0843
472.00,0.0848
469.00,0.0845
466.00,0.0840
463.00,0.0838
460.00,0.0832
457.00,0.0833
454.00,0.0832
451.00,0.0824
448.00,0.0816
445.00,0.0802
442.00,0.0798
439.00,0.0781
436.00,0.0767
433.00,0.0753
430.00,0.0748
427.00,0.0750
424.00,0.0739
421.00,0.0730
418.00,0.0727
415.00,0.0739
412.00,0.0742
409.00,0.0727
406.00,0.0757
403.00,0.0771
400.00,0.0771