File: FTIR/Olivia/2025_08_04_1CBN_3PVP10kDa_MortPest_powder_scan1.csv
Created as New Dataset,Sample 1032 By YargerLab Date Monday, August 04 2025
cm-1,A
4000.00,0.0093
3997.00,0.0093
3994.00,0.0093
3991.00,0.0093
3988.00,0.0093
3985.00,0.0093
3982.00,0.0093
3979.00,0.0093
3976.00,0.0093
3973.00,0.0093
3970.00,0.0093
3967.00,0.0093
3964.00,0.0093
3961.00,0.0093
3958.00,0.0093
3955.00,0.0093
3952.00,0.0093
3949.00,0.0092
3946.00,0.0092
3943.00,0.0093
3940.00,0.0093
3937.00,0.0093
3934.00,0.0093
3931.00,0.0092
3928.00,0.0093
3925.00,0.0093
3922.00,0.0093
3919.00,0.0093
3916.00,0.0092
3913.00,0.0092
3910.00,0.0093
3907.00,0.0093
3904.00,0.0093
3901.00,0.0093
3898.00,0.0092
3895.00,0.0093
3892.00,0.0093
3889.00,0.0093
3886.00,0.0092
3883.00,0.0092
3880.00,0.0092
3877.00,0.0093
3874.00,0.0093
3871.00,0.0093
3868.00,0.0093
3865.00,0.0093
3862.00,0.0093
3859.00,0.0094
3856.00,0.0095
3853.00,0.0094
3850.00,0.0093
3847.00,0.0093
3844.00,0.0093
3841.00,0.0093
3838.00,0.0093
3835.00,0.0094
3832.00,0.0093
3829.00,0.0093
3826.00,0.0092
3823.00,0.0093
3820.00,0.0093
3817.00,0.0093
3814.00,0.0093
3811.00,0.0093
3808.00,0.0093
3805.00,0.0093
3802.00,0.0093
3799.00,0.0094
3796.00,0.0093
3793.00,0.0092
3790.00,0.0092
3787.00,0.0092
3784.00,0.0093
3781.00,0.0093
3778.00,0.0092
3775.00,0.0092
3772.00,0.0092
3769.00,0.0093
3766.00,0.0093
3763.00,0.0092
3760.00,0.0092
3757.00,0.0093
3754.00,0.0094
3751.00,0.0094
3748.00,0.0094
3745.00,0.0093
3742.00,0.0092
3739.00,0.0092
3736.00,0.0091
3733.00,0.0091
3730.00,0.0091
3727.00,0.0090
3724.00,0.0090
3721.00,0.0090
3718.00,0.0091
3715.00,0.0091
3712.00,0.0091
3709.00,0.0090
3706.00,0.0090
3703.00,0.0090
3700.00,0.0090
3697.00,0.0090
3694.00,0.0091
3691.00,0.0092
3688.00,0.0092
3685.00,0.0092
3682.00,0.0093
3679.00,0.0094
3676.00,0.0095
3673.00,0.0095
3670.00,0.0095
3667.00,0.0095
3664.00,0.0095
3661.00,0.0095
3658.00,0.0096
3655.00,0.0097
3652.00,0.0097
3649.00,0.0098
3646.00,0.0099
3643.00,0.0099
3640.00,0.0101
3637.00,0.0102
3634.00,0.0102
3631.00,0.0104
3628.00,0.0105
3625.00,0.0106
3622.00,0.0107
3619.00,0.0110
3616.00,0.0111
3613.00,0.0113
3610.00,0.0115
3607.00,0.0116
3604.00,0.0118
3601.00,0.0120
3598.00,0.0123
3595.00,0.0125
3592.00,0.0127
3589.00,0.0129
3586.00,0.0131
3583.00,0.0134
3580.00,0.0137
3577.00,0.0140
3574.00,0.0144
3571.00,0.0147
3568.00,0.0148
3565.00,0.0151
3562.00,0.0155
3559.00,0.0158
3556.00,0.0161
3553.00,0.0163
3550.00,0.0166
3547.00,0.0168
3544.00,0.0171
3541.00,0.0174
3538.00,0.0176
3535.00,0.0178
3532.00,0.0180
3529.00,0.0182
3526.00,0.0184
3523.00,0.0186
3520.00,0.0188
3517.00,0.0190
3514.00,0.0192
3511.00,0.0193
3508.00,0.0194
3505.00,0.0195
3502.00,0.0197
3499.00,0.0199
3496.00,0.0200
3493.00,0.0202
3490.00,0.0204
3487.00,0.0205
3484.00,0.0207
3481.00,0.0209
3478.00,0.0211
3475.00,0.0212
3472.00,0.0214
3469.00,0.0216
3466.00,0.0218
3463.00,0.0220
3460.00,0.0222
3457.00,0.0223
3454.00,0.0225
3451.00,0.0227
3448.00,0.0229
3445.00,0.0231
3442.00,0.0232
3439.00,0.0235
3436.00,0.0237
3433.00,0.0239
3430.00,0.0241
3427.00,0.0243
3424.00,0.0246
3421.00,0.0248
3418.00,0.0250
3415.00,0.0252
3412.00,0.0253
3409.00,0.0255
3406.00,0.0255
3403.00,0.0256
3400.00,0.0256
3397.00,0.0255
3394.00,0.0254
3391.00,0.0252
3388.00,0.0251
3385.00,0.0248
3382.00,0.0246
3379.00,0.0243
3376.00,0.0241
3373.00,0.0238
3370.00,0.0236
3367.00,0.0234
3364.00,0.0232
3361.00,0.0230
3358.00,0.0228
3355.00,0.0226
3352.00,0.0224
3349.00,0.0223
3346.00,0.0222
3343.00,0.0220
3340.00,0.0218
3337.00,0.0218
3334.00,0.0218
3331.00,0.0217
3328.00,0.0217
3325.00,0.0216
3322.00,0.0216
3319.00,0.0217
3316.00,0.0216
3313.00,0.0216
3310.00,0.0214
3307.00,0.0213
3304.00,0.0214
3301.00,0.0217
3298.00,0.0216
3295.00,0.0215
3292.00,0.0215
3289.00,0.0217
3286.00,0.0218
3283.00,0.0218
3280.00,0.0218
3277.00,0.0217
3274.00,0.0217
3271.00,0.0216
3268.00,0.0217
3265.00,0.0218
3262.00,0.0218
3259.00,0.0217
3256.00,0.0217
3253.00,0.0217
3250.00,0.0216
3247.00,0.0215
3244.00,0.0215
3241.00,0.0215
3238.00,0.0214
3235.00,0.0213
3232.00,0.0212
3229.00,0.0211
3226.00,0.0209
3223.00,0.0208
3220.00,0.0206
3217.00,0.0204
3214.00,0.0202
3211.00,0.0200
3208.00,0.0198
3205.00,0.0196
3202.00,0.0193
3199.00,0.0191
3196.00,0.0189
3193.00,0.0187
3190.00,0.0184
3187.00,0.0182
3184.00,0.0180
3181.00,0.0177
3178.00,0.0176
3175.00,0.0174
3172.00,0.0172
3169.00,0.0170
3166.00,0.0167
3163.00,0.0165
3160.00,0.0163
3157.00,0.0161
3154.00,0.0159
3151.00,0.0156
3148.00,0.0155
3145.00,0.0154
3142.00,0.0152
3139.00,0.0150
3136.00,0.0149
3133.00,0.0147
3130.00,0.0146
3127.00,0.0145
3124.00,0.0144
3121.00,0.0143
3118.00,0.0142
3115.00,0.0140
3112.00,0.0140
3109.00,0.0138
3106.00,0.0137
3103.00,0.0136
3100.00,0.0135
3097.00,0.0134
3094.00,0.0133
3091.00,0.0133
3088.00,0.0134
3085.00,0.0133
3082.00,0.0133
3079.00,0.0132
3076.00,0.0132
3073.00,0.0131
3070.00,0.0130
3067.00,0.0130
3064.00,0.0129
3061.00,0.0129
3058.00,0.0129
3055.00,0.0129
3052.00,0.0129
3049.00,0.0128
3046.00,0.0128
3043.00,0.0128
3040.00,0.0128
3037.00,0.0129
3034.00,0.0129
3031.00,0.0130
3028.00,0.0129
3025.00,0.0128
3022.00,0.0127
3019.00,0.0127
3016.00,0.0127
3013.00,0.0128
3010.00,0.0131
3007.00,0.0134
3004.00,0.0139
3001.00,0.0146
2998.00,0.0155
2995.00,0.0165
2992.00,0.0174
2989.00,0.0183
2986.00,0.0193
2983.00,0.0205
2980.00,0.0219
2977.00,0.0228
2974.00,0.0236
2971.00,0.0252
2968.00,0.0263
2965.00,0.0272
2962.00,0.0283
2959.00,0.0288
2956.00,0.0285
2953.00,0.0276
2950.00,0.0269
2947.00,0.0266
2944.00,0.0267
2941.00,0.0272
2938.00,0.0282
2935.00,0.0299
2932.00,0.0322
2929.00,0.0344
2926.00,0.0353
2923.00,0.0348
2920.00,0.0334
2917.00,0.0316
2914.00,0.0299
2911.00,0.0284
2908.00,0.0271
2905.00,0.0261
2902.00,0.0254
2899.00,0.0248
2896.00,0.0244
2893.00,0.0242
2890.00,0.0240
2887.00,0.0237
2884.00,0.0235
2881.00,0.0236
2878.00,0.0239
2875.00,0.0244
2872.00,0.0248
2869.00,0.0246
2866.00,0.0244
2863.00,0.0249
2860.00,0.0262
2857.00,0.0274
2854.00,0.0274
2851.00,0.0263
2848.00,0.0242
2845.00,0.0221
2842.00,0.0204
2839.00,0.0191
2836.00,0.0182
2833.00,0.0176
2830.00,0.0170
2827.00,0.0165
2824.00,0.0159
2821.00,0.0156
2818.00,0.0152
2815.00,0.0150
2812.00,0.0147
2809.00,0.0145
2806.00,0.0144
2803.00,0.0143
2800.00,0.0141
2797.00,0.0140
2794.00,0.0139
2791.00,0.0138
2788.00,0.0137
2785.00,0.0136
2782.00,0.0135
2779.00,0.0135
2776.00,0.0134
2773.00,0.0133
2770.00,0.0132
2767.00,0.0132
2764.00,0.0132
2761.00,0.0131
2758.00,0.0131
2755.00,0.0131
2752.00,0.0131
2749.00,0.0131
2746.00,0.0131
2743.00,0.0131
2740.00,0.0131
2737.00,0.0131
2734.00,0.0131
2731.00,0.0132
2728.00,0.0132
2725.00,0.0131
2722.00,0.0131
2719.00,0.0131
2716.00,0.0130
2713.00,0.0130
2710.00,0.0129
2707.00,0.0129
2704.00,0.0129
2701.00,0.0129
2698.00,0.0128
2695.00,0.0128
2692.00,0.0127
2689.00,0.0127
2686.00,0.0127
2683.00,0.0126
2680.00,0.0126
2677.00,0.0126
2674.00,0.0127
2671.00,0.0127
2668.00,0.0126
2665.00,0.0128
2662.00,0.0129
2659.00,0.0130
2656.00,0.0131
2653.00,0.0130
2650.00,0.0131
2647.00,0.0131
2644.00,0.0131
2641.00,0.0130
2638.00,0.0130
2635.00,0.0129
2632.00,0.0129
2629.00,0.0128
2626.00,0.0128
2623.00,0.0127
2620.00,0.0127
2617.00,0.0126
2614.00,0.0126
2611.00,0.0126
2608.00,0.0126
2605.00,0.0126
2602.00,0.0125
2599.00,0.0126
2596.00,0.0126
2593.00,0.0126
2590.00,0.0125
2587.00,0.0125
2584.00,0.0126
2581.00,0.0126
2578.00,0.0125
2575.00,0.0125
2572.00,0.0125
2569.00,0.0124
2566.00,0.0124
2563.00,0.0125
2560.00,0.0124
2557.00,0.0123
2554.00,0.0122
2551.00,0.0123
2548.00,0.0122
2545.00,0.0121
2542.00,0.0122
2539.00,0.0122
2536.00,0.0122
2533.00,0.0121
2530.00,0.0121
2527.00,0.0121
2524.00,0.0120
2521.00,0.0120
2518.00,0.0120
2515.00,0.0119
2512.00,0.0119
2509.00,0.0119
2506.00,0.0119
2503.00,0.0119
2500.00,0.0118
2497.00,0.0118
2494.00,0.0118
2491.00,0.0118
2488.00,0.0118
2485.00,0.0118
2482.00,0.0118
2479.00,0.0117
2476.00,0.0117
2473.00,0.0117
2470.00,0.0116
2467.00,0.0116
2464.00,0.0116
2461.00,0.0117
2458.00,0.0119
2455.00,0.0118
2452.00,0.0118
2449.00,0.0118
2446.00,0.0118
2443.00,0.0117
2440.00,0.0117
2437.00,0.0117
2434.00,0.0117
2431.00,0.0117
2428.00,0.0117
2425.00,0.0116
2422.00,0.0116
2419.00,0.0116
2416.00,0.0115
2413.00,0.0116
2410.00,0.0117
2407.00,0.0114
2404.00,0.0115
2401.00,0.0115
2398.00,0.0115
2395.00,0.0115
2392.00,0.0115
2389.00,0.0114
2386.00,0.0114
2383.00,0.0112
2380.00,0.0111
2377.00,0.0111
2374.00,0.0111
2371.00,0.0111
2368.00,0.0111
2365.00,0.0111
2362.00,0.0111
2359.00,0.0111
2356.00,0.0113
2353.00,0.0113
2350.00,0.0113
2347.00,0.0112
2344.00,0.0112
2341.00,0.0115
2338.00,0.0116
2335.00,0.0117
2332.00,0.0117
2329.00,0.0119
2326.00,0.0127
2323.00,0.0126
2320.00,0.0123
2317.00,0.0121
2314.00,0.0119
2311.00,0.0116
2308.00,0.0117
2305.00,0.0118
2302.00,0.0119
2299.00,0.0119
2296.00,0.0121
2293.00,0.0124
2290.00,0.0125
2287.00,0.0127
2284.00,0.0126
2281.00,0.0124
2278.00,0.0122
2275.00,0.0122
2272.00,0.0122
2269.00,0.0121
2266.00,0.0118
2263.00,0.0118
2260.00,0.0119
2257.00,0.0118
2254.00,0.0116
2251.00,0.0117
2248.00,0.0118
2245.00,0.0118
2242.00,0.0117
2239.00,0.0116
2236.00,0.0117
2233.00,0.0117
2230.00,0.0117
2227.00,0.0118
2224.00,0.0118
2221.00,0.0117
2218.00,0.0117
2215.00,0.0116
2212.00,0.0116
2209.00,0.0116
2206.00,0.0118
2203.00,0.0118
2200.00,0.0119
2197.00,0.0119
2194.00,0.0121
2191.00,0.0121
2188.00,0.0118
2185.00,0.0117
2182.00,0.0115
2179.00,0.0117
2176.00,0.0116
2173.00,0.0117
2170.00,0.0122
2167.00,0.0126
2164.00,0.0127
2161.00,0.0113
2158.00,0.0088
2155.00,0.0093
2152.00,0.0100
2149.00,0.0101
2146.00,0.0101
2143.00,0.0102
2140.00,0.0102
2137.00,0.0100
2134.00,0.0098
2131.00,0.0103
2128.00,0.0105
2125.00,0.0110
2122.00,0.0112
2119.00,0.0113
2116.00,0.0116
2113.00,0.0115
2110.00,0.0115
2107.00,0.0116
2104.00,0.0116
2101.00,0.0115
2098.00,0.0115
2095.00,0.0111
2092.00,0.0111
2089.00,0.0113
2086.00,0.0115
2083.00,0.0116
2080.00,0.0115
2077.00,0.0114
2074.00,0.0113
2071.00,0.0116
2068.00,0.0116
2065.00,0.0113
2062.00,0.0110
2059.00,0.0112
2056.00,0.0116
2053.00,0.0118
2050.00,0.0121
2047.00,0.0114
2044.00,0.0112
2041.00,0.0112
2038.00,0.0111
2035.00,0.0111
2032.00,0.0107
2029.00,0.0104
2026.00,0.0104
2023.00,0.0105
2020.00,0.0101
2017.00,0.0100
2014.00,0.0103
2011.00,0.0104
2008.00,0.0102
2005.00,0.0096
2002.00,0.0101
1999.00,0.0103
1996.00,0.0104
1993.00,0.0108
1990.00,0.0111
1987.00,0.0110
1984.00,0.0112
1981.00,0.0117
1978.00,0.0104
1975.00,0.0095
1972.00,0.0096
1969.00,0.0096
1966.00,0.0097
1963.00,0.0097
1960.00,0.0094
1957.00,0.0093
1954.00,0.0095
1951.00,0.0097
1948.00,0.0098
1945.00,0.0098
1942.00,0.0100
1939.00,0.0098
1936.00,0.0099
1933.00,0.0098
1930.00,0.0101
1927.00,0.0100
1924.00,0.0100
1921.00,0.0102
1918.00,0.0101
1915.00,0.0101
1912.00,0.0104
1909.00,0.0106
1906.00,0.0104
1903.00,0.0103
1900.00,0.0103
1897.00,0.0102
1894.00,0.0103
1891.00,0.0103
1888.00,0.0102
1885.00,0.0101
1882.00,0.0101
1879.00,0.0101
1876.00,0.0101
1873.00,0.0101
1870.00,0.0101
1867.00,0.0102
1864.00,0.0100
1861.00,0.0100
1858.00,0.0099
1855.00,0.0100
1852.00,0.0100
1849.00,0.0102
1846.00,0.0102
1843.00,0.0101
1840.00,0.0100
1837.00,0.0100
1834.00,0.0099
1831.00,0.0099
1828.00,0.0099
1825.00,0.0099
1822.00,0.0099
1819.00,0.0097
1816.00,0.0096
1813.00,0.0097
1810.00,0.0098
1807.00,0.0098
1804.00,0.0098
1801.00,0.0098
1798.00,0.0098
1795.00,0.0099
1792.00,0.0097
1789.00,0.0097
1786.00,0.0097
1783.00,0.0098
1780.00,0.0098
1777.00,0.0097
1774.00,0.0097
1771.00,0.0096
1768.00,0.0096
1765.00,0.0097
1762.00,0.0098
1759.00,0.0098
1756.00,0.0098
1753.00,0.0097
1750.00,0.0097
1747.00,0.0099
1744.00,0.0100
1741.00,0.0098
1738.00,0.0098
1735.00,0.0097
1732.00,0.0098
1729.00,0.0103
1726.00,0.0104
1723.00,0.0108
1720.00,0.0109
1717.00,0.0111
1714.00,0.0117
1711.00,0.0126
1708.00,0.0136
1705.00,0.0152
1702.00,0.0170
1699.00,0.0208
1696.00,0.0259
1693.00,0.0320
1690.00,0.0391
1687.00,0.0459
1684.00,0.0544
1681.00,0.0624
1678.00,0.0691
1675.00,0.0758
1672.00,0.0818
1669.00,0.0880
1666.00,0.0931
1663.00,0.0979
1660.00,0.1023
1657.00,0.1052
1654.00,0.1063
1651.00,0.1073
1648.00,0.1059
1645.00,0.1018
1642.00,0.0966
1639.00,0.0900
1636.00,0.0821
1633.00,0.0751
1630.00,0.0713
1627.00,0.0703
1624.00,0.0700
1621.00,0.0684
1618.00,0.0634
1615.00,0.0563
1612.00,0.0536
1609.00,0.0509
1606.00,0.0462
1603.00,0.0413
1600.00,0.0373
1597.00,0.0345
1594.00,0.0333
1591.00,0.0340
1588.00,0.0365
1585.00,0.0384
1582.00,0.0380
1579.00,0.0360
1576.00,0.0329
1573.00,0.0306
1570.00,0.0292
1567.00,0.0279
1564.00,0.0263
1561.00,0.0242
1558.00,0.0224
1555.00,0.0219
1552.00,0.0215
1549.00,0.0214
1546.00,0.0208
1543.00,0.0202
1540.00,0.0194
1537.00,0.0191
1534.00,0.0193
1531.00,0.0190
1528.00,0.0188
1525.00,0.0187
1522.00,0.0186
1519.00,0.0187
1516.00,0.0196
1513.00,0.0201
1510.00,0.0208
1507.00,0.0219
1504.00,0.0235
1501.00,0.0271
1498.00,0.0326
1495.00,0.0369
1492.00,0.0356
1489.00,0.0316
1486.00,0.0274
1483.00,0.0245
1480.00,0.0230
1477.00,0.0228
1474.00,0.0244
1471.00,0.0297
1468.00,0.0379
1465.00,0.0471
1462.00,0.0524
1459.00,0.0527
1456.00,0.0470
1453.00,0.0426
1450.00,0.0415
1447.00,0.0445
1444.00,0.0505
1441.00,0.0576
1438.00,0.0626
1435.00,0.0665
1432.00,0.0687
1429.00,0.0715
1426.00,0.0761
1423.00,0.0804
1420.00,0.0785
1417.00,0.0695
1414.00,0.0592
1411.00,0.0509
1408.00,0.0465
1405.00,0.0455
1402.00,0.0458
1399.00,0.0446
1396.00,0.0414
1393.00,0.0374
1390.00,0.0356
1387.00,0.0370
1384.00,0.0377
1381.00,0.0387
1378.00,0.0404
1375.00,0.0402
1372.00,0.0387
1369.00,0.0386
1366.00,0.0400
1363.00,0.0399
1360.00,0.0404
1357.00,0.0375
1354.00,0.0343
1351.00,0.0327
1348.00,0.0322
1345.00,0.0316
1342.00,0.0304
1339.00,0.0293
1336.00,0.0287
1333.00,0.0296
1330.00,0.0312
1327.00,0.0329
1324.00,0.0349
1321.00,0.0372
1318.00,0.0387
1315.00,0.0383
1312.00,0.0365
1309.00,0.0353
1306.00,0.0361
1303.00,0.0399
1300.00,0.0457
1297.00,0.0527
1294.00,0.0637
1291.00,0.0749
1288.00,0.0832
1285.00,0.0870
1282.00,0.0852
1279.00,0.0808
1276.00,0.0790
1273.00,0.0795
1270.00,0.0785
1267.00,0.0743
1264.00,0.0679
1261.00,0.0610
1258.00,0.0548
1255.00,0.0501
1252.00,0.0470
1249.00,0.0456
1246.00,0.0459
1243.00,0.0471
1240.00,0.0483
1237.00,0.0509
1234.00,0.0540
1231.00,0.0546
1228.00,0.0529
1225.00,0.0511
1222.00,0.0501
1219.00,0.0500
1216.00,0.0506
1213.00,0.0499
1210.00,0.0470
1207.00,0.0440
1204.00,0.0426
1201.00,0.0433
1198.00,0.0454
1195.00,0.0478
1192.00,0.0471
1189.00,0.0439
1186.00,0.0405
1183.00,0.0381
1180.00,0.0372
1177.00,0.0372
1174.00,0.0377
1171.00,0.0384
1168.00,0.0387
1165.00,0.0385
1162.00,0.0386
1159.00,0.0407
1156.00,0.0450
1153.00,0.0451
1150.00,0.0393
1147.00,0.0349
1144.00,0.0330
1141.00,0.0321
1138.00,0.0320
1135.00,0.0335
1132.00,0.0386
1129.00,0.0444
1126.00,0.0442
1123.00,0.0403
1120.00,0.0362
1117.00,0.0343
1114.00,0.0339
1111.00,0.0332
1108.00,0.0324
1105.00,0.0330
1102.00,0.0360
1099.00,0.0386
1096.00,0.0363
1093.00,0.0331
1090.00,0.0314
1087.00,0.0306
1084.00,0.0302
1081.00,0.0302
1078.00,0.0306
1075.00,0.0309
1072.00,0.0310
1069.00,0.0314
1066.00,0.0318
1063.00,0.0332
1060.00,0.0369
1057.00,0.0440
1054.00,0.0499
1051.00,0.0513
1048.00,0.0503
1045.00,0.0460
1042.00,0.0405
1039.00,0.0370
1036.00,0.0364
1033.00,0.0375
1030.00,0.0417
1027.00,0.0479
1024.00,0.0471
1021.00,0.0422
1018.00,0.0388
1015.00,0.0362
1012.00,0.0339
1009.00,0.0333
1006.00,0.0355
1003.00,0.0379
1000.00,0.0374
997.00,0.0355
994.00,0.0339
991.00,0.0323
988.00,0.0306
985.00,0.0294
982.00,0.0286
979.00,0.0282
976.00,0.0280
973.00,0.0277
970.00,0.0274
967.00,0.0272
964.00,0.0273
961.00,0.0274
958.00,0.0265
955.00,0.0257
952.00,0.0252
949.00,0.0253
946.00,0.0254
943.00,0.0257
940.00,0.0268
937.00,0.0285
934.00,0.0299
931.00,0.0299
928.00,0.0289
925.00,0.0287
922.00,0.0292
919.00,0.0284
916.00,0.0268
913.00,0.0260
910.00,0.0257
907.00,0.0257
904.00,0.0266
901.00,0.0287
898.00,0.0301
895.00,0.0291
892.00,0.0292
889.00,0.0297
886.00,0.0271
883.00,0.0259
880.00,0.0261
877.00,0.0277
874.00,0.0318
871.00,0.0368
868.00,0.0377
865.00,0.0350
862.00,0.0325
859.00,0.0314
856.00,0.0333
853.00,0.0370
850.00,0.0409
847.00,0.0423
844.00,0.0401
841.00,0.0384
838.00,0.0388
835.00,0.0410
832.00,0.0410
829.00,0.0374
826.00,0.0331
823.00,0.0340
820.00,0.0404
817.00,0.0424
814.00,0.0417
811.00,0.0335
808.00,0.0298
805.00,0.0283
802.00,0.0275
799.00,0.0271
796.00,0.0270
793.00,0.0269
790.00,0.0269
787.00,0.0270
784.00,0.0271
781.00,0.0275
778.00,0.0280
775.00,0.0297
772.00,0.0299
769.00,0.0293
766.00,0.0296
763.00,0.0304
760.00,0.0319
757.00,0.0328
754.00,0.0334
751.00,0.0344
748.00,0.0354
745.00,0.0368
742.00,0.0384
739.00,0.0409
736.00,0.0455
733.00,0.0470
730.00,0.0456
727.00,0.0443
724.00,0.0409
721.00,0.0387
718.00,0.0386
715.00,0.0397
712.00,0.0394
709.00,0.0385
706.00,0.0384
703.00,0.0389
700.00,0.0401
697.00,0.0410
694.00,0.0408
691.00,0.0416
688.00,0.0436
685.00,0.0440
682.00,0.0442
679.00,0.0452
676.00,0.0470
673.00,0.0495
670.00,0.0516
667.00,0.0535
664.00,0.0542
661.00,0.0567
658.00,0.0581
655.00,0.0594
652.00,0.0612
649.00,0.0624
646.00,0.0628
643.00,0.0619
640.00,0.0608
637.00,0.0596
634.00,0.0584
631.00,0.0573
628.00,0.0569
625.00,0.0570
622.00,0.0576
619.00,0.0581
616.00,0.0576
613.00,0.0565
610.00,0.0564
607.00,0.0583
604.00,0.0614
601.00,0.0627
598.00,0.0631
595.00,0.0634
592.00,0.0644
589.00,0.0651
586.00,0.0667
583.00,0.0690
580.00,0.0715
577.00,0.0751
574.00,0.0763
571.00,0.0746
568.00,0.0734
565.00,0.0730
562.00,0.0734
559.00,0.0735
556.00,0.0719
553.00,0.0703
550.00,0.0706
547.00,0.0719
544.00,0.0718
541.00,0.0702
538.00,0.0687
535.00,0.0687
532.00,0.0704
529.00,0.0705
526.00,0.0688
523.00,0.0671
520.00,0.0663
517.00,0.0663
514.00,0.0662
511.00,0.0659
508.00,0.0667
505.00,0.0672
502.00,0.0664
499.00,0.0657
496.00,0.0663
493.00,0.0672
490.00,0.0671
487.00,0.0668
484.00,0.0668
481.00,0.0665
478.00,0.0663
475.00,0.0662
472.00,0.0664
469.00,0.0667
466.00,0.0663
463.00,0.0665
460.00,0.0660
457.00,0.0654
454.00,0.0651
451.00,0.0647
448.00,0.0642
445.00,0.0641
442.00,0.0633
439.00,0.0620
436.00,0.0608
433.00,0.0604
430.00,0.0604
427.00,0.0594
424.00,0.0592
421.00,0.0577
418.00,0.0555
415.00,0.0558
412.00,0.0576
409.00,0.0590
406.00,0.0574
403.00,0.0573
400.00,0.0571