File: FTIR/Olivia/2025_08_01_1CBN_3PVP10kDa_MC_glass_scan3.csv
Created as New Dataset,Sample 1019 By YargerLab Date Friday, August 01 2025
cm-1,A
4000.00,0.0022
3997.00,0.0023
3994.00,0.0023
3991.00,0.0023
3988.00,0.0023
3985.00,0.0023
3982.00,0.0023
3979.00,0.0022
3976.00,0.0022
3973.00,0.0023
3970.00,0.0023
3967.00,0.0023
3964.00,0.0023
3961.00,0.0023
3958.00,0.0023
3955.00,0.0023
3952.00,0.0023
3949.00,0.0023
3946.00,0.0023
3943.00,0.0024
3940.00,0.0023
3937.00,0.0023
3934.00,0.0024
3931.00,0.0024
3928.00,0.0024
3925.00,0.0024
3922.00,0.0023
3919.00,0.0023
3916.00,0.0023
3913.00,0.0023
3910.00,0.0023
3907.00,0.0024
3904.00,0.0026
3901.00,0.0026
3898.00,0.0025
3895.00,0.0024
3892.00,0.0024
3889.00,0.0024
3886.00,0.0025
3883.00,0.0025
3880.00,0.0025
3877.00,0.0024
3874.00,0.0024
3871.00,0.0025
3868.00,0.0026
3865.00,0.0025
3862.00,0.0025
3859.00,0.0025
3856.00,0.0026
3853.00,0.0027
3850.00,0.0028
3847.00,0.0025
3844.00,0.0024
3841.00,0.0025
3838.00,0.0026
3835.00,0.0027
3832.00,0.0025
3829.00,0.0024
3826.00,0.0024
3823.00,0.0025
3820.00,0.0026
3817.00,0.0026
3814.00,0.0026
3811.00,0.0025
3808.00,0.0025
3805.00,0.0025
3802.00,0.0026
3799.00,0.0025
3796.00,0.0024
3793.00,0.0023
3790.00,0.0022
3787.00,0.0023
3784.00,0.0023
3781.00,0.0024
3778.00,0.0024
3775.00,0.0024
3772.00,0.0024
3769.00,0.0024
3766.00,0.0023
3763.00,0.0023
3760.00,0.0025
3757.00,0.0025
3754.00,0.0027
3751.00,0.0028
3748.00,0.0029
3745.00,0.0028
3742.00,0.0028
3739.00,0.0027
3736.00,0.0026
3733.00,0.0026
3730.00,0.0025
3727.00,0.0024
3724.00,0.0024
3721.00,0.0024
3718.00,0.0023
3715.00,0.0024
3712.00,0.0025
3709.00,0.0024
3706.00,0.0023
3703.00,0.0022
3700.00,0.0022
3697.00,0.0023
3694.00,0.0023
3691.00,0.0024
3688.00,0.0024
3685.00,0.0024
3682.00,0.0024
3679.00,0.0026
3676.00,0.0027
3673.00,0.0029
3670.00,0.0029
3667.00,0.0027
3664.00,0.0025
3661.00,0.0025
3658.00,0.0027
3655.00,0.0028
3652.00,0.0030
3649.00,0.0031
3646.00,0.0031
3643.00,0.0029
3640.00,0.0028
3637.00,0.0028
3634.00,0.0029
3631.00,0.0032
3628.00,0.0033
3625.00,0.0033
3622.00,0.0033
3619.00,0.0033
3616.00,0.0034
3613.00,0.0036
3610.00,0.0038
3607.00,0.0038
3604.00,0.0038
3601.00,0.0038
3598.00,0.0038
3595.00,0.0039
3592.00,0.0041
3589.00,0.0043
3586.00,0.0044
3583.00,0.0045
3580.00,0.0045
3577.00,0.0046
3574.00,0.0048
3571.00,0.0050
3568.00,0.0052
3565.00,0.0052
3562.00,0.0054
3559.00,0.0054
3556.00,0.0055
3553.00,0.0056
3550.00,0.0057
3547.00,0.0059
3544.00,0.0060
3541.00,0.0060
3538.00,0.0061
3535.00,0.0062
3532.00,0.0063
3529.00,0.0064
3526.00,0.0065
3523.00,0.0065
3520.00,0.0066
3517.00,0.0066
3514.00,0.0067
3511.00,0.0068
3508.00,0.0068
3505.00,0.0069
3502.00,0.0070
3499.00,0.0071
3496.00,0.0071
3493.00,0.0072
3490.00,0.0072
3487.00,0.0073
3484.00,0.0073
3481.00,0.0074
3478.00,0.0074
3475.00,0.0075
3472.00,0.0075
3469.00,0.0076
3466.00,0.0076
3463.00,0.0076
3460.00,0.0077
3457.00,0.0077
3454.00,0.0078
3451.00,0.0078
3448.00,0.0078
3445.00,0.0078
3442.00,0.0078
3439.00,0.0078
3436.00,0.0079
3433.00,0.0079
3430.00,0.0079
3427.00,0.0079
3424.00,0.0079
3421.00,0.0079
3418.00,0.0078
3415.00,0.0078
3412.00,0.0078
3409.00,0.0078
3406.00,0.0078
3403.00,0.0078
3400.00,0.0077
3397.00,0.0078
3394.00,0.0077
3391.00,0.0077
3388.00,0.0076
3385.00,0.0076
3382.00,0.0075
3379.00,0.0075
3376.00,0.0075
3373.00,0.0074
3370.00,0.0074
3367.00,0.0073
3364.00,0.0073
3361.00,0.0072
3358.00,0.0072
3355.00,0.0072
3352.00,0.0072
3349.00,0.0071
3346.00,0.0071
3343.00,0.0071
3340.00,0.0071
3337.00,0.0070
3334.00,0.0070
3331.00,0.0071
3328.00,0.0070
3325.00,0.0069
3322.00,0.0069
3319.00,0.0069
3316.00,0.0069
3313.00,0.0069
3310.00,0.0068
3307.00,0.0067
3304.00,0.0067
3301.00,0.0068
3298.00,0.0068
3295.00,0.0068
3292.00,0.0068
3289.00,0.0068
3286.00,0.0068
3283.00,0.0067
3280.00,0.0068
3277.00,0.0068
3274.00,0.0067
3271.00,0.0066
3268.00,0.0066
3265.00,0.0066
3262.00,0.0065
3259.00,0.0065
3256.00,0.0065
3253.00,0.0065
3250.00,0.0065
3247.00,0.0065
3244.00,0.0064
3241.00,0.0063
3238.00,0.0063
3235.00,0.0063
3232.00,0.0063
3229.00,0.0062
3226.00,0.0062
3223.00,0.0062
3220.00,0.0061
3217.00,0.0061
3214.00,0.0061
3211.00,0.0061
3208.00,0.0060
3205.00,0.0059
3202.00,0.0059
3199.00,0.0059
3196.00,0.0059
3193.00,0.0058
3190.00,0.0058
3187.00,0.0057
3184.00,0.0057
3181.00,0.0057
3178.00,0.0057
3175.00,0.0056
3172.00,0.0057
3169.00,0.0056
3166.00,0.0056
3163.00,0.0055
3160.00,0.0055
3157.00,0.0054
3154.00,0.0054
3151.00,0.0055
3148.00,0.0055
3145.00,0.0054
3142.00,0.0053
3139.00,0.0053
3136.00,0.0053
3133.00,0.0053
3130.00,0.0053
3127.00,0.0052
3124.00,0.0052
3121.00,0.0052
3118.00,0.0052
3115.00,0.0051
3112.00,0.0051
3109.00,0.0051
3106.00,0.0051
3103.00,0.0050
3100.00,0.0050
3097.00,0.0050
3094.00,0.0049
3091.00,0.0049
3088.00,0.0050
3085.00,0.0050
3082.00,0.0049
3079.00,0.0050
3076.00,0.0050
3073.00,0.0049
3070.00,0.0049
3067.00,0.0049
3064.00,0.0048
3061.00,0.0048
3058.00,0.0048
3055.00,0.0048
3052.00,0.0047
3049.00,0.0047
3046.00,0.0047
3043.00,0.0047
3040.00,0.0047
3037.00,0.0047
3034.00,0.0047
3031.00,0.0046
3028.00,0.0046
3025.00,0.0046
3022.00,0.0046
3019.00,0.0046
3016.00,0.0046
3013.00,0.0047
3010.00,0.0048
3007.00,0.0049
3004.00,0.0050
3001.00,0.0053
2998.00,0.0057
2995.00,0.0061
2992.00,0.0066
2989.00,0.0072
2986.00,0.0077
2983.00,0.0080
2980.00,0.0084
2977.00,0.0088
2974.00,0.0091
2971.00,0.0094
2968.00,0.0097
2965.00,0.0100
2962.00,0.0104
2959.00,0.0107
2956.00,0.0109
2953.00,0.0110
2950.00,0.0110
2947.00,0.0110
2944.00,0.0109
2941.00,0.0108
2938.00,0.0108
2935.00,0.0109
2932.00,0.0111
2929.00,0.0112
2926.00,0.0113
2923.00,0.0113
2920.00,0.0111
2917.00,0.0109
2914.00,0.0105
2911.00,0.0102
2908.00,0.0098
2905.00,0.0095
2902.00,0.0092
2899.00,0.0091
2896.00,0.0091
2893.00,0.0090
2890.00,0.0090
2887.00,0.0091
2884.00,0.0090
2881.00,0.0090
2878.00,0.0091
2875.00,0.0092
2872.00,0.0093
2869.00,0.0093
2866.00,0.0092
2863.00,0.0091
2860.00,0.0090
2857.00,0.0088
2854.00,0.0084
2851.00,0.0080
2848.00,0.0075
2845.00,0.0070
2842.00,0.0066
2839.00,0.0063
2836.00,0.0060
2833.00,0.0058
2830.00,0.0055
2827.00,0.0053
2824.00,0.0051
2821.00,0.0049
2818.00,0.0047
2815.00,0.0046
2812.00,0.0045
2809.00,0.0044
2806.00,0.0043
2803.00,0.0043
2800.00,0.0043
2797.00,0.0042
2794.00,0.0041
2791.00,0.0041
2788.00,0.0040
2785.00,0.0040
2782.00,0.0040
2779.00,0.0039
2776.00,0.0039
2773.00,0.0038
2770.00,0.0038
2767.00,0.0038
2764.00,0.0038
2761.00,0.0038
2758.00,0.0038
2755.00,0.0038
2752.00,0.0038
2749.00,0.0038
2746.00,0.0038
2743.00,0.0038
2740.00,0.0038
2737.00,0.0038
2734.00,0.0038
2731.00,0.0038
2728.00,0.0038
2725.00,0.0038
2722.00,0.0037
2719.00,0.0038
2716.00,0.0037
2713.00,0.0037
2710.00,0.0037
2707.00,0.0037
2704.00,0.0036
2701.00,0.0036
2698.00,0.0036
2695.00,0.0036
2692.00,0.0036
2689.00,0.0036
2686.00,0.0035
2683.00,0.0035
2680.00,0.0035
2677.00,0.0035
2674.00,0.0035
2671.00,0.0035
2668.00,0.0035
2665.00,0.0036
2662.00,0.0037
2659.00,0.0038
2656.00,0.0038
2653.00,0.0038
2650.00,0.0038
2647.00,0.0038
2644.00,0.0038
2641.00,0.0038
2638.00,0.0037
2635.00,0.0037
2632.00,0.0036
2629.00,0.0036
2626.00,0.0036
2623.00,0.0036
2620.00,0.0036
2617.00,0.0035
2614.00,0.0036
2611.00,0.0036
2608.00,0.0035
2605.00,0.0034
2602.00,0.0034
2599.00,0.0034
2596.00,0.0033
2593.00,0.0033
2590.00,0.0034
2587.00,0.0033
2584.00,0.0033
2581.00,0.0032
2578.00,0.0032
2575.00,0.0032
2572.00,0.0032
2569.00,0.0032
2566.00,0.0032
2563.00,0.0031
2560.00,0.0032
2557.00,0.0032
2554.00,0.0031
2551.00,0.0030
2548.00,0.0031
2545.00,0.0031
2542.00,0.0030
2539.00,0.0029
2536.00,0.0029
2533.00,0.0029
2530.00,0.0029
2527.00,0.0028
2524.00,0.0028
2521.00,0.0028
2518.00,0.0028
2515.00,0.0028
2512.00,0.0027
2509.00,0.0028
2506.00,0.0027
2503.00,0.0027
2500.00,0.0026
2497.00,0.0027
2494.00,0.0026
2491.00,0.0026
2488.00,0.0027
2485.00,0.0026
2482.00,0.0027
2479.00,0.0027
2476.00,0.0027
2473.00,0.0026
2470.00,0.0027
2467.00,0.0027
2464.00,0.0027
2461.00,0.0027
2458.00,0.0027
2455.00,0.0028
2452.00,0.0028
2449.00,0.0027
2446.00,0.0026
2443.00,0.0025
2440.00,0.0026
2437.00,0.0026
2434.00,0.0026
2431.00,0.0026
2428.00,0.0025
2425.00,0.0026
2422.00,0.0025
2419.00,0.0025
2416.00,0.0025
2413.00,0.0025
2410.00,0.0025
2407.00,0.0025
2404.00,0.0024
2401.00,0.0024
2398.00,0.0024
2395.00,0.0024
2392.00,0.0024
2389.00,0.0024
2386.00,0.0023
2383.00,0.0020
2380.00,0.0017
2377.00,0.0016
2374.00,0.0015
2371.00,0.0014
2368.00,0.0014
2365.00,0.0014
2362.00,0.0016
2359.00,0.0015
2356.00,0.0015
2353.00,0.0016
2350.00,0.0016
2347.00,0.0017
2344.00,0.0018
2341.00,0.0018
2338.00,0.0019
2335.00,0.0020
2332.00,0.0020
2329.00,0.0021
2326.00,0.0030
2323.00,0.0029
2320.00,0.0026
2317.00,0.0024
2314.00,0.0024
2311.00,0.0023
2308.00,0.0022
2305.00,0.0024
2302.00,0.0025
2299.00,0.0026
2296.00,0.0028
2293.00,0.0031
2290.00,0.0034
2287.00,0.0035
2284.00,0.0034
2281.00,0.0032
2278.00,0.0031
2275.00,0.0031
2272.00,0.0031
2269.00,0.0030
2266.00,0.0028
2263.00,0.0028
2260.00,0.0029
2257.00,0.0029
2254.00,0.0028
2251.00,0.0027
2248.00,0.0027
2245.00,0.0027
2242.00,0.0028
2239.00,0.0030
2236.00,0.0032
2233.00,0.0031
2230.00,0.0029
2227.00,0.0028
2224.00,0.0028
2221.00,0.0028
2218.00,0.0028
2215.00,0.0028
2212.00,0.0027
2209.00,0.0026
2206.00,0.0028
2203.00,0.0026
2200.00,0.0025
2197.00,0.0025
2194.00,0.0028
2191.00,0.0032
2188.00,0.0031
2185.00,0.0030
2182.00,0.0025
2179.00,0.0029
2176.00,0.0025
2173.00,0.0025
2170.00,0.0031
2167.00,0.0037
2164.00,0.0037
2161.00,0.0025
2158.00,0.0001
2155.00,0.0008
2152.00,0.0013
2149.00,0.0014
2146.00,0.0013
2143.00,0.0013
2140.00,0.0014
2137.00,0.0010
2134.00,0.0008
2131.00,0.0012
2128.00,0.0014
2125.00,0.0018
2122.00,0.0022
2119.00,0.0022
2116.00,0.0024
2113.00,0.0026
2110.00,0.0024
2107.00,0.0024
2104.00,0.0026
2101.00,0.0026
2098.00,0.0024
2095.00,0.0022
2092.00,0.0023
2089.00,0.0025
2086.00,0.0025
2083.00,0.0027
2080.00,0.0027
2077.00,0.0026
2074.00,0.0025
2071.00,0.0025
2068.00,0.0024
2065.00,0.0022
2062.00,0.0022
2059.00,0.0025
2056.00,0.0027
2053.00,0.0031
2050.00,0.0034
2047.00,0.0027
2044.00,0.0027
2041.00,0.0028
2038.00,0.0028
2035.00,0.0024
2032.00,0.0018
2029.00,0.0023
2026.00,0.0022
2023.00,0.0019
2020.00,0.0017
2017.00,0.0021
2014.00,0.0023
2011.00,0.0023
2008.00,0.0017
2005.00,0.0014
2002.00,0.0017
1999.00,0.0020
1996.00,0.0022
1993.00,0.0020
1990.00,0.0021
1987.00,0.0025
1984.00,0.0028
1981.00,0.0033
1978.00,0.0023
1975.00,0.0013
1972.00,0.0010
1969.00,0.0012
1966.00,0.0015
1963.00,0.0019
1960.00,0.0012
1957.00,0.0012
1954.00,0.0014
1951.00,0.0016
1948.00,0.0017
1945.00,0.0016
1942.00,0.0016
1939.00,0.0017
1936.00,0.0017
1933.00,0.0016
1930.00,0.0016
1927.00,0.0016
1924.00,0.0017
1921.00,0.0018
1918.00,0.0018
1915.00,0.0018
1912.00,0.0019
1909.00,0.0021
1906.00,0.0019
1903.00,0.0019
1900.00,0.0019
1897.00,0.0019
1894.00,0.0019
1891.00,0.0019
1888.00,0.0020
1885.00,0.0018
1882.00,0.0018
1879.00,0.0020
1876.00,0.0019
1873.00,0.0019
1870.00,0.0019
1867.00,0.0019
1864.00,0.0019
1861.00,0.0020
1858.00,0.0020
1855.00,0.0019
1852.00,0.0019
1849.00,0.0019
1846.00,0.0020
1843.00,0.0019
1840.00,0.0019
1837.00,0.0019
1834.00,0.0019
1831.00,0.0020
1828.00,0.0021
1825.00,0.0020
1822.00,0.0020
1819.00,0.0018
1816.00,0.0017
1813.00,0.0019
1810.00,0.0020
1807.00,0.0020
1804.00,0.0020
1801.00,0.0020
1798.00,0.0021
1795.00,0.0021
1792.00,0.0021
1789.00,0.0020
1786.00,0.0021
1783.00,0.0021
1780.00,0.0021
1777.00,0.0021
1774.00,0.0022
1771.00,0.0023
1768.00,0.0021
1765.00,0.0022
1762.00,0.0022
1759.00,0.0022
1756.00,0.0022
1753.00,0.0022
1750.00,0.0022
1747.00,0.0022
1744.00,0.0022
1741.00,0.0022
1738.00,0.0023
1735.00,0.0024
1732.00,0.0024
1729.00,0.0025
1726.00,0.0027
1723.00,0.0029
1720.00,0.0033
1717.00,0.0036
1714.00,0.0039
1711.00,0.0044
1708.00,0.0052
1705.00,0.0065
1702.00,0.0083
1699.00,0.0109
1696.00,0.0144
1693.00,0.0186
1690.00,0.0235
1687.00,0.0286
1684.00,0.0329
1681.00,0.0359
1678.00,0.0399
1675.00,0.0423
1672.00,0.0445
1669.00,0.0457
1666.00,0.0473
1663.00,0.0495
1660.00,0.0499
1657.00,0.0521
1654.00,0.0538
1651.00,0.0476
1648.00,0.0490
1645.00,0.0431
1642.00,0.0405
1639.00,0.0377
1636.00,0.0332
1633.00,0.0275
1630.00,0.0256
1627.00,0.0234
1624.00,0.0227
1621.00,0.0226
1618.00,0.0232
1615.00,0.0209
1612.00,0.0197
1609.00,0.0185
1606.00,0.0165
1603.00,0.0142
1600.00,0.0122
1597.00,0.0111
1594.00,0.0108
1591.00,0.0117
1588.00,0.0133
1585.00,0.0141
1582.00,0.0133
1579.00,0.0119
1576.00,0.0104
1573.00,0.0094
1570.00,0.0089
1567.00,0.0081
1564.00,0.0078
1561.00,0.0076
1558.00,0.0070
1555.00,0.0066
1552.00,0.0065
1549.00,0.0064
1546.00,0.0063
1543.00,0.0063
1540.00,0.0063
1537.00,0.0059
1534.00,0.0059
1531.00,0.0059
1528.00,0.0060
1525.00,0.0062
1522.00,0.0064
1519.00,0.0066
1516.00,0.0069
1513.00,0.0070
1510.00,0.0074
1507.00,0.0080
1504.00,0.0086
1501.00,0.0103
1498.00,0.0126
1495.00,0.0140
1492.00,0.0143
1489.00,0.0126
1486.00,0.0105
1483.00,0.0091
1480.00,0.0084
1477.00,0.0084
1474.00,0.0094
1471.00,0.0115
1468.00,0.0149
1465.00,0.0191
1462.00,0.0223
1459.00,0.0239
1456.00,0.0200
1453.00,0.0178
1450.00,0.0175
1447.00,0.0187
1444.00,0.0213
1441.00,0.0244
1438.00,0.0272
1435.00,0.0280
1432.00,0.0295
1429.00,0.0304
1426.00,0.0325
1423.00,0.0347
1420.00,0.0347
1417.00,0.0288
1414.00,0.0243
1411.00,0.0206
1408.00,0.0187
1405.00,0.0181
1402.00,0.0177
1399.00,0.0167
1396.00,0.0147
1393.00,0.0126
1390.00,0.0119
1387.00,0.0119
1384.00,0.0128
1381.00,0.0140
1378.00,0.0149
1375.00,0.0151
1372.00,0.0147
1369.00,0.0144
1366.00,0.0141
1363.00,0.0141
1360.00,0.0137
1357.00,0.0126
1354.00,0.0111
1351.00,0.0101
1348.00,0.0097
1345.00,0.0095
1342.00,0.0095
1339.00,0.0097
1336.00,0.0100
1333.00,0.0104
1330.00,0.0110
1327.00,0.0119
1324.00,0.0131
1321.00,0.0144
1318.00,0.0153
1315.00,0.0153
1312.00,0.0146
1309.00,0.0141
1306.00,0.0141
1303.00,0.0150
1300.00,0.0172
1297.00,0.0214
1294.00,0.0274
1291.00,0.0335
1288.00,0.0377
1285.00,0.0389
1282.00,0.0373
1279.00,0.0351
1276.00,0.0343
1273.00,0.0346
1270.00,0.0339
1267.00,0.0315
1264.00,0.0279
1261.00,0.0241
1258.00,0.0208
1255.00,0.0183
1252.00,0.0167
1249.00,0.0159
1246.00,0.0161
1243.00,0.0169
1240.00,0.0178
1237.00,0.0185
1234.00,0.0191
1231.00,0.0194
1228.00,0.0194
1225.00,0.0193
1222.00,0.0194
1219.00,0.0194
1216.00,0.0189
1213.00,0.0177
1210.00,0.0162
1207.00,0.0150
1204.00,0.0145
1201.00,0.0146
1198.00,0.0153
1195.00,0.0160
1192.00,0.0158
1189.00,0.0146
1186.00,0.0132
1183.00,0.0124
1180.00,0.0121
1177.00,0.0122
1174.00,0.0125
1171.00,0.0130
1168.00,0.0132
1165.00,0.0133
1162.00,0.0137
1159.00,0.0146
1156.00,0.0150
1153.00,0.0143
1150.00,0.0128
1147.00,0.0113
1144.00,0.0102
1141.00,0.0097
1138.00,0.0097
1135.00,0.0107
1132.00,0.0126
1129.00,0.0138
1126.00,0.0125
1123.00,0.0106
1120.00,0.0097
1117.00,0.0093
1114.00,0.0093
1111.00,0.0095
1108.00,0.0096
1105.00,0.0101
1102.00,0.0108
1099.00,0.0110
1096.00,0.0105
1093.00,0.0098
1090.00,0.0094
1087.00,0.0091
1084.00,0.0091
1081.00,0.0092
1078.00,0.0096
1075.00,0.0102
1072.00,0.0108
1069.00,0.0117
1066.00,0.0135
1063.00,0.0161
1060.00,0.0186
1057.00,0.0194
1054.00,0.0177
1051.00,0.0147
1048.00,0.0126
1045.00,0.0115
1042.00,0.0114
1039.00,0.0113
1036.00,0.0115
1033.00,0.0120
1030.00,0.0123
1027.00,0.0120
1024.00,0.0114
1021.00,0.0113
1018.00,0.0114
1015.00,0.0109
1012.00,0.0102
1009.00,0.0099
1006.00,0.0104
1003.00,0.0111
1000.00,0.0109
997.00,0.0102
994.00,0.0096
991.00,0.0092
988.00,0.0086
985.00,0.0082
982.00,0.0080
979.00,0.0079
976.00,0.0079
973.00,0.0077
970.00,0.0074
967.00,0.0072
964.00,0.0071
961.00,0.0070
958.00,0.0068
955.00,0.0067
952.00,0.0066
949.00,0.0067
946.00,0.0068
943.00,0.0071
940.00,0.0076
937.00,0.0085
934.00,0.0093
931.00,0.0094
928.00,0.0092
925.00,0.0090
922.00,0.0087
919.00,0.0084
916.00,0.0082
913.00,0.0080
910.00,0.0080
907.00,0.0082
904.00,0.0086
901.00,0.0092
898.00,0.0097
895.00,0.0096
892.00,0.0092
889.00,0.0088
886.00,0.0085
883.00,0.0084
880.00,0.0089
877.00,0.0096
874.00,0.0103
871.00,0.0109
868.00,0.0110
865.00,0.0111
862.00,0.0113
859.00,0.0116
856.00,0.0121
853.00,0.0128
850.00,0.0134
847.00,0.0140
844.00,0.0142
841.00,0.0141
838.00,0.0138
835.00,0.0137
832.00,0.0136
829.00,0.0136
826.00,0.0133
823.00,0.0131
820.00,0.0130
817.00,0.0130
814.00,0.0126
811.00,0.0119
808.00,0.0107
805.00,0.0095
802.00,0.0089
799.00,0.0086
796.00,0.0087
793.00,0.0087
790.00,0.0088
787.00,0.0088
784.00,0.0089
781.00,0.0091
778.00,0.0094
775.00,0.0095
772.00,0.0093
769.00,0.0096
766.00,0.0098
763.00,0.0100
760.00,0.0105
757.00,0.0111
754.00,0.0117
751.00,0.0122
748.00,0.0128
745.00,0.0135
742.00,0.0142
739.00,0.0153
736.00,0.0159
733.00,0.0154
730.00,0.0145
727.00,0.0136
724.00,0.0128
721.00,0.0121
718.00,0.0118
715.00,0.0118
712.00,0.0117
709.00,0.0117
706.00,0.0116
703.00,0.0115
700.00,0.0117
697.00,0.0121
694.00,0.0126
691.00,0.0133
688.00,0.0137
685.00,0.0138
682.00,0.0139
679.00,0.0141
676.00,0.0145
673.00,0.0150
670.00,0.0157
667.00,0.0168
664.00,0.0173
661.00,0.0183
658.00,0.0195
655.00,0.0206
652.00,0.0214
649.00,0.0217
646.00,0.0217
643.00,0.0210
640.00,0.0201
637.00,0.0193
634.00,0.0186
631.00,0.0180
628.00,0.0178
625.00,0.0176
622.00,0.0176
619.00,0.0173
616.00,0.0172
613.00,0.0173
610.00,0.0174
607.00,0.0175
604.00,0.0180
601.00,0.0180
598.00,0.0183
595.00,0.0184
592.00,0.0185
589.00,0.0193
586.00,0.0207
583.00,0.0221
580.00,0.0230
577.00,0.0233
574.00,0.0234
571.00,0.0233
568.00,0.0231
565.00,0.0229
562.00,0.0224
559.00,0.0216
556.00,0.0210
553.00,0.0209
550.00,0.0202
547.00,0.0197
544.00,0.0195
541.00,0.0195
538.00,0.0195
535.00,0.0198
532.00,0.0200
529.00,0.0202
526.00,0.0196
523.00,0.0190
520.00,0.0191
517.00,0.0194
514.00,0.0192
511.00,0.0189
508.00,0.0192
505.00,0.0196
502.00,0.0197
499.00,0.0191
496.00,0.0189
493.00,0.0195
490.00,0.0197
487.00,0.0195
484.00,0.0197
481.00,0.0199
478.00,0.0201
475.00,0.0202
472.00,0.0203
469.00,0.0200
466.00,0.0192
463.00,0.0193
460.00,0.0195
457.00,0.0195
454.00,0.0199
451.00,0.0185
448.00,0.0186
445.00,0.0181
442.00,0.0177
439.00,0.0170
436.00,0.0162
433.00,0.0169
430.00,0.0166
427.00,0.0161
424.00,0.0164
421.00,0.0172
418.00,0.0178
415.00,0.0158
412.00,0.0164
409.00,0.0174
406.00,0.0156
403.00,0.0163
400.00,0.0180