File: FTIR/Olivia/2025_07_30_Polystyrene_Std_scan3.csv
Created as New Dataset,Sample 959 By YargerLab Date Wednesday, July 30 2025
cm-1,A
4000.00,0.0011
3997.00,0.0011
3994.00,0.0011
3991.00,0.0010
3988.00,0.0010
3985.00,0.0010
3982.00,0.0011
3979.00,0.0011
3976.00,0.0011
3973.00,0.0011
3970.00,0.0011
3967.00,0.0011
3964.00,0.0010
3961.00,0.0010
3958.00,0.0011
3955.00,0.0010
3952.00,0.0011
3949.00,0.0010
3946.00,0.0010
3943.00,0.0010
3940.00,0.0010
3937.00,0.0010
3934.00,0.0010
3931.00,0.0010
3928.00,0.0009
3925.00,0.0010
3922.00,0.0010
3919.00,0.0010
3916.00,0.0010
3913.00,0.0010
3910.00,0.0011
3907.00,0.0010
3904.00,0.0009
3901.00,0.0008
3898.00,0.0008
3895.00,0.0009
3892.00,0.0010
3889.00,0.0009
3886.00,0.0009
3883.00,0.0008
3880.00,0.0009
3877.00,0.0009
3874.00,0.0009
3871.00,0.0008
3868.00,0.0009
3865.00,0.0008
3862.00,0.0008
3859.00,0.0009
3856.00,0.0009
3853.00,0.0007
3850.00,0.0007
3847.00,0.0009
3844.00,0.0010
3841.00,0.0009
3838.00,0.0008
3835.00,0.0007
3832.00,0.0008
3829.00,0.0009
3826.00,0.0010
3823.00,0.0009
3820.00,0.0008
3817.00,0.0008
3814.00,0.0009
3811.00,0.0009
3808.00,0.0009
3805.00,0.0009
3802.00,0.0008
3799.00,0.0007
3796.00,0.0009
3793.00,0.0010
3790.00,0.0011
3787.00,0.0011
3784.00,0.0010
3781.00,0.0009
3778.00,0.0010
3775.00,0.0010
3772.00,0.0009
3769.00,0.0009
3766.00,0.0009
3763.00,0.0009
3760.00,0.0009
3757.00,0.0009
3754.00,0.0009
3751.00,0.0009
3748.00,0.0007
3745.00,0.0007
3742.00,0.0007
3739.00,0.0007
3736.00,0.0007
3733.00,0.0006
3730.00,0.0008
3727.00,0.0008
3724.00,0.0008
3721.00,0.0008
3718.00,0.0009
3715.00,0.0009
3712.00,0.0008
3709.00,0.0007
3706.00,0.0008
3703.00,0.0008
3700.00,0.0008
3697.00,0.0008
3694.00,0.0008
3691.00,0.0007
3688.00,0.0007
3685.00,0.0008
3682.00,0.0008
3679.00,0.0007
3676.00,0.0006
3673.00,0.0006
3670.00,0.0007
3667.00,0.0008
3664.00,0.0008
3661.00,0.0009
3658.00,0.0009
3655.00,0.0009
3652.00,0.0007
3649.00,0.0007
3646.00,0.0007
3643.00,0.0008
3640.00,0.0010
3637.00,0.0010
3634.00,0.0010
3631.00,0.0008
3628.00,0.0007
3625.00,0.0007
3622.00,0.0008
3619.00,0.0008
3616.00,0.0008
3613.00,0.0009
3610.00,0.0008
3607.00,0.0009
3604.00,0.0010
3601.00,0.0011
3598.00,0.0011
3595.00,0.0011
3592.00,0.0011
3589.00,0.0010
3586.00,0.0010
3583.00,0.0011
3580.00,0.0012
3577.00,0.0012
3574.00,0.0012
3571.00,0.0012
3568.00,0.0011
3565.00,0.0011
3562.00,0.0012
3559.00,0.0014
3556.00,0.0014
3553.00,0.0014
3550.00,0.0014
3547.00,0.0014
3544.00,0.0014
3541.00,0.0014
3538.00,0.0015
3535.00,0.0016
3532.00,0.0016
3529.00,0.0016
3526.00,0.0016
3523.00,0.0016
3520.00,0.0016
3517.00,0.0016
3514.00,0.0017
3511.00,0.0017
3508.00,0.0018
3505.00,0.0018
3502.00,0.0018
3499.00,0.0018
3496.00,0.0018
3493.00,0.0019
3490.00,0.0019
3487.00,0.0019
3484.00,0.0019
3481.00,0.0020
3478.00,0.0020
3475.00,0.0020
3472.00,0.0020
3469.00,0.0021
3466.00,0.0021
3463.00,0.0021
3460.00,0.0021
3457.00,0.0021
3454.00,0.0021
3451.00,0.0022
3448.00,0.0022
3445.00,0.0023
3442.00,0.0023
3439.00,0.0023
3436.00,0.0023
3433.00,0.0023
3430.00,0.0024
3427.00,0.0024
3424.00,0.0024
3421.00,0.0024
3418.00,0.0025
3415.00,0.0026
3412.00,0.0026
3409.00,0.0026
3406.00,0.0026
3403.00,0.0026
3400.00,0.0026
3397.00,0.0026
3394.00,0.0026
3391.00,0.0026
3388.00,0.0027
3385.00,0.0027
3382.00,0.0027
3379.00,0.0027
3376.00,0.0027
3373.00,0.0027
3370.00,0.0027
3367.00,0.0028
3364.00,0.0028
3361.00,0.0028
3358.00,0.0028
3355.00,0.0029
3352.00,0.0029
3349.00,0.0029
3346.00,0.0030
3343.00,0.0030
3340.00,0.0030
3337.00,0.0030
3334.00,0.0030
3331.00,0.0030
3328.00,0.0030
3325.00,0.0030
3322.00,0.0029
3319.00,0.0029
3316.00,0.0029
3313.00,0.0029
3310.00,0.0029
3307.00,0.0028
3304.00,0.0029
3301.00,0.0029
3298.00,0.0029
3295.00,0.0029
3292.00,0.0029
3289.00,0.0029
3286.00,0.0029
3283.00,0.0029
3280.00,0.0029
3277.00,0.0028
3274.00,0.0028
3271.00,0.0028
3268.00,0.0027
3265.00,0.0027
3262.00,0.0027
3259.00,0.0026
3256.00,0.0026
3253.00,0.0026
3250.00,0.0026
3247.00,0.0025
3244.00,0.0025
3241.00,0.0025
3238.00,0.0025
3235.00,0.0024
3232.00,0.0023
3229.00,0.0023
3226.00,0.0023
3223.00,0.0023
3220.00,0.0023
3217.00,0.0023
3214.00,0.0022
3211.00,0.0023
3208.00,0.0022
3205.00,0.0022
3202.00,0.0022
3199.00,0.0022
3196.00,0.0022
3193.00,0.0021
3190.00,0.0021
3187.00,0.0020
3184.00,0.0020
3181.00,0.0019
3178.00,0.0019
3175.00,0.0020
3172.00,0.0020
3169.00,0.0019
3166.00,0.0019
3163.00,0.0019
3160.00,0.0019
3157.00,0.0018
3154.00,0.0019
3151.00,0.0019
3148.00,0.0019
3145.00,0.0018
3142.00,0.0018
3139.00,0.0018
3136.00,0.0017
3133.00,0.0018
3130.00,0.0017
3127.00,0.0017
3124.00,0.0017
3121.00,0.0017
3118.00,0.0018
3115.00,0.0018
3112.00,0.0020
3109.00,0.0021
3106.00,0.0023
3103.00,0.0024
3100.00,0.0023
3097.00,0.0023
3094.00,0.0023
3091.00,0.0025
3088.00,0.0030
3085.00,0.0037
3082.00,0.0041
3079.00,0.0039
3076.00,0.0035
3073.00,0.0033
3070.00,0.0034
3067.00,0.0038
3064.00,0.0045
3061.00,0.0051
3058.00,0.0051
3055.00,0.0045
3052.00,0.0039
3049.00,0.0034
3046.00,0.0031
3043.00,0.0031
3040.00,0.0034
3037.00,0.0040
3034.00,0.0049
3031.00,0.0064
3028.00,0.0081
3025.00,0.0090
3022.00,0.0081
3019.00,0.0061
3016.00,0.0044
3013.00,0.0034
3010.00,0.0031
3007.00,0.0030
3004.00,0.0031
3001.00,0.0032
2998.00,0.0031
2995.00,0.0027
2992.00,0.0025
2989.00,0.0024
2986.00,0.0024
2983.00,0.0025
2980.00,0.0025
2977.00,0.0026
2974.00,0.0028
2971.00,0.0029
2968.00,0.0030
2965.00,0.0032
2962.00,0.0034
2959.00,0.0036
2956.00,0.0039
2953.00,0.0042
2950.00,0.0046
2947.00,0.0050
2944.00,0.0056
2941.00,0.0063
2938.00,0.0072
2935.00,0.0083
2932.00,0.0094
2929.00,0.0105
2926.00,0.0114
2923.00,0.0118
2920.00,0.0118
2917.00,0.0115
2914.00,0.0109
2911.00,0.0102
2908.00,0.0094
2905.00,0.0086
2902.00,0.0078
2899.00,0.0071
2896.00,0.0064
2893.00,0.0059
2890.00,0.0055
2887.00,0.0052
2884.00,0.0049
2881.00,0.0047
2878.00,0.0045
2875.00,0.0043
2872.00,0.0042
2869.00,0.0041
2866.00,0.0042
2863.00,0.0044
2860.00,0.0048
2857.00,0.0052
2854.00,0.0057
2851.00,0.0059
2848.00,0.0058
2845.00,0.0054
2842.00,0.0047
2839.00,0.0038
2836.00,0.0031
2833.00,0.0026
2830.00,0.0024
2827.00,0.0022
2824.00,0.0021
2821.00,0.0020
2818.00,0.0019
2815.00,0.0019
2812.00,0.0019
2809.00,0.0019
2806.00,0.0018
2803.00,0.0017
2800.00,0.0017
2797.00,0.0017
2794.00,0.0017
2791.00,0.0017
2788.00,0.0017
2785.00,0.0016
2782.00,0.0016
2779.00,0.0016
2776.00,0.0016
2773.00,0.0016
2770.00,0.0015
2767.00,0.0015
2764.00,0.0015
2761.00,0.0015
2758.00,0.0015
2755.00,0.0015
2752.00,0.0015
2749.00,0.0015
2746.00,0.0015
2743.00,0.0015
2740.00,0.0015
2737.00,0.0014
2734.00,0.0015
2731.00,0.0015
2728.00,0.0015
2725.00,0.0015
2722.00,0.0015
2719.00,0.0014
2716.00,0.0015
2713.00,0.0015
2710.00,0.0014
2707.00,0.0014
2704.00,0.0014
2701.00,0.0014
2698.00,0.0014
2695.00,0.0014
2692.00,0.0014
2689.00,0.0014
2686.00,0.0014
2683.00,0.0014
2680.00,0.0014
2677.00,0.0014
2674.00,0.0014
2671.00,0.0014
2668.00,0.0014
2665.00,0.0015
2662.00,0.0016
2659.00,0.0017
2656.00,0.0018
2653.00,0.0018
2650.00,0.0019
2647.00,0.0019
2644.00,0.0018
2641.00,0.0018
2638.00,0.0018
2635.00,0.0018
2632.00,0.0018
2629.00,0.0018
2626.00,0.0017
2623.00,0.0017
2620.00,0.0016
2617.00,0.0016
2614.00,0.0016
2611.00,0.0016
2608.00,0.0016
2605.00,0.0016
2602.00,0.0015
2599.00,0.0016
2596.00,0.0016
2593.00,0.0015
2590.00,0.0014
2587.00,0.0014
2584.00,0.0013
2581.00,0.0014
2578.00,0.0014
2575.00,0.0013
2572.00,0.0012
2569.00,0.0013
2566.00,0.0013
2563.00,0.0012
2560.00,0.0012
2557.00,0.0012
2554.00,0.0012
2551.00,0.0012
2548.00,0.0012
2545.00,0.0012
2542.00,0.0012
2539.00,0.0011
2536.00,0.0011
2533.00,0.0011
2530.00,0.0011
2527.00,0.0011
2524.00,0.0011
2521.00,0.0010
2518.00,0.0010
2515.00,0.0010
2512.00,0.0010
2509.00,0.0010
2506.00,0.0011
2503.00,0.0010
2500.00,0.0010
2497.00,0.0010
2494.00,0.0010
2491.00,0.0010
2488.00,0.0010
2485.00,0.0010
2482.00,0.0010
2479.00,0.0010
2476.00,0.0009
2473.00,0.0009
2470.00,0.0010
2467.00,0.0009
2464.00,0.0009
2461.00,0.0010
2458.00,0.0010
2455.00,0.0010
2452.00,0.0011
2449.00,0.0010
2446.00,0.0010
2443.00,0.0010
2440.00,0.0009
2437.00,0.0010
2434.00,0.0009
2431.00,0.0008
2428.00,0.0008
2425.00,0.0008
2422.00,0.0007
2419.00,0.0008
2416.00,0.0007
2413.00,0.0007
2410.00,0.0008
2407.00,0.0007
2404.00,0.0006
2401.00,0.0007
2398.00,0.0007
2395.00,0.0006
2392.00,0.0006
2389.00,0.0006
2386.00,0.0006
2383.00,0.0004
2380.00,0.0003
2377.00,0.0004
2374.00,0.0004
2371.00,0.0004
2368.00,0.0004
2365.00,0.0004
2362.00,0.0005
2359.00,0.0006
2356.00,0.0007
2353.00,0.0005
2350.00,0.0005
2347.00,0.0008
2344.00,0.0008
2341.00,0.0009
2338.00,0.0010
2335.00,0.0010
2332.00,0.0009
2329.00,0.0011
2326.00,0.0020
2323.00,0.0020
2320.00,0.0016
2317.00,0.0015
2314.00,0.0014
2311.00,0.0013
2308.00,0.0012
2305.00,0.0012
2302.00,0.0012
2299.00,0.0012
2296.00,0.0014
2293.00,0.0016
2290.00,0.0018
2287.00,0.0019
2284.00,0.0017
2281.00,0.0016
2278.00,0.0015
2275.00,0.0014
2272.00,0.0013
2269.00,0.0012
2266.00,0.0010
2263.00,0.0012
2260.00,0.0012
2257.00,0.0010
2254.00,0.0009
2251.00,0.0010
2248.00,0.0011
2245.00,0.0011
2242.00,0.0012
2239.00,0.0010
2236.00,0.0009
2233.00,0.0011
2230.00,0.0010
2227.00,0.0009
2224.00,0.0011
2221.00,0.0009
2218.00,0.0010
2215.00,0.0010
2212.00,0.0009
2209.00,0.0010
2206.00,0.0010
2203.00,0.0008
2200.00,0.0008
2197.00,0.0010
2194.00,0.0011
2191.00,0.0011
2188.00,0.0011
2185.00,0.0010
2182.00,0.0005
2179.00,0.0008
2176.00,0.0006
2173.00,0.0007
2170.00,0.0013
2167.00,0.0016
2164.00,0.0018
2161.00,0.0006
2158.00,-0.0020
2155.00,-0.0012
2152.00,-0.0010
2149.00,-0.0009
2146.00,-0.0007
2143.00,-0.0005
2140.00,-0.0006
2137.00,-0.0008
2134.00,-0.0012
2131.00,-0.0010
2128.00,-0.0004
2125.00,-0.0001
2122.00,0.0001
2119.00,0.0002
2116.00,0.0005
2113.00,0.0006
2110.00,0.0006
2107.00,0.0006
2104.00,0.0006
2101.00,0.0006
2098.00,0.0004
2095.00,0.0002
2092.00,0.0003
2089.00,0.0005
2086.00,0.0007
2083.00,0.0008
2080.00,0.0008
2077.00,0.0007
2074.00,0.0007
2071.00,0.0007
2068.00,0.0004
2065.00,0.0004
2062.00,0.0004
2059.00,0.0005
2056.00,0.0006
2053.00,0.0013
2050.00,0.0015
2047.00,0.0006
2044.00,0.0006
2041.00,0.0006
2038.00,0.0009
2035.00,0.0004
2032.00,-0.0001
2029.00,-0.0001
2026.00,0.0001
2023.00,-0.0001
2020.00,-0.0001
2017.00,-0.0003
2014.00,-0.0001
2011.00,0.0001
2008.00,-0.0002
2005.00,-0.0004
2002.00,-0.0003
1999.00,-0.0002
1996.00,0.0002
1993.00,0.0006
1990.00,0.0005
1987.00,0.0008
1984.00,0.0009
1981.00,0.0014
1978.00,0.0004
1975.00,-0.0002
1972.00,-0.0002
1969.00,-0.0001
1966.00,0.0002
1963.00,0.0001
1960.00,-0.0002
1957.00,0.0003
1954.00,0.0002
1951.00,0.0004
1948.00,0.0009
1945.00,0.0011
1942.00,0.0009
1939.00,0.0008
1936.00,0.0007
1933.00,0.0004
1930.00,0.0002
1927.00,-0.0000
1924.00,0.0002
1921.00,0.0003
1918.00,0.0002
1915.00,0.0003
1912.00,0.0003
1909.00,0.0002
1906.00,0.0003
1903.00,0.0003
1900.00,0.0004
1897.00,0.0005
1894.00,0.0005
1891.00,0.0007
1888.00,0.0008
1885.00,0.0009
1882.00,0.0010
1879.00,0.0011
1876.00,0.0012
1873.00,0.0013
1870.00,0.0013
1867.00,0.0012
1864.00,0.0010
1861.00,0.0010
1858.00,0.0008
1855.00,0.0007
1852.00,0.0006
1849.00,0.0005
1846.00,0.0005
1843.00,0.0005
1840.00,0.0006
1837.00,0.0005
1834.00,0.0005
1831.00,0.0006
1828.00,0.0007
1825.00,0.0008
1822.00,0.0009
1819.00,0.0009
1816.00,0.0009
1813.00,0.0011
1810.00,0.0014
1807.00,0.0015
1804.00,0.0017
1801.00,0.0018
1798.00,0.0017
1795.00,0.0015
1792.00,0.0013
1789.00,0.0012
1786.00,0.0011
1783.00,0.0011
1780.00,0.0011
1777.00,0.0011
1774.00,0.0012
1771.00,0.0013
1768.00,0.0013
1765.00,0.0013
1762.00,0.0015
1759.00,0.0016
1756.00,0.0017
1753.00,0.0020
1750.00,0.0021
1747.00,0.0023
1744.00,0.0025
1741.00,0.0025
1738.00,0.0025
1735.00,0.0026
1732.00,0.0024
1729.00,0.0023
1726.00,0.0023
1723.00,0.0023
1720.00,0.0022
1717.00,0.0021
1714.00,0.0021
1711.00,0.0021
1708.00,0.0021
1705.00,0.0023
1702.00,0.0024
1699.00,0.0026
1696.00,0.0029
1693.00,0.0035
1690.00,0.0041
1687.00,0.0048
1684.00,0.0055
1681.00,0.0059
1678.00,0.0063
1675.00,0.0066
1672.00,0.0068
1669.00,0.0069
1666.00,0.0071
1663.00,0.0071
1660.00,0.0068
1657.00,0.0066
1654.00,0.0062
1651.00,0.0053
1648.00,0.0050
1645.00,0.0043
1642.00,0.0039
1639.00,0.0037
1636.00,0.0033
1633.00,0.0030
1630.00,0.0030
1627.00,0.0029
1624.00,0.0030
1621.00,0.0031
1618.00,0.0032
1615.00,0.0032
1612.00,0.0035
1609.00,0.0044
1606.00,0.0066
1603.00,0.0095
1600.00,0.0102
1597.00,0.0078
1594.00,0.0053
1591.00,0.0042
1588.00,0.0040
1585.00,0.0048
1582.00,0.0050
1579.00,0.0037
1576.00,0.0026
1573.00,0.0022
1570.00,0.0020
1567.00,0.0018
1564.00,0.0018
1561.00,0.0018
1558.00,0.0018
1555.00,0.0018
1552.00,0.0019
1549.00,0.0021
1546.00,0.0022
1543.00,0.0023
1540.00,0.0022
1537.00,0.0021
1534.00,0.0021
1531.00,0.0019
1528.00,0.0019
1525.00,0.0018
1522.00,0.0018
1519.00,0.0019
1516.00,0.0020
1513.00,0.0021
1510.00,0.0023
1507.00,0.0024
1504.00,0.0030
1501.00,0.0043
1498.00,0.0080
1495.00,0.0186
1492.00,0.0253
1489.00,0.0162
1486.00,0.0087
1483.00,0.0058
1480.00,0.0043
1477.00,0.0039
1474.00,0.0038
1471.00,0.0040
1468.00,0.0046
1465.00,0.0053
1462.00,0.0061
1459.00,0.0076
1456.00,0.0149
1453.00,0.0244
1450.00,0.0252
1447.00,0.0197
1444.00,0.0162
1441.00,0.0135
1438.00,0.0115
1435.00,0.0088
1432.00,0.0074
1429.00,0.0064
1426.00,0.0060
1423.00,0.0056
1420.00,0.0051
1417.00,0.0044
1414.00,0.0041
1411.00,0.0039
1408.00,0.0038
1405.00,0.0039
1402.00,0.0039
1399.00,0.0039
1396.00,0.0039
1393.00,0.0040
1390.00,0.0044
1387.00,0.0050
1384.00,0.0056
1381.00,0.0063
1378.00,0.0068
1375.00,0.0073
1372.00,0.0075
1369.00,0.0074
1366.00,0.0073
1363.00,0.0072
1360.00,0.0070
1357.00,0.0067
1354.00,0.0064
1351.00,0.0063
1348.00,0.0062
1345.00,0.0061
1342.00,0.0060
1339.00,0.0059
1336.00,0.0060
1333.00,0.0063
1330.00,0.0067
1327.00,0.0068
1324.00,0.0067
1321.00,0.0067
1318.00,0.0068
1315.00,0.0070
1312.00,0.0070
1309.00,0.0068
1306.00,0.0066
1303.00,0.0064
1300.00,0.0064
1297.00,0.0067
1294.00,0.0073
1291.00,0.0076
1288.00,0.0075
1285.00,0.0071
1282.00,0.0067
1279.00,0.0064
1276.00,0.0061
1273.00,0.0058
1270.00,0.0054
1267.00,0.0050
1264.00,0.0047
1261.00,0.0045
1258.00,0.0043
1255.00,0.0043
1252.00,0.0043
1249.00,0.0044
1246.00,0.0044
1243.00,0.0045
1240.00,0.0045
1237.00,0.0045
1234.00,0.0045
1231.00,0.0045
1228.00,0.0045
1225.00,0.0045
1222.00,0.0045
1219.00,0.0045
1216.00,0.0045
1213.00,0.0045
1210.00,0.0046
1207.00,0.0049
1204.00,0.0052
1201.00,0.0056
1198.00,0.0059
1195.00,0.0060
1192.00,0.0060
1189.00,0.0060
1186.00,0.0063
1183.00,0.0071
1180.00,0.0072
1177.00,0.0063
1174.00,0.0056
1171.00,0.0054
1168.00,0.0055
1165.00,0.0059
1162.00,0.0064
1159.00,0.0073
1156.00,0.0084
1153.00,0.0083
1150.00,0.0068
1147.00,0.0056
1144.00,0.0049
1141.00,0.0045
1138.00,0.0044
1135.00,0.0045
1132.00,0.0047
1129.00,0.0049
1126.00,0.0049
1123.00,0.0050
1120.00,0.0053
1117.00,0.0058
1114.00,0.0063
1111.00,0.0066
1108.00,0.0066
1105.00,0.0066
1102.00,0.0067
1099.00,0.0068
1096.00,0.0069
1093.00,0.0069
1090.00,0.0069
1087.00,0.0072
1084.00,0.0077
1081.00,0.0083
1078.00,0.0091
1075.00,0.0100
1072.00,0.0112
1069.00,0.0119
1066.00,0.0120
1063.00,0.0116
1060.00,0.0112
1057.00,0.0107
1054.00,0.0100
1051.00,0.0094
1048.00,0.0088
1045.00,0.0084
1042.00,0.0083
1039.00,0.0088
1036.00,0.0105
1033.00,0.0141
1030.00,0.0180
1027.00,0.0189
1024.00,0.0162
1021.00,0.0135
1018.00,0.0119
1015.00,0.0109
1012.00,0.0102
1009.00,0.0098
1006.00,0.0101
1003.00,0.0105
1000.00,0.0098
997.00,0.0088
994.00,0.0084
991.00,0.0084
988.00,0.0087
985.00,0.0092
982.00,0.0096
979.00,0.0096
976.00,0.0091
973.00,0.0086
970.00,0.0088
967.00,0.0093
964.00,0.0095
961.00,0.0090
958.00,0.0081
955.00,0.0075
952.00,0.0074
949.00,0.0075
946.00,0.0077
943.00,0.0077
940.00,0.0074
937.00,0.0069
934.00,0.0063
931.00,0.0060
928.00,0.0059
925.00,0.0059
922.00,0.0061
919.00,0.0065
916.00,0.0073
913.00,0.0090
910.00,0.0110
907.00,0.0122
904.00,0.0118
901.00,0.0097
898.00,0.0076
895.00,0.0064
892.00,0.0057
889.00,0.0054
886.00,0.0051
883.00,0.0049
880.00,0.0048
877.00,0.0047
874.00,0.0046
871.00,0.0046
868.00,0.0044
865.00,0.0043
862.00,0.0043
859.00,0.0043
856.00,0.0045
853.00,0.0049
850.00,0.0054
847.00,0.0062
844.00,0.0071
841.00,0.0073
838.00,0.0067
835.00,0.0057
832.00,0.0048
829.00,0.0043
826.00,0.0042
823.00,0.0042
820.00,0.0042
817.00,0.0043
814.00,0.0043
811.00,0.0042
808.00,0.0042
805.00,0.0043
802.00,0.0044
799.00,0.0046
796.00,0.0050
793.00,0.0055
790.00,0.0064
787.00,0.0074
784.00,0.0087
781.00,0.0102
778.00,0.0125
775.00,0.0158
772.00,0.0200
769.00,0.0251
766.00,0.0304
763.00,0.0354
760.00,0.0405
757.00,0.0445
754.00,0.0455
751.00,0.0452
748.00,0.0449
745.00,0.0416
742.00,0.0336
739.00,0.0253
736.00,0.0188
733.00,0.0132
730.00,0.0096
727.00,0.0080
724.00,0.0075
721.00,0.0073
718.00,0.0077
715.00,0.0089
712.00,0.0122
709.00,0.0205
706.00,0.0372
703.00,0.0637
700.00,0.0968
697.00,0.1277
694.00,0.1344
691.00,0.1019
688.00,0.0673
685.00,0.0482
682.00,0.0375
679.00,0.0306
676.00,0.0263
673.00,0.0237
670.00,0.0221
667.00,0.0202
664.00,0.0183
661.00,0.0165
658.00,0.0147
655.00,0.0133
652.00,0.0123
649.00,0.0113
646.00,0.0106
643.00,0.0102
640.00,0.0101
637.00,0.0105
634.00,0.0111
631.00,0.0115
628.00,0.0119
625.00,0.0124
622.00,0.0129
619.00,0.0130
616.00,0.0120
613.00,0.0116
610.00,0.0111
607.00,0.0108
604.00,0.0110
601.00,0.0114
598.00,0.0116
595.00,0.0119
592.00,0.0123
589.00,0.0130
586.00,0.0134
583.00,0.0140
580.00,0.0152
577.00,0.0166
574.00,0.0184
571.00,0.0204
568.00,0.0224
565.00,0.0244
562.00,0.0263
559.00,0.0282
556.00,0.0305
553.00,0.0321
550.00,0.0347
547.00,0.0388
544.00,0.0433
541.00,0.0479
538.00,0.0504
535.00,0.0482
532.00,0.0422
529.00,0.0351
526.00,0.0294
523.00,0.0251
520.00,0.0220
517.00,0.0202
514.00,0.0184
511.00,0.0174
508.00,0.0161
505.00,0.0145
502.00,0.0136
499.00,0.0133
496.00,0.0129
493.00,0.0128
490.00,0.0124
487.00,0.0122
484.00,0.0114
481.00,0.0110
478.00,0.0105
475.00,0.0108
472.00,0.0106
469.00,0.0104
466.00,0.0103
463.00,0.0100
460.00,0.0096
457.00,0.0099
454.00,0.0094
451.00,0.0094
448.00,0.0097
445.00,0.0090
442.00,0.0085
439.00,0.0087
436.00,0.0091
433.00,0.0088
430.00,0.0074
427.00,0.0071
424.00,0.0072
421.00,0.0062
418.00,0.0054
415.00,0.0075
412.00,0.0090
409.00,0.0093
406.00,0.0087
403.00,0.0077
400.00,0.0076