File: FTIR/Olivia/2025_08_06_1CBN_3PVP29_MP_Powder_Scan2.csv
Created as New Dataset,Sample 1092 By YargerLab Date Wednesday, August 06 2025
cm-1,A
4000.00,0.0003
3997.00,0.0003
3994.00,0.0003
3991.00,0.0003
3988.00,0.0003
3985.00,0.0003
3982.00,0.0002
3979.00,0.0003
3976.00,0.0003
3973.00,0.0003
3970.00,0.0003
3967.00,0.0003
3964.00,0.0003
3961.00,0.0003
3958.00,0.0003
3955.00,0.0003
3952.00,0.0003
3949.00,0.0003
3946.00,0.0003
3943.00,0.0003
3940.00,0.0003
3937.00,0.0003
3934.00,0.0004
3931.00,0.0004
3928.00,0.0004
3925.00,0.0004
3922.00,0.0003
3919.00,0.0004
3916.00,0.0004
3913.00,0.0004
3910.00,0.0003
3907.00,0.0004
3904.00,0.0006
3901.00,0.0007
3898.00,0.0006
3895.00,0.0005
3892.00,0.0005
3889.00,0.0006
3886.00,0.0005
3883.00,0.0004
3880.00,0.0004
3877.00,0.0004
3874.00,0.0005
3871.00,0.0006
3868.00,0.0006
3865.00,0.0006
3862.00,0.0006
3859.00,0.0005
3856.00,0.0008
3853.00,0.0009
3850.00,0.0008
3847.00,0.0006
3844.00,0.0006
3841.00,0.0006
3838.00,0.0007
3835.00,0.0007
3832.00,0.0006
3829.00,0.0005
3826.00,0.0005
3823.00,0.0006
3820.00,0.0006
3817.00,0.0006
3814.00,0.0005
3811.00,0.0004
3808.00,0.0005
3805.00,0.0006
3802.00,0.0007
3799.00,0.0006
3796.00,0.0004
3793.00,0.0003
3790.00,0.0003
3787.00,0.0004
3784.00,0.0004
3781.00,0.0004
3778.00,0.0004
3775.00,0.0004
3772.00,0.0005
3769.00,0.0005
3766.00,0.0004
3763.00,0.0005
3760.00,0.0005
3757.00,0.0006
3754.00,0.0008
3751.00,0.0009
3748.00,0.0010
3745.00,0.0009
3742.00,0.0009
3739.00,0.0008
3736.00,0.0008
3733.00,0.0007
3730.00,0.0006
3727.00,0.0005
3724.00,0.0004
3721.00,0.0004
3718.00,0.0004
3715.00,0.0004
3712.00,0.0007
3709.00,0.0006
3706.00,0.0004
3703.00,0.0003
3700.00,0.0003
3697.00,0.0002
3694.00,0.0003
3691.00,0.0005
3688.00,0.0005
3685.00,0.0004
3682.00,0.0003
3679.00,0.0005
3676.00,0.0007
3673.00,0.0008
3670.00,0.0007
3667.00,0.0006
3664.00,0.0004
3661.00,0.0004
3658.00,0.0005
3655.00,0.0006
3652.00,0.0008
3649.00,0.0008
3646.00,0.0008
3643.00,0.0006
3640.00,0.0005
3637.00,0.0005
3634.00,0.0006
3631.00,0.0008
3628.00,0.0009
3625.00,0.0008
3622.00,0.0007
3619.00,0.0009
3616.00,0.0010
3613.00,0.0011
3610.00,0.0011
3607.00,0.0011
3604.00,0.0010
3601.00,0.0010
3598.00,0.0011
3595.00,0.0011
3592.00,0.0012
3589.00,0.0013
3586.00,0.0013
3583.00,0.0014
3580.00,0.0013
3577.00,0.0013
3574.00,0.0014
3571.00,0.0016
3568.00,0.0018
3565.00,0.0018
3562.00,0.0018
3559.00,0.0018
3556.00,0.0018
3553.00,0.0019
3550.00,0.0020
3547.00,0.0021
3544.00,0.0022
3541.00,0.0022
3538.00,0.0023
3535.00,0.0024
3532.00,0.0024
3529.00,0.0025
3526.00,0.0026
3523.00,0.0026
3520.00,0.0026
3517.00,0.0026
3514.00,0.0027
3511.00,0.0028
3508.00,0.0028
3505.00,0.0029
3502.00,0.0029
3499.00,0.0029
3496.00,0.0030
3493.00,0.0030
3490.00,0.0030
3487.00,0.0030
3484.00,0.0031
3481.00,0.0032
3478.00,0.0032
3475.00,0.0032
3472.00,0.0033
3469.00,0.0034
3466.00,0.0034
3463.00,0.0035
3460.00,0.0035
3457.00,0.0035
3454.00,0.0036
3451.00,0.0037
3448.00,0.0038
3445.00,0.0038
3442.00,0.0038
3439.00,0.0039
3436.00,0.0040
3433.00,0.0041
3430.00,0.0041
3427.00,0.0042
3424.00,0.0043
3421.00,0.0044
3418.00,0.0045
3415.00,0.0046
3412.00,0.0047
3409.00,0.0048
3406.00,0.0049
3403.00,0.0050
3400.00,0.0051
3397.00,0.0052
3394.00,0.0052
3391.00,0.0051
3388.00,0.0051
3385.00,0.0050
3382.00,0.0050
3379.00,0.0048
3376.00,0.0047
3373.00,0.0046
3370.00,0.0045
3367.00,0.0044
3364.00,0.0042
3361.00,0.0041
3358.00,0.0041
3355.00,0.0039
3352.00,0.0038
3349.00,0.0037
3346.00,0.0036
3343.00,0.0036
3340.00,0.0035
3337.00,0.0035
3334.00,0.0034
3331.00,0.0033
3328.00,0.0033
3325.00,0.0032
3322.00,0.0032
3319.00,0.0032
3316.00,0.0032
3313.00,0.0032
3310.00,0.0031
3307.00,0.0031
3304.00,0.0031
3301.00,0.0032
3298.00,0.0032
3295.00,0.0032
3292.00,0.0032
3289.00,0.0033
3286.00,0.0032
3283.00,0.0033
3280.00,0.0034
3277.00,0.0034
3274.00,0.0034
3271.00,0.0034
3268.00,0.0035
3265.00,0.0035
3262.00,0.0035
3259.00,0.0035
3256.00,0.0035
3253.00,0.0036
3250.00,0.0036
3247.00,0.0036
3244.00,0.0036
3241.00,0.0037
3238.00,0.0038
3235.00,0.0038
3232.00,0.0038
3229.00,0.0038
3226.00,0.0038
3223.00,0.0038
3220.00,0.0039
3217.00,0.0039
3214.00,0.0039
3211.00,0.0038
3208.00,0.0037
3205.00,0.0037
3202.00,0.0037
3199.00,0.0036
3196.00,0.0034
3193.00,0.0034
3190.00,0.0034
3187.00,0.0033
3184.00,0.0033
3181.00,0.0032
3178.00,0.0030
3175.00,0.0029
3172.00,0.0029
3169.00,0.0028
3166.00,0.0026
3163.00,0.0026
3160.00,0.0025
3157.00,0.0025
3154.00,0.0024
3151.00,0.0023
3148.00,0.0022
3145.00,0.0022
3142.00,0.0021
3139.00,0.0020
3136.00,0.0019
3133.00,0.0019
3130.00,0.0019
3127.00,0.0018
3124.00,0.0018
3121.00,0.0017
3118.00,0.0017
3115.00,0.0016
3112.00,0.0016
3109.00,0.0015
3106.00,0.0015
3103.00,0.0014
3100.00,0.0014
3097.00,0.0014
3094.00,0.0014
3091.00,0.0013
3088.00,0.0013
3085.00,0.0013
3082.00,0.0013
3079.00,0.0012
3076.00,0.0012
3073.00,0.0011
3070.00,0.0011
3067.00,0.0012
3064.00,0.0012
3061.00,0.0011
3058.00,0.0011
3055.00,0.0011
3052.00,0.0011
3049.00,0.0011
3046.00,0.0011
3043.00,0.0011
3040.00,0.0011
3037.00,0.0011
3034.00,0.0011
3031.00,0.0011
3028.00,0.0011
3025.00,0.0011
3022.00,0.0011
3019.00,0.0010
3016.00,0.0011
3013.00,0.0012
3010.00,0.0012
3007.00,0.0014
3004.00,0.0016
3001.00,0.0018
2998.00,0.0021
2995.00,0.0023
2992.00,0.0023
2989.00,0.0023
2986.00,0.0023
2983.00,0.0025
2980.00,0.0028
2977.00,0.0030
2974.00,0.0033
2971.00,0.0038
2968.00,0.0041
2965.00,0.0045
2962.00,0.0047
2959.00,0.0044
2956.00,0.0040
2953.00,0.0039
2950.00,0.0040
2947.00,0.0043
2944.00,0.0044
2941.00,0.0046
2938.00,0.0050
2935.00,0.0057
2932.00,0.0065
2929.00,0.0071
2926.00,0.0072
2923.00,0.0068
2920.00,0.0062
2917.00,0.0056
2914.00,0.0051
2911.00,0.0048
2908.00,0.0046
2905.00,0.0043
2902.00,0.0041
2899.00,0.0040
2896.00,0.0039
2893.00,0.0038
2890.00,0.0037
2887.00,0.0036
2884.00,0.0036
2881.00,0.0036
2878.00,0.0037
2875.00,0.0038
2872.00,0.0038
2869.00,0.0037
2866.00,0.0038
2863.00,0.0042
2860.00,0.0048
2857.00,0.0050
2854.00,0.0049
2851.00,0.0047
2848.00,0.0041
2845.00,0.0034
2842.00,0.0029
2839.00,0.0025
2836.00,0.0022
2833.00,0.0020
2830.00,0.0019
2827.00,0.0017
2824.00,0.0016
2821.00,0.0015
2818.00,0.0014
2815.00,0.0013
2812.00,0.0013
2809.00,0.0012
2806.00,0.0012
2803.00,0.0012
2800.00,0.0011
2797.00,0.0011
2794.00,0.0011
2791.00,0.0011
2788.00,0.0010
2785.00,0.0010
2782.00,0.0010
2779.00,0.0010
2776.00,0.0010
2773.00,0.0010
2770.00,0.0009
2767.00,0.0009
2764.00,0.0009
2761.00,0.0009
2758.00,0.0009
2755.00,0.0009
2752.00,0.0009
2749.00,0.0009
2746.00,0.0009
2743.00,0.0009
2740.00,0.0009
2737.00,0.0009
2734.00,0.0009
2731.00,0.0010
2728.00,0.0010
2725.00,0.0010
2722.00,0.0010
2719.00,0.0010
2716.00,0.0010
2713.00,0.0009
2710.00,0.0009
2707.00,0.0009
2704.00,0.0009
2701.00,0.0009
2698.00,0.0009
2695.00,0.0009
2692.00,0.0009
2689.00,0.0008
2686.00,0.0008
2683.00,0.0008
2680.00,0.0008
2677.00,0.0008
2674.00,0.0008
2671.00,0.0009
2668.00,0.0009
2665.00,0.0010
2662.00,0.0011
2659.00,0.0012
2656.00,0.0013
2653.00,0.0013
2650.00,0.0013
2647.00,0.0013
2644.00,0.0013
2641.00,0.0013
2638.00,0.0013
2635.00,0.0013
2632.00,0.0012
2629.00,0.0012
2626.00,0.0012
2623.00,0.0012
2620.00,0.0011
2617.00,0.0011
2614.00,0.0011
2611.00,0.0010
2608.00,0.0010
2605.00,0.0010
2602.00,0.0011
2599.00,0.0011
2596.00,0.0010
2593.00,0.0010
2590.00,0.0010
2587.00,0.0010
2584.00,0.0010
2581.00,0.0008
2578.00,0.0008
2575.00,0.0009
2572.00,0.0008
2569.00,0.0008
2566.00,0.0008
2563.00,0.0007
2560.00,0.0008
2557.00,0.0008
2554.00,0.0007
2551.00,0.0006
2548.00,0.0007
2545.00,0.0007
2542.00,0.0006
2539.00,0.0006
2536.00,0.0006
2533.00,0.0006
2530.00,0.0006
2527.00,0.0006
2524.00,0.0005
2521.00,0.0005
2518.00,0.0005
2515.00,0.0006
2512.00,0.0005
2509.00,0.0006
2506.00,0.0005
2503.00,0.0005
2500.00,0.0005
2497.00,0.0006
2494.00,0.0006
2491.00,0.0005
2488.00,0.0005
2485.00,0.0005
2482.00,0.0005
2479.00,0.0004
2476.00,0.0005
2473.00,0.0005
2470.00,0.0005
2467.00,0.0005
2464.00,0.0005
2461.00,0.0005
2458.00,0.0006
2455.00,0.0006
2452.00,0.0006
2449.00,0.0006
2446.00,0.0006
2443.00,0.0005
2440.00,0.0004
2437.00,0.0004
2434.00,0.0004
2431.00,0.0004
2428.00,0.0003
2425.00,0.0003
2422.00,0.0003
2419.00,0.0003
2416.00,0.0003
2413.00,0.0003
2410.00,0.0003
2407.00,0.0002
2404.00,0.0001
2401.00,0.0001
2398.00,0.0001
2395.00,0.0002
2392.00,0.0001
2389.00,0.0001
2386.00,0.0001
2383.00,-0.0001
2380.00,-0.0002
2377.00,-0.0003
2374.00,-0.0003
2371.00,-0.0004
2368.00,-0.0005
2365.00,-0.0004
2362.00,-0.0003
2359.00,-0.0004
2356.00,-0.0003
2353.00,-0.0002
2350.00,-0.0002
2347.00,-0.0001
2344.00,-0.0001
2341.00,-0.0000
2338.00,0.0002
2335.00,0.0003
2332.00,0.0002
2329.00,0.0004
2326.00,0.0014
2323.00,0.0013
2320.00,0.0008
2317.00,0.0007
2314.00,0.0007
2311.00,0.0005
2308.00,0.0004
2305.00,0.0005
2302.00,0.0007
2299.00,0.0007
2296.00,0.0009
2293.00,0.0012
2290.00,0.0014
2287.00,0.0015
2284.00,0.0013
2281.00,0.0013
2278.00,0.0012
2275.00,0.0012
2272.00,0.0012
2269.00,0.0010
2266.00,0.0008
2263.00,0.0008
2260.00,0.0010
2257.00,0.0008
2254.00,0.0006
2251.00,0.0006
2248.00,0.0007
2245.00,0.0007
2242.00,0.0008
2239.00,0.0007
2236.00,0.0009
2233.00,0.0008
2230.00,0.0008
2227.00,0.0009
2224.00,0.0008
2221.00,0.0008
2218.00,0.0007
2215.00,0.0009
2212.00,0.0011
2209.00,0.0008
2206.00,0.0008
2203.00,0.0007
2200.00,0.0008
2197.00,0.0008
2194.00,0.0010
2191.00,0.0011
2188.00,0.0011
2185.00,0.0011
2182.00,0.0006
2179.00,0.0008
2176.00,0.0001
2173.00,0.0004
2170.00,0.0013
2167.00,0.0016
2164.00,0.0019
2161.00,0.0004
2158.00,-0.0024
2155.00,-0.0014
2152.00,-0.0011
2149.00,-0.0010
2146.00,-0.0008
2143.00,-0.0009
2140.00,-0.0009
2137.00,-0.0013
2134.00,-0.0016
2131.00,-0.0011
2128.00,-0.0006
2125.00,-0.0004
2122.00,-0.0001
2119.00,0.0002
2116.00,0.0005
2113.00,0.0006
2110.00,0.0006
2107.00,0.0004
2104.00,0.0004
2101.00,0.0005
2098.00,0.0003
2095.00,-0.0001
2092.00,0.0001
2089.00,0.0004
2086.00,0.0005
2083.00,0.0006
2080.00,0.0007
2077.00,0.0007
2074.00,0.0006
2071.00,0.0005
2068.00,0.0003
2065.00,0.0004
2062.00,0.0003
2059.00,0.0001
2056.00,0.0003
2053.00,0.0010
2050.00,0.0011
2047.00,0.0006
2044.00,0.0004
2041.00,0.0005
2038.00,0.0009
2035.00,0.0006
2032.00,0.0002
2029.00,0.0000
2026.00,-0.0003
2023.00,-0.0002
2020.00,0.0001
2017.00,-0.0002
2014.00,-0.0007
2011.00,-0.0002
2008.00,-0.0006
2005.00,-0.0010
2002.00,-0.0005
1999.00,0.0000
1996.00,0.0003
1993.00,0.0003
1990.00,0.0003
1987.00,0.0006
1984.00,0.0009
1981.00,0.0016
1978.00,0.0004
1975.00,-0.0006
1972.00,-0.0006
1969.00,-0.0004
1966.00,-0.0005
1963.00,-0.0006
1960.00,-0.0010
1957.00,-0.0008
1954.00,-0.0004
1951.00,-0.0007
1948.00,-0.0007
1945.00,-0.0006
1942.00,-0.0005
1939.00,-0.0005
1936.00,-0.0004
1933.00,-0.0004
1930.00,-0.0004
1927.00,-0.0004
1924.00,-0.0004
1921.00,-0.0002
1918.00,-0.0003
1915.00,-0.0002
1912.00,-0.0001
1909.00,0.0000
1906.00,0.0001
1903.00,-0.0001
1900.00,-0.0001
1897.00,-0.0000
1894.00,0.0001
1891.00,-0.0000
1888.00,-0.0001
1885.00,-0.0001
1882.00,-0.0001
1879.00,-0.0000
1876.00,0.0001
1873.00,0.0002
1870.00,-0.0000
1867.00,-0.0001
1864.00,0.0000
1861.00,0.0000
1858.00,0.0000
1855.00,0.0000
1852.00,0.0002
1849.00,0.0001
1846.00,0.0000
1843.00,-0.0000
1840.00,0.0000
1837.00,0.0001
1834.00,0.0002
1831.00,0.0001
1828.00,0.0001
1825.00,0.0002
1822.00,0.0001
1819.00,-0.0001
1816.00,-0.0002
1813.00,0.0001
1810.00,0.0002
1807.00,0.0002
1804.00,0.0002
1801.00,0.0003
1798.00,0.0003
1795.00,0.0003
1792.00,0.0003
1789.00,0.0003
1786.00,0.0003
1783.00,0.0003
1780.00,0.0003
1777.00,0.0003
1774.00,0.0004
1771.00,0.0005
1768.00,0.0005
1765.00,0.0005
1762.00,0.0005
1759.00,0.0005
1756.00,0.0005
1753.00,0.0006
1750.00,0.0006
1747.00,0.0006
1744.00,0.0007
1741.00,0.0007
1738.00,0.0008
1735.00,0.0009
1732.00,0.0010
1729.00,0.0010
1726.00,0.0011
1723.00,0.0013
1720.00,0.0014
1717.00,0.0015
1714.00,0.0016
1711.00,0.0019
1708.00,0.0023
1705.00,0.0027
1702.00,0.0033
1699.00,0.0042
1696.00,0.0055
1693.00,0.0070
1690.00,0.0087
1687.00,0.0105
1684.00,0.0124
1681.00,0.0140
1678.00,0.0155
1675.00,0.0168
1672.00,0.0176
1669.00,0.0184
1666.00,0.0193
1663.00,0.0208
1660.00,0.0221
1657.00,0.0239
1654.00,0.0257
1651.00,0.0254
1648.00,0.0264
1645.00,0.0255
1642.00,0.0249
1639.00,0.0239
1636.00,0.0218
1633.00,0.0194
1630.00,0.0191
1627.00,0.0188
1624.00,0.0181
1621.00,0.0167
1618.00,0.0157
1615.00,0.0134
1612.00,0.0128
1609.00,0.0120
1606.00,0.0105
1603.00,0.0088
1600.00,0.0074
1597.00,0.0065
1594.00,0.0062
1591.00,0.0065
1588.00,0.0071
1585.00,0.0073
1582.00,0.0073
1579.00,0.0072
1576.00,0.0064
1573.00,0.0056
1570.00,0.0052
1567.00,0.0048
1564.00,0.0042
1561.00,0.0038
1558.00,0.0028
1555.00,0.0027
1552.00,0.0027
1549.00,0.0026
1546.00,0.0025
1543.00,0.0023
1540.00,0.0020
1537.00,0.0020
1534.00,0.0021
1531.00,0.0020
1528.00,0.0020
1525.00,0.0020
1522.00,0.0021
1519.00,0.0022
1516.00,0.0024
1513.00,0.0026
1510.00,0.0029
1507.00,0.0032
1504.00,0.0039
1501.00,0.0052
1498.00,0.0069
1495.00,0.0077
1492.00,0.0074
1489.00,0.0060
1486.00,0.0047
1483.00,0.0040
1480.00,0.0036
1477.00,0.0037
1474.00,0.0042
1471.00,0.0058
1468.00,0.0083
1465.00,0.0108
1462.00,0.0116
1459.00,0.0119
1456.00,0.0100
1453.00,0.0090
1450.00,0.0091
1447.00,0.0100
1444.00,0.0116
1441.00,0.0137
1438.00,0.0152
1435.00,0.0155
1432.00,0.0163
1429.00,0.0166
1426.00,0.0176
1423.00,0.0186
1420.00,0.0182
1417.00,0.0149
1414.00,0.0121
1411.00,0.0098
1408.00,0.0087
1405.00,0.0087
1402.00,0.0089
1399.00,0.0088
1396.00,0.0081
1393.00,0.0071
1390.00,0.0069
1387.00,0.0073
1384.00,0.0068
1381.00,0.0065
1378.00,0.0070
1375.00,0.0078
1372.00,0.0073
1369.00,0.0074
1366.00,0.0079
1363.00,0.0077
1360.00,0.0082
1357.00,0.0078
1354.00,0.0068
1351.00,0.0065
1348.00,0.0066
1345.00,0.0063
1342.00,0.0056
1339.00,0.0050
1336.00,0.0051
1333.00,0.0056
1330.00,0.0062
1327.00,0.0065
1324.00,0.0069
1321.00,0.0075
1318.00,0.0079
1315.00,0.0077
1312.00,0.0072
1309.00,0.0073
1306.00,0.0081
1303.00,0.0098
1300.00,0.0114
1297.00,0.0131
1294.00,0.0158
1291.00,0.0183
1288.00,0.0203
1285.00,0.0215
1282.00,0.0208
1279.00,0.0193
1276.00,0.0187
1273.00,0.0187
1270.00,0.0180
1267.00,0.0166
1264.00,0.0147
1261.00,0.0127
1258.00,0.0110
1255.00,0.0099
1252.00,0.0093
1249.00,0.0093
1246.00,0.0098
1243.00,0.0103
1240.00,0.0106
1237.00,0.0116
1234.00,0.0122
1231.00,0.0118
1228.00,0.0110
1225.00,0.0106
1222.00,0.0104
1219.00,0.0106
1216.00,0.0109
1213.00,0.0109
1210.00,0.0099
1207.00,0.0089
1204.00,0.0087
1201.00,0.0092
1198.00,0.0099
1195.00,0.0105
1192.00,0.0098
1189.00,0.0084
1186.00,0.0075
1183.00,0.0069
1180.00,0.0067
1177.00,0.0067
1174.00,0.0068
1171.00,0.0067
1168.00,0.0065
1165.00,0.0060
1162.00,0.0057
1159.00,0.0060
1156.00,0.0076
1153.00,0.0081
1150.00,0.0063
1147.00,0.0050
1144.00,0.0046
1141.00,0.0044
1138.00,0.0045
1135.00,0.0052
1132.00,0.0070
1129.00,0.0087
1126.00,0.0081
1123.00,0.0069
1120.00,0.0060
1117.00,0.0059
1114.00,0.0059
1111.00,0.0054
1108.00,0.0051
1105.00,0.0054
1102.00,0.0069
1099.00,0.0076
1096.00,0.0067
1093.00,0.0053
1090.00,0.0048
1087.00,0.0046
1084.00,0.0046
1081.00,0.0047
1078.00,0.0048
1075.00,0.0048
1072.00,0.0049
1069.00,0.0050
1066.00,0.0051
1063.00,0.0054
1060.00,0.0064
1057.00,0.0087
1054.00,0.0108
1051.00,0.0120
1048.00,0.0121
1045.00,0.0103
1042.00,0.0085
1039.00,0.0078
1036.00,0.0081
1033.00,0.0082
1030.00,0.0095
1027.00,0.0124
1024.00,0.0126
1021.00,0.0107
1018.00,0.0091
1015.00,0.0078
1012.00,0.0070
1009.00,0.0075
1006.00,0.0085
1003.00,0.0088
1000.00,0.0081
997.00,0.0074
994.00,0.0070
991.00,0.0063
988.00,0.0056
985.00,0.0051
982.00,0.0048
979.00,0.0046
976.00,0.0045
973.00,0.0044
970.00,0.0043
967.00,0.0042
964.00,0.0044
961.00,0.0045
958.00,0.0035
955.00,0.0024
952.00,0.0014
949.00,0.0012
946.00,0.0015
943.00,0.0023
940.00,0.0033
937.00,0.0040
934.00,0.0045
931.00,0.0046
928.00,0.0046
925.00,0.0047
922.00,0.0048
919.00,0.0043
916.00,0.0039
913.00,0.0038
910.00,0.0038
907.00,0.0040
904.00,0.0046
901.00,0.0055
898.00,0.0053
895.00,0.0046
892.00,0.0049
889.00,0.0056
886.00,0.0045
883.00,0.0038
880.00,0.0039
877.00,0.0047
874.00,0.0065
871.00,0.0085
868.00,0.0080
865.00,0.0067
862.00,0.0058
859.00,0.0055
856.00,0.0065
853.00,0.0078
850.00,0.0096
847.00,0.0095
844.00,0.0081
841.00,0.0075
838.00,0.0083
835.00,0.0097
832.00,0.0092
829.00,0.0072
826.00,0.0056
823.00,0.0060
820.00,0.0089
817.00,0.0104
814.00,0.0079
811.00,0.0042
808.00,0.0040
805.00,0.0045
802.00,0.0048
799.00,0.0048
796.00,0.0049
793.00,0.0048
790.00,0.0047
787.00,0.0049
784.00,0.0048
781.00,0.0050
778.00,0.0053
775.00,0.0059
772.00,0.0060
769.00,0.0057
766.00,0.0059
763.00,0.0064
760.00,0.0071
757.00,0.0071
754.00,0.0071
751.00,0.0072
748.00,0.0075
745.00,0.0079
742.00,0.0085
739.00,0.0091
736.00,0.0106
733.00,0.0109
730.00,0.0117
727.00,0.0115
724.00,0.0098
721.00,0.0089
718.00,0.0092
715.00,0.0098
712.00,0.0096
709.00,0.0094
706.00,0.0093
703.00,0.0096
700.00,0.0101
697.00,0.0102
694.00,0.0098
691.00,0.0099
688.00,0.0107
685.00,0.0108
682.00,0.0111
679.00,0.0114
676.00,0.0121
673.00,0.0131
670.00,0.0136
667.00,0.0136
664.00,0.0139
661.00,0.0147
658.00,0.0148
655.00,0.0146
652.00,0.0152
649.00,0.0155
646.00,0.0155
643.00,0.0152
640.00,0.0148
637.00,0.0147
634.00,0.0144
631.00,0.0141
628.00,0.0138
625.00,0.0142
622.00,0.0147
619.00,0.0147
616.00,0.0144
613.00,0.0138
610.00,0.0137
607.00,0.0149
604.00,0.0160
601.00,0.0172
598.00,0.0173
595.00,0.0170
592.00,0.0172
589.00,0.0170
586.00,0.0170
583.00,0.0168
580.00,0.0175
577.00,0.0199
574.00,0.0199
571.00,0.0187
568.00,0.0182
565.00,0.0185
562.00,0.0193
559.00,0.0192
556.00,0.0185
553.00,0.0183
550.00,0.0186
547.00,0.0197
544.00,0.0194
541.00,0.0187
538.00,0.0180
535.00,0.0180
532.00,0.0188
529.00,0.0185
526.00,0.0180
523.00,0.0177
520.00,0.0173
517.00,0.0173
514.00,0.0168
511.00,0.0163
508.00,0.0168
505.00,0.0171
502.00,0.0167
499.00,0.0163
496.00,0.0166
493.00,0.0170
490.00,0.0172
487.00,0.0170
484.00,0.0165
481.00,0.0168
478.00,0.0168
475.00,0.0162
472.00,0.0170
469.00,0.0173
466.00,0.0168
463.00,0.0159
460.00,0.0160
457.00,0.0170
454.00,0.0166
451.00,0.0163
448.00,0.0160
445.00,0.0152
442.00,0.0159
439.00,0.0152
436.00,0.0146
433.00,0.0151
430.00,0.0147
427.00,0.0136
424.00,0.0138
421.00,0.0134
418.00,0.0122
415.00,0.0130
412.00,0.0148
409.00,0.0161
406.00,0.0146
403.00,0.0126
400.00,0.0127