File: FTIR/Olivia/2025_08_06_1CBN_3PVP10_MP_Powder_Sigma1.csv
Created as New Dataset,Sample 005 By YargerLab Date Wednesday, August 06 2025
cm-1,A
4000.00,0.0007
3997.00,0.0007
3994.00,0.0007
3991.00,0.0006
3988.00,0.0007
3985.00,0.0007
3982.00,0.0007
3979.00,0.0007
3976.00,0.0007
3973.00,0.0007
3970.00,0.0007
3967.00,0.0007
3964.00,0.0006
3961.00,0.0006
3958.00,0.0007
3955.00,0.0007
3952.00,0.0007
3949.00,0.0006
3946.00,0.0006
3943.00,0.0006
3940.00,0.0006
3937.00,0.0006
3934.00,0.0006
3931.00,0.0006
3928.00,0.0006
3925.00,0.0006
3922.00,0.0006
3919.00,0.0005
3916.00,0.0006
3913.00,0.0007
3910.00,0.0007
3907.00,0.0005
3904.00,0.0004
3901.00,0.0003
3898.00,0.0005
3895.00,0.0005
3892.00,0.0005
3889.00,0.0005
3886.00,0.0005
3883.00,0.0004
3880.00,0.0005
3877.00,0.0004
3874.00,0.0005
3871.00,0.0004
3868.00,0.0004
3865.00,0.0004
3862.00,0.0005
3859.00,0.0005
3856.00,0.0004
3853.00,0.0004
3850.00,0.0004
3847.00,0.0005
3844.00,0.0005
3841.00,0.0004
3838.00,0.0004
3835.00,0.0004
3832.00,0.0006
3829.00,0.0006
3826.00,0.0006
3823.00,0.0005
3820.00,0.0004
3817.00,0.0005
3814.00,0.0006
3811.00,0.0007
3808.00,0.0006
3805.00,0.0005
3802.00,0.0005
3799.00,0.0004
3796.00,0.0006
3793.00,0.0007
3790.00,0.0007
3787.00,0.0007
3784.00,0.0007
3781.00,0.0007
3778.00,0.0007
3775.00,0.0007
3772.00,0.0007
3769.00,0.0006
3766.00,0.0006
3763.00,0.0006
3760.00,0.0006
3757.00,0.0006
3754.00,0.0005
3751.00,0.0003
3748.00,0.0002
3745.00,0.0002
3742.00,0.0004
3739.00,0.0004
3736.00,0.0003
3733.00,0.0003
3730.00,0.0005
3727.00,0.0005
3724.00,0.0005
3721.00,0.0005
3718.00,0.0006
3715.00,0.0006
3712.00,0.0005
3709.00,0.0005
3706.00,0.0006
3703.00,0.0006
3700.00,0.0007
3697.00,0.0007
3694.00,0.0006
3691.00,0.0006
3688.00,0.0006
3685.00,0.0007
3682.00,0.0008
3679.00,0.0008
3676.00,0.0007
3673.00,0.0005
3670.00,0.0007
3667.00,0.0009
3664.00,0.0011
3661.00,0.0012
3658.00,0.0012
3655.00,0.0012
3652.00,0.0011
3649.00,0.0011
3646.00,0.0011
3643.00,0.0015
3640.00,0.0017
3637.00,0.0017
3634.00,0.0018
3631.00,0.0017
3628.00,0.0018
3625.00,0.0019
3622.00,0.0022
3619.00,0.0022
3616.00,0.0022
3613.00,0.0024
3610.00,0.0025
3607.00,0.0027
3604.00,0.0030
3601.00,0.0032
3598.00,0.0033
3595.00,0.0034
3592.00,0.0036
3589.00,0.0037
3586.00,0.0037
3583.00,0.0041
3580.00,0.0044
3577.00,0.0047
3574.00,0.0048
3571.00,0.0050
3568.00,0.0051
3565.00,0.0051
3562.00,0.0055
3559.00,0.0058
3556.00,0.0061
3553.00,0.0063
3550.00,0.0064
3547.00,0.0066
3544.00,0.0068
3541.00,0.0071
3538.00,0.0073
3535.00,0.0075
3532.00,0.0077
3529.00,0.0079
3526.00,0.0080
3523.00,0.0082
3520.00,0.0084
3517.00,0.0085
3514.00,0.0087
3511.00,0.0088
3508.00,0.0089
3505.00,0.0091
3502.00,0.0091
3499.00,0.0093
3496.00,0.0094
3493.00,0.0096
3490.00,0.0097
3487.00,0.0098
3484.00,0.0099
3481.00,0.0099
3478.00,0.0100
3475.00,0.0101
3472.00,0.0103
3469.00,0.0104
3466.00,0.0105
3463.00,0.0105
3460.00,0.0106
3457.00,0.0108
3454.00,0.0109
3451.00,0.0109
3448.00,0.0111
3445.00,0.0111
3442.00,0.0112
3439.00,0.0113
3436.00,0.0114
3433.00,0.0114
3430.00,0.0115
3427.00,0.0116
3424.00,0.0116
3421.00,0.0116
3418.00,0.0117
3415.00,0.0118
3412.00,0.0120
3409.00,0.0121
3406.00,0.0121
3403.00,0.0122
3400.00,0.0123
3397.00,0.0124
3394.00,0.0124
3391.00,0.0123
3388.00,0.0123
3385.00,0.0123
3382.00,0.0122
3379.00,0.0121
3376.00,0.0120
3373.00,0.0119
3370.00,0.0117
3367.00,0.0116
3364.00,0.0114
3361.00,0.0112
3358.00,0.0111
3355.00,0.0109
3352.00,0.0108
3349.00,0.0107
3346.00,0.0105
3343.00,0.0104
3340.00,0.0102
3337.00,0.0101
3334.00,0.0101
3331.00,0.0100
3328.00,0.0098
3325.00,0.0097
3322.00,0.0097
3319.00,0.0096
3316.00,0.0096
3313.00,0.0095
3310.00,0.0095
3307.00,0.0094
3304.00,0.0093
3301.00,0.0093
3298.00,0.0093
3295.00,0.0092
3292.00,0.0092
3289.00,0.0093
3286.00,0.0093
3283.00,0.0092
3280.00,0.0093
3277.00,0.0092
3274.00,0.0091
3271.00,0.0090
3268.00,0.0089
3265.00,0.0090
3262.00,0.0089
3259.00,0.0088
3256.00,0.0088
3253.00,0.0087
3250.00,0.0086
3247.00,0.0085
3244.00,0.0085
3241.00,0.0084
3238.00,0.0083
3235.00,0.0083
3232.00,0.0082
3229.00,0.0081
3226.00,0.0081
3223.00,0.0080
3220.00,0.0079
3217.00,0.0078
3214.00,0.0077
3211.00,0.0075
3208.00,0.0075
3205.00,0.0074
3202.00,0.0073
3199.00,0.0072
3196.00,0.0071
3193.00,0.0069
3190.00,0.0067
3187.00,0.0066
3184.00,0.0065
3181.00,0.0064
3178.00,0.0063
3175.00,0.0061
3172.00,0.0060
3169.00,0.0058
3166.00,0.0057
3163.00,0.0056
3160.00,0.0055
3157.00,0.0054
3154.00,0.0053
3151.00,0.0051
3148.00,0.0050
3145.00,0.0049
3142.00,0.0048
3139.00,0.0047
3136.00,0.0046
3133.00,0.0044
3130.00,0.0043
3127.00,0.0043
3124.00,0.0042
3121.00,0.0041
3118.00,0.0040
3115.00,0.0039
3112.00,0.0039
3109.00,0.0038
3106.00,0.0037
3103.00,0.0037
3100.00,0.0036
3097.00,0.0035
3094.00,0.0034
3091.00,0.0033
3088.00,0.0033
3085.00,0.0033
3082.00,0.0032
3079.00,0.0032
3076.00,0.0031
3073.00,0.0030
3070.00,0.0029
3067.00,0.0029
3064.00,0.0029
3061.00,0.0028
3058.00,0.0028
3055.00,0.0028
3052.00,0.0027
3049.00,0.0027
3046.00,0.0026
3043.00,0.0026
3040.00,0.0025
3037.00,0.0026
3034.00,0.0026
3031.00,0.0025
3028.00,0.0025
3025.00,0.0024
3022.00,0.0025
3019.00,0.0026
3016.00,0.0026
3013.00,0.0027
3010.00,0.0029
3007.00,0.0031
3004.00,0.0034
3001.00,0.0039
2998.00,0.0043
2995.00,0.0047
2992.00,0.0049
2989.00,0.0052
2986.00,0.0055
2983.00,0.0060
2980.00,0.0064
2977.00,0.0067
2974.00,0.0074
2971.00,0.0078
2968.00,0.0080
2965.00,0.0084
2962.00,0.0086
2959.00,0.0083
2956.00,0.0080
2953.00,0.0080
2950.00,0.0082
2947.00,0.0083
2944.00,0.0084
2941.00,0.0085
2938.00,0.0088
2935.00,0.0091
2932.00,0.0095
2929.00,0.0097
2926.00,0.0096
2923.00,0.0092
2920.00,0.0088
2917.00,0.0084
2914.00,0.0080
2911.00,0.0078
2908.00,0.0075
2905.00,0.0073
2902.00,0.0072
2899.00,0.0071
2896.00,0.0071
2893.00,0.0071
2890.00,0.0071
2887.00,0.0070
2884.00,0.0069
2881.00,0.0069
2878.00,0.0070
2875.00,0.0069
2872.00,0.0068
2869.00,0.0067
2866.00,0.0068
2863.00,0.0070
2860.00,0.0072
2857.00,0.0069
2854.00,0.0065
2851.00,0.0060
2848.00,0.0054
2845.00,0.0049
2842.00,0.0044
2839.00,0.0040
2836.00,0.0038
2833.00,0.0036
2830.00,0.0034
2827.00,0.0032
2824.00,0.0030
2821.00,0.0028
2818.00,0.0027
2815.00,0.0026
2812.00,0.0025
2809.00,0.0024
2806.00,0.0024
2803.00,0.0023
2800.00,0.0022
2797.00,0.0022
2794.00,0.0021
2791.00,0.0021
2788.00,0.0021
2785.00,0.0020
2782.00,0.0020
2779.00,0.0020
2776.00,0.0019
2773.00,0.0019
2770.00,0.0019
2767.00,0.0019
2764.00,0.0018
2761.00,0.0018
2758.00,0.0018
2755.00,0.0018
2752.00,0.0018
2749.00,0.0018
2746.00,0.0018
2743.00,0.0018
2740.00,0.0019
2737.00,0.0019
2734.00,0.0019
2731.00,0.0019
2728.00,0.0019
2725.00,0.0018
2722.00,0.0018
2719.00,0.0018
2716.00,0.0018
2713.00,0.0017
2710.00,0.0017
2707.00,0.0017
2704.00,0.0017
2701.00,0.0017
2698.00,0.0017
2695.00,0.0016
2692.00,0.0017
2689.00,0.0016
2686.00,0.0016
2683.00,0.0016
2680.00,0.0016
2677.00,0.0016
2674.00,0.0016
2671.00,0.0016
2668.00,0.0016
2665.00,0.0018
2662.00,0.0019
2659.00,0.0020
2656.00,0.0021
2653.00,0.0021
2650.00,0.0021
2647.00,0.0021
2644.00,0.0021
2641.00,0.0020
2638.00,0.0020
2635.00,0.0020
2632.00,0.0020
2629.00,0.0019
2626.00,0.0019
2623.00,0.0019
2620.00,0.0019
2617.00,0.0019
2614.00,0.0018
2611.00,0.0018
2608.00,0.0018
2605.00,0.0017
2602.00,0.0018
2599.00,0.0018
2596.00,0.0017
2593.00,0.0017
2590.00,0.0017
2587.00,0.0017
2584.00,0.0017
2581.00,0.0017
2578.00,0.0017
2575.00,0.0017
2572.00,0.0016
2569.00,0.0016
2566.00,0.0016
2563.00,0.0016
2560.00,0.0015
2557.00,0.0015
2554.00,0.0015
2551.00,0.0015
2548.00,0.0015
2545.00,0.0014
2542.00,0.0013
2539.00,0.0013
2536.00,0.0014
2533.00,0.0013
2530.00,0.0012
2527.00,0.0013
2524.00,0.0013
2521.00,0.0012
2518.00,0.0012
2515.00,0.0012
2512.00,0.0012
2509.00,0.0011
2506.00,0.0011
2503.00,0.0011
2500.00,0.0011
2497.00,0.0012
2494.00,0.0012
2491.00,0.0012
2488.00,0.0012
2485.00,0.0011
2482.00,0.0011
2479.00,0.0011
2476.00,0.0011
2473.00,0.0011
2470.00,0.0011
2467.00,0.0011
2464.00,0.0012
2461.00,0.0012
2458.00,0.0013
2455.00,0.0012
2452.00,0.0012
2449.00,0.0012
2446.00,0.0011
2443.00,0.0011
2440.00,0.0011
2437.00,0.0011
2434.00,0.0011
2431.00,0.0011
2428.00,0.0011
2425.00,0.0010
2422.00,0.0010
2419.00,0.0011
2416.00,0.0010
2413.00,0.0010
2410.00,0.0011
2407.00,0.0010
2404.00,0.0009
2401.00,0.0009
2398.00,0.0009
2395.00,0.0009
2392.00,0.0009
2389.00,0.0008
2386.00,0.0007
2383.00,0.0006
2380.00,0.0006
2377.00,0.0006
2374.00,0.0006
2371.00,0.0005
2368.00,0.0005
2365.00,0.0006
2362.00,0.0007
2359.00,0.0008
2356.00,0.0008
2353.00,0.0006
2350.00,0.0007
2347.00,0.0009
2344.00,0.0010
2341.00,0.0010
2338.00,0.0012
2335.00,0.0011
2332.00,0.0011
2329.00,0.0014
2326.00,0.0024
2323.00,0.0022
2320.00,0.0018
2317.00,0.0017
2314.00,0.0015
2311.00,0.0015
2308.00,0.0015
2305.00,0.0015
2302.00,0.0016
2299.00,0.0017
2296.00,0.0019
2293.00,0.0022
2290.00,0.0023
2287.00,0.0024
2284.00,0.0023
2281.00,0.0020
2278.00,0.0019
2275.00,0.0019
2272.00,0.0019
2269.00,0.0017
2266.00,0.0015
2263.00,0.0016
2260.00,0.0017
2257.00,0.0015
2254.00,0.0014
2251.00,0.0015
2248.00,0.0017
2245.00,0.0016
2242.00,0.0016
2239.00,0.0016
2236.00,0.0015
2233.00,0.0015
2230.00,0.0016
2227.00,0.0016
2224.00,0.0014
2221.00,0.0016
2218.00,0.0017
2215.00,0.0016
2212.00,0.0016
2209.00,0.0015
2206.00,0.0016
2203.00,0.0017
2200.00,0.0017
2197.00,0.0017
2194.00,0.0020
2191.00,0.0021
2188.00,0.0021
2185.00,0.0018
2182.00,0.0015
2179.00,0.0014
2176.00,0.0011
2173.00,0.0016
2170.00,0.0023
2167.00,0.0025
2164.00,0.0030
2161.00,0.0012
2158.00,-0.0019
2155.00,-0.0010
2152.00,-0.0002
2149.00,-0.0000
2146.00,-0.0001
2143.00,-0.0002
2140.00,-0.0000
2137.00,-0.0002
2134.00,-0.0005
2131.00,-0.0001
2128.00,0.0002
2125.00,0.0005
2122.00,0.0008
2119.00,0.0012
2116.00,0.0017
2113.00,0.0016
2110.00,0.0014
2107.00,0.0012
2104.00,0.0014
2101.00,0.0014
2098.00,0.0012
2095.00,0.0006
2092.00,0.0010
2089.00,0.0013
2086.00,0.0015
2083.00,0.0018
2080.00,0.0017
2077.00,0.0016
2074.00,0.0014
2071.00,0.0014
2068.00,0.0011
2065.00,0.0012
2062.00,0.0012
2059.00,0.0011
2056.00,0.0011
2053.00,0.0020
2050.00,0.0022
2047.00,0.0012
2044.00,0.0014
2041.00,0.0014
2038.00,0.0015
2035.00,0.0012
2032.00,0.0006
2029.00,0.0004
2026.00,0.0004
2023.00,0.0007
2020.00,0.0003
2017.00,0.0006
2014.00,0.0007
2011.00,0.0009
2008.00,0.0002
2005.00,-0.0002
2002.00,0.0001
1999.00,0.0007
1996.00,0.0009
1993.00,0.0008
1990.00,0.0010
1987.00,0.0013
1984.00,0.0017
1981.00,0.0023
1978.00,0.0008
1975.00,0.0003
1972.00,0.0001
1969.00,-0.0002
1966.00,0.0001
1963.00,-0.0001
1960.00,-0.0005
1957.00,-0.0003
1954.00,0.0000
1951.00,-0.0001
1948.00,0.0001
1945.00,0.0001
1942.00,0.0001
1939.00,0.0001
1936.00,-0.0000
1933.00,-0.0000
1930.00,0.0000
1927.00,0.0002
1924.00,0.0002
1921.00,0.0005
1918.00,0.0005
1915.00,0.0005
1912.00,0.0005
1909.00,0.0006
1906.00,0.0005
1903.00,0.0005
1900.00,0.0005
1897.00,0.0005
1894.00,0.0005
1891.00,0.0004
1888.00,0.0004
1885.00,0.0004
1882.00,0.0005
1879.00,0.0005
1876.00,0.0005
1873.00,0.0005
1870.00,0.0005
1867.00,0.0005
1864.00,0.0005
1861.00,0.0005
1858.00,0.0005
1855.00,0.0006
1852.00,0.0006
1849.00,0.0005
1846.00,0.0005
1843.00,0.0004
1840.00,0.0005
1837.00,0.0005
1834.00,0.0005
1831.00,0.0005
1828.00,0.0005
1825.00,0.0006
1822.00,0.0006
1819.00,0.0003
1816.00,0.0003
1813.00,0.0005
1810.00,0.0006
1807.00,0.0006
1804.00,0.0006
1801.00,0.0007
1798.00,0.0007
1795.00,0.0006
1792.00,0.0006
1789.00,0.0007
1786.00,0.0008
1783.00,0.0008
1780.00,0.0008
1777.00,0.0008
1774.00,0.0008
1771.00,0.0008
1768.00,0.0008
1765.00,0.0009
1762.00,0.0010
1759.00,0.0009
1756.00,0.0010
1753.00,0.0010
1750.00,0.0010
1747.00,0.0010
1744.00,0.0011
1741.00,0.0011
1738.00,0.0012
1735.00,0.0012
1732.00,0.0013
1729.00,0.0015
1726.00,0.0017
1723.00,0.0019
1720.00,0.0020
1717.00,0.0021
1714.00,0.0023
1711.00,0.0029
1708.00,0.0033
1705.00,0.0037
1702.00,0.0045
1699.00,0.0058
1696.00,0.0077
1693.00,0.0099
1690.00,0.0131
1687.00,0.0168
1684.00,0.0202
1681.00,0.0237
1678.00,0.0285
1675.00,0.0323
1672.00,0.0361
1669.00,0.0393
1666.00,0.0431
1663.00,0.0479
1660.00,0.0505
1657.00,0.0559
1654.00,0.0612
1651.00,0.0548
1648.00,0.0608
1645.00,0.0561
1642.00,0.0567
1639.00,0.0562
1636.00,0.0524
1633.00,0.0452
1630.00,0.0448
1627.00,0.0417
1624.00,0.0389
1621.00,0.0346
1618.00,0.0326
1615.00,0.0273
1612.00,0.0258
1609.00,0.0234
1606.00,0.0204
1603.00,0.0176
1600.00,0.0153
1597.00,0.0138
1594.00,0.0131
1591.00,0.0132
1588.00,0.0134
1585.00,0.0130
1582.00,0.0122
1579.00,0.0114
1576.00,0.0103
1573.00,0.0093
1570.00,0.0089
1567.00,0.0082
1564.00,0.0076
1561.00,0.0069
1558.00,0.0058
1555.00,0.0057
1552.00,0.0056
1549.00,0.0054
1546.00,0.0052
1543.00,0.0049
1540.00,0.0046
1537.00,0.0045
1534.00,0.0045
1531.00,0.0044
1528.00,0.0045
1525.00,0.0045
1522.00,0.0046
1519.00,0.0047
1516.00,0.0049
1513.00,0.0053
1510.00,0.0056
1507.00,0.0063
1504.00,0.0079
1501.00,0.0104
1498.00,0.0134
1495.00,0.0143
1492.00,0.0140
1489.00,0.0116
1486.00,0.0094
1483.00,0.0081
1480.00,0.0075
1477.00,0.0078
1474.00,0.0091
1471.00,0.0124
1468.00,0.0173
1465.00,0.0224
1462.00,0.0253
1459.00,0.0261
1456.00,0.0203
1453.00,0.0184
1450.00,0.0189
1447.00,0.0211
1444.00,0.0250
1441.00,0.0289
1438.00,0.0316
1435.00,0.0307
1432.00,0.0311
1429.00,0.0313
1426.00,0.0341
1423.00,0.0366
1420.00,0.0359
1417.00,0.0283
1414.00,0.0230
1411.00,0.0186
1408.00,0.0161
1405.00,0.0150
1402.00,0.0143
1399.00,0.0136
1396.00,0.0125
1393.00,0.0115
1390.00,0.0115
1387.00,0.0122
1384.00,0.0127
1381.00,0.0135
1378.00,0.0144
1375.00,0.0150
1372.00,0.0146
1369.00,0.0146
1366.00,0.0145
1363.00,0.0139
1360.00,0.0134
1357.00,0.0123
1354.00,0.0110
1351.00,0.0105
1348.00,0.0103
1345.00,0.0099
1342.00,0.0094
1339.00,0.0090
1336.00,0.0094
1333.00,0.0103
1330.00,0.0111
1327.00,0.0121
1324.00,0.0136
1321.00,0.0153
1318.00,0.0162
1315.00,0.0160
1312.00,0.0152
1309.00,0.0149
1306.00,0.0155
1303.00,0.0175
1300.00,0.0203
1297.00,0.0253
1294.00,0.0324
1291.00,0.0388
1288.00,0.0428
1285.00,0.0434
1282.00,0.0408
1279.00,0.0383
1276.00,0.0380
1273.00,0.0380
1270.00,0.0364
1267.00,0.0330
1264.00,0.0288
1261.00,0.0248
1258.00,0.0216
1255.00,0.0193
1252.00,0.0179
1249.00,0.0175
1246.00,0.0178
1243.00,0.0181
1240.00,0.0187
1237.00,0.0200
1234.00,0.0208
1231.00,0.0208
1228.00,0.0206
1225.00,0.0203
1222.00,0.0202
1219.00,0.0204
1216.00,0.0207
1213.00,0.0201
1210.00,0.0186
1207.00,0.0174
1204.00,0.0168
1201.00,0.0170
1198.00,0.0175
1195.00,0.0175
1192.00,0.0163
1189.00,0.0148
1186.00,0.0138
1183.00,0.0133
1180.00,0.0132
1177.00,0.0136
1174.00,0.0140
1171.00,0.0143
1168.00,0.0144
1165.00,0.0141
1162.00,0.0139
1159.00,0.0142
1156.00,0.0150
1153.00,0.0145
1150.00,0.0126
1147.00,0.0112
1144.00,0.0105
1141.00,0.0100
1138.00,0.0100
1135.00,0.0108
1132.00,0.0128
1129.00,0.0141
1126.00,0.0133
1123.00,0.0120
1120.00,0.0111
1117.00,0.0109
1114.00,0.0108
1111.00,0.0105
1108.00,0.0104
1105.00,0.0109
1102.00,0.0121
1099.00,0.0124
1096.00,0.0114
1093.00,0.0104
1090.00,0.0098
1087.00,0.0096
1084.00,0.0096
1081.00,0.0096
1078.00,0.0098
1075.00,0.0100
1072.00,0.0102
1069.00,0.0102
1066.00,0.0106
1063.00,0.0112
1060.00,0.0124
1057.00,0.0140
1054.00,0.0153
1051.00,0.0162
1048.00,0.0160
1045.00,0.0143
1042.00,0.0127
1039.00,0.0122
1036.00,0.0126
1033.00,0.0129
1030.00,0.0142
1027.00,0.0161
1024.00,0.0159
1021.00,0.0147
1018.00,0.0137
1015.00,0.0125
1012.00,0.0115
1009.00,0.0118
1006.00,0.0128
1003.00,0.0131
1000.00,0.0125
997.00,0.0116
994.00,0.0109
991.00,0.0101
988.00,0.0093
985.00,0.0088
982.00,0.0085
979.00,0.0082
976.00,0.0081
973.00,0.0079
970.00,0.0077
967.00,0.0077
964.00,0.0079
961.00,0.0080
958.00,0.0076
955.00,0.0071
952.00,0.0066
949.00,0.0065
946.00,0.0065
943.00,0.0069
940.00,0.0079
937.00,0.0088
934.00,0.0094
931.00,0.0092
928.00,0.0089
925.00,0.0090
922.00,0.0088
919.00,0.0081
916.00,0.0076
913.00,0.0075
910.00,0.0076
907.00,0.0080
904.00,0.0088
901.00,0.0097
898.00,0.0096
895.00,0.0091
892.00,0.0092
889.00,0.0094
886.00,0.0084
883.00,0.0079
880.00,0.0082
877.00,0.0092
874.00,0.0108
871.00,0.0123
868.00,0.0116
865.00,0.0109
862.00,0.0105
859.00,0.0109
856.00,0.0124
853.00,0.0138
850.00,0.0158
847.00,0.0159
844.00,0.0149
841.00,0.0148
838.00,0.0154
835.00,0.0161
832.00,0.0150
829.00,0.0132
826.00,0.0122
823.00,0.0128
820.00,0.0150
817.00,0.0170
814.00,0.0144
811.00,0.0111
808.00,0.0103
805.00,0.0102
802.00,0.0102
799.00,0.0102
796.00,0.0105
793.00,0.0106
790.00,0.0107
787.00,0.0110
784.00,0.0113
781.00,0.0117
778.00,0.0123
775.00,0.0130
772.00,0.0132
769.00,0.0134
766.00,0.0138
763.00,0.0146
760.00,0.0155
757.00,0.0161
754.00,0.0166
751.00,0.0172
748.00,0.0180
745.00,0.0188
742.00,0.0199
739.00,0.0215
736.00,0.0233
733.00,0.0235
730.00,0.0241
727.00,0.0233
724.00,0.0214
721.00,0.0206
718.00,0.0208
715.00,0.0213
712.00,0.0211
709.00,0.0208
706.00,0.0210
703.00,0.0215
700.00,0.0221
697.00,0.0224
694.00,0.0223
691.00,0.0231
688.00,0.0240
685.00,0.0242
682.00,0.0248
679.00,0.0254
676.00,0.0264
673.00,0.0275
670.00,0.0286
667.00,0.0285
664.00,0.0298
661.00,0.0314
658.00,0.0321
655.00,0.0332
652.00,0.0344
649.00,0.0351
646.00,0.0353
643.00,0.0351
640.00,0.0345
637.00,0.0340
634.00,0.0334
631.00,0.0330
628.00,0.0329
625.00,0.0330
622.00,0.0335
619.00,0.0335
616.00,0.0330
613.00,0.0325
610.00,0.0324
607.00,0.0336
604.00,0.0348
601.00,0.0358
598.00,0.0364
595.00,0.0364
592.00,0.0365
589.00,0.0368
586.00,0.0374
583.00,0.0383
580.00,0.0400
577.00,0.0423
574.00,0.0424
571.00,0.0414
568.00,0.0409
565.00,0.0412
562.00,0.0420
559.00,0.0417
556.00,0.0407
553.00,0.0401
550.00,0.0404
547.00,0.0408
544.00,0.0403
541.00,0.0398
538.00,0.0392
535.00,0.0394
532.00,0.0402
529.00,0.0401
526.00,0.0392
523.00,0.0385
520.00,0.0386
517.00,0.0383
514.00,0.0383
511.00,0.0384
508.00,0.0385
505.00,0.0386
502.00,0.0384
499.00,0.0382
496.00,0.0383
493.00,0.0386
490.00,0.0386
487.00,0.0387
484.00,0.0387
481.00,0.0389
478.00,0.0392
475.00,0.0389
472.00,0.0387
469.00,0.0391
466.00,0.0387
463.00,0.0389
460.00,0.0396
457.00,0.0389
454.00,0.0378
451.00,0.0368
448.00,0.0373
445.00,0.0375
442.00,0.0367
439.00,0.0357
436.00,0.0355
433.00,0.0345
430.00,0.0353
427.00,0.0344
424.00,0.0332
421.00,0.0341
418.00,0.0345
415.00,0.0334
412.00,0.0342
409.00,0.0355
406.00,0.0331
403.00,0.0330
400.00,0.0352