File: FTIR/Olivia/2025_06_12_Polystyrene_Std_scan3.csv
Created as New Dataset,Sample 673 By YargerLab Date Thursday, June 12 2025
cm-1,A
4000.00,0.0029
3997.00,0.0029
3994.00,0.0029
3991.00,0.0028
3988.00,0.0028
3985.00,0.0028
3982.00,0.0028
3979.00,0.0029
3976.00,0.0029
3973.00,0.0028
3970.00,0.0028
3967.00,0.0028
3964.00,0.0028
3961.00,0.0029
3958.00,0.0028
3955.00,0.0028
3952.00,0.0028
3949.00,0.0028
3946.00,0.0027
3943.00,0.0027
3940.00,0.0028
3937.00,0.0028
3934.00,0.0027
3931.00,0.0028
3928.00,0.0028
3925.00,0.0027
3922.00,0.0027
3919.00,0.0027
3916.00,0.0027
3913.00,0.0027
3910.00,0.0027
3907.00,0.0027
3904.00,0.0026
3901.00,0.0026
3898.00,0.0026
3895.00,0.0027
3892.00,0.0027
3889.00,0.0026
3886.00,0.0026
3883.00,0.0026
3880.00,0.0027
3877.00,0.0026
3874.00,0.0026
3871.00,0.0026
3868.00,0.0026
3865.00,0.0026
3862.00,0.0026
3859.00,0.0026
3856.00,0.0026
3853.00,0.0025
3850.00,0.0025
3847.00,0.0026
3844.00,0.0026
3841.00,0.0026
3838.00,0.0026
3835.00,0.0025
3832.00,0.0026
3829.00,0.0027
3826.00,0.0027
3823.00,0.0026
3820.00,0.0026
3817.00,0.0026
3814.00,0.0027
3811.00,0.0027
3808.00,0.0027
3805.00,0.0027
3802.00,0.0027
3799.00,0.0026
3796.00,0.0027
3793.00,0.0027
3790.00,0.0027
3787.00,0.0027
3784.00,0.0027
3781.00,0.0027
3778.00,0.0027
3775.00,0.0027
3772.00,0.0027
3769.00,0.0026
3766.00,0.0027
3763.00,0.0027
3760.00,0.0027
3757.00,0.0027
3754.00,0.0026
3751.00,0.0025
3748.00,0.0024
3745.00,0.0024
3742.00,0.0025
3739.00,0.0025
3736.00,0.0024
3733.00,0.0024
3730.00,0.0025
3727.00,0.0026
3724.00,0.0026
3721.00,0.0026
3718.00,0.0026
3715.00,0.0026
3712.00,0.0025
3709.00,0.0025
3706.00,0.0025
3703.00,0.0026
3700.00,0.0026
3697.00,0.0026
3694.00,0.0026
3691.00,0.0025
3688.00,0.0024
3685.00,0.0024
3682.00,0.0024
3679.00,0.0021
3676.00,0.0019
3673.00,0.0017
3670.00,0.0018
3667.00,0.0017
3664.00,0.0018
3661.00,0.0018
3658.00,0.0017
3655.00,0.0018
3652.00,0.0018
3649.00,0.0018
3646.00,0.0019
3643.00,0.0020
3640.00,0.0021
3637.00,0.0020
3634.00,0.0022
3631.00,0.0023
3628.00,0.0023
3625.00,0.0024
3622.00,0.0025
3619.00,0.0025
3616.00,0.0025
3613.00,0.0025
3610.00,0.0025
3607.00,0.0026
3604.00,0.0027
3601.00,0.0027
3598.00,0.0027
3595.00,0.0027
3592.00,0.0028
3589.00,0.0027
3586.00,0.0027
3583.00,0.0028
3580.00,0.0028
3577.00,0.0028
3574.00,0.0028
3571.00,0.0028
3568.00,0.0027
3565.00,0.0027
3562.00,0.0027
3559.00,0.0027
3556.00,0.0027
3553.00,0.0027
3550.00,0.0027
3547.00,0.0028
3544.00,0.0028
3541.00,0.0029
3538.00,0.0029
3535.00,0.0029
3532.00,0.0029
3529.00,0.0029
3526.00,0.0029
3523.00,0.0029
3520.00,0.0029
3517.00,0.0030
3514.00,0.0030
3511.00,0.0030
3508.00,0.0030
3505.00,0.0030
3502.00,0.0030
3499.00,0.0030
3496.00,0.0030
3493.00,0.0031
3490.00,0.0031
3487.00,0.0030
3484.00,0.0030
3481.00,0.0031
3478.00,0.0031
3475.00,0.0031
3472.00,0.0031
3469.00,0.0031
3466.00,0.0031
3463.00,0.0031
3460.00,0.0032
3457.00,0.0032
3454.00,0.0031
3451.00,0.0032
3448.00,0.0032
3445.00,0.0031
3442.00,0.0032
3439.00,0.0032
3436.00,0.0032
3433.00,0.0031
3430.00,0.0032
3427.00,0.0031
3424.00,0.0031
3421.00,0.0031
3418.00,0.0032
3415.00,0.0031
3412.00,0.0031
3409.00,0.0031
3406.00,0.0031
3403.00,0.0031
3400.00,0.0032
3397.00,0.0032
3394.00,0.0032
3391.00,0.0032
3388.00,0.0031
3385.00,0.0031
3382.00,0.0031
3379.00,0.0031
3376.00,0.0031
3373.00,0.0031
3370.00,0.0031
3367.00,0.0031
3364.00,0.0031
3361.00,0.0031
3358.00,0.0030
3355.00,0.0031
3352.00,0.0031
3349.00,0.0031
3346.00,0.0031
3343.00,0.0031
3340.00,0.0030
3337.00,0.0030
3334.00,0.0030
3331.00,0.0030
3328.00,0.0030
3325.00,0.0030
3322.00,0.0030
3319.00,0.0030
3316.00,0.0030
3313.00,0.0030
3310.00,0.0030
3307.00,0.0031
3304.00,0.0030
3301.00,0.0030
3298.00,0.0030
3295.00,0.0030
3292.00,0.0030
3289.00,0.0030
3286.00,0.0030
3283.00,0.0030
3280.00,0.0029
3277.00,0.0030
3274.00,0.0030
3271.00,0.0029
3268.00,0.0029
3265.00,0.0029
3262.00,0.0029
3259.00,0.0029
3256.00,0.0029
3253.00,0.0029
3250.00,0.0029
3247.00,0.0029
3244.00,0.0029
3241.00,0.0028
3238.00,0.0028
3235.00,0.0028
3232.00,0.0028
3229.00,0.0028
3226.00,0.0028
3223.00,0.0028
3220.00,0.0028
3217.00,0.0028
3214.00,0.0028
3211.00,0.0029
3208.00,0.0028
3205.00,0.0029
3202.00,0.0030
3199.00,0.0029
3196.00,0.0029
3193.00,0.0028
3190.00,0.0028
3187.00,0.0028
3184.00,0.0028
3181.00,0.0028
3178.00,0.0028
3175.00,0.0028
3172.00,0.0028
3169.00,0.0029
3166.00,0.0030
3163.00,0.0030
3160.00,0.0030
3157.00,0.0030
3154.00,0.0029
3151.00,0.0028
3148.00,0.0027
3145.00,0.0028
3142.00,0.0028
3139.00,0.0028
3136.00,0.0028
3133.00,0.0028
3130.00,0.0029
3127.00,0.0029
3124.00,0.0030
3121.00,0.0031
3118.00,0.0034
3115.00,0.0037
3112.00,0.0043
3109.00,0.0052
3106.00,0.0062
3103.00,0.0066
3100.00,0.0063
3097.00,0.0061
3094.00,0.0065
3091.00,0.0080
3088.00,0.0108
3085.00,0.0140
3082.00,0.0152
3079.00,0.0137
3076.00,0.0118
3073.00,0.0112
3070.00,0.0122
3067.00,0.0146
3064.00,0.0181
3061.00,0.0206
3058.00,0.0201
3055.00,0.0170
3052.00,0.0139
3049.00,0.0118
3046.00,0.0108
3043.00,0.0111
3040.00,0.0127
3037.00,0.0157
3034.00,0.0209
3031.00,0.0286
3028.00,0.0368
3025.00,0.0397
3022.00,0.0337
3019.00,0.0237
3016.00,0.0159
3013.00,0.0114
3010.00,0.0092
3007.00,0.0086
3004.00,0.0088
3001.00,0.0083
2998.00,0.0062
2995.00,0.0037
2992.00,0.0020
2989.00,0.0012
2986.00,0.0003
2983.00,-0.0017
2980.00,-0.0021
2977.00,-0.0006
2974.00,0.0001
2971.00,0.0004
2968.00,0.0017
2965.00,0.0029
2962.00,0.0041
2959.00,0.0052
2956.00,0.0067
2953.00,0.0084
2950.00,0.0106
2947.00,0.0134
2944.00,0.0167
2941.00,0.0205
2938.00,0.0248
2935.00,0.0297
2932.00,0.0347
2929.00,0.0395
2926.00,0.0432
2923.00,0.0452
2920.00,0.0452
2917.00,0.0437
2914.00,0.0410
2911.00,0.0375
2908.00,0.0338
2905.00,0.0301
2902.00,0.0264
2899.00,0.0228
2896.00,0.0198
2893.00,0.0174
2890.00,0.0156
2887.00,0.0143
2884.00,0.0132
2881.00,0.0124
2878.00,0.0118
2875.00,0.0111
2872.00,0.0106
2869.00,0.0105
2866.00,0.0110
2863.00,0.0121
2860.00,0.0140
2857.00,0.0162
2854.00,0.0184
2851.00,0.0201
2848.00,0.0204
2845.00,0.0189
2842.00,0.0158
2839.00,0.0122
2836.00,0.0093
2833.00,0.0073
2830.00,0.0063
2827.00,0.0057
2824.00,0.0054
2821.00,0.0051
2818.00,0.0050
2815.00,0.0049
2812.00,0.0048
2809.00,0.0047
2806.00,0.0046
2803.00,0.0045
2800.00,0.0044
2797.00,0.0043
2794.00,0.0042
2791.00,0.0042
2788.00,0.0041
2785.00,0.0041
2782.00,0.0040
2779.00,0.0040
2776.00,0.0040
2773.00,0.0039
2770.00,0.0038
2767.00,0.0038
2764.00,0.0037
2761.00,0.0037
2758.00,0.0037
2755.00,0.0036
2752.00,0.0036
2749.00,0.0036
2746.00,0.0036
2743.00,0.0036
2740.00,0.0035
2737.00,0.0035
2734.00,0.0035
2731.00,0.0036
2728.00,0.0036
2725.00,0.0036
2722.00,0.0036
2719.00,0.0036
2716.00,0.0036
2713.00,0.0036
2710.00,0.0036
2707.00,0.0036
2704.00,0.0036
2701.00,0.0036
2698.00,0.0036
2695.00,0.0036
2692.00,0.0036
2689.00,0.0036
2686.00,0.0036
2683.00,0.0036
2680.00,0.0035
2677.00,0.0036
2674.00,0.0035
2671.00,0.0035
2668.00,0.0035
2665.00,0.0037
2662.00,0.0038
2659.00,0.0039
2656.00,0.0040
2653.00,0.0040
2650.00,0.0040
2647.00,0.0040
2644.00,0.0040
2641.00,0.0040
2638.00,0.0041
2635.00,0.0041
2632.00,0.0041
2629.00,0.0041
2626.00,0.0040
2623.00,0.0039
2620.00,0.0038
2617.00,0.0038
2614.00,0.0038
2611.00,0.0038
2608.00,0.0038
2605.00,0.0039
2602.00,0.0039
2599.00,0.0038
2596.00,0.0036
2593.00,0.0036
2590.00,0.0035
2587.00,0.0035
2584.00,0.0036
2581.00,0.0035
2578.00,0.0035
2575.00,0.0034
2572.00,0.0033
2569.00,0.0033
2566.00,0.0033
2563.00,0.0032
2560.00,0.0032
2557.00,0.0032
2554.00,0.0032
2551.00,0.0032
2548.00,0.0032
2545.00,0.0032
2542.00,0.0032
2539.00,0.0032
2536.00,0.0031
2533.00,0.0030
2530.00,0.0030
2527.00,0.0031
2524.00,0.0031
2521.00,0.0030
2518.00,0.0030
2515.00,0.0031
2512.00,0.0031
2509.00,0.0031
2506.00,0.0031
2503.00,0.0030
2500.00,0.0030
2497.00,0.0029
2494.00,0.0029
2491.00,0.0029
2488.00,0.0029
2485.00,0.0029
2482.00,0.0028
2479.00,0.0028
2476.00,0.0028
2473.00,0.0027
2470.00,0.0028
2467.00,0.0028
2464.00,0.0027
2461.00,0.0028
2458.00,0.0028
2455.00,0.0028
2452.00,0.0028
2449.00,0.0028
2446.00,0.0027
2443.00,0.0027
2440.00,0.0027
2437.00,0.0026
2434.00,0.0026
2431.00,0.0025
2428.00,0.0026
2425.00,0.0026
2422.00,0.0025
2419.00,0.0024
2416.00,0.0024
2413.00,0.0025
2410.00,0.0024
2407.00,0.0022
2404.00,0.0023
2401.00,0.0023
2398.00,0.0023
2395.00,0.0023
2392.00,0.0022
2389.00,0.0023
2386.00,0.0023
2383.00,0.0023
2380.00,0.0023
2377.00,0.0023
2374.00,0.0024
2371.00,0.0023
2368.00,0.0023
2365.00,0.0024
2362.00,0.0026
2359.00,0.0027
2356.00,0.0028
2353.00,0.0028
2350.00,0.0029
2347.00,0.0030
2344.00,0.0031
2341.00,0.0033
2338.00,0.0035
2335.00,0.0034
2332.00,0.0032
2329.00,0.0033
2326.00,0.0044
2323.00,0.0043
2320.00,0.0039
2317.00,0.0038
2314.00,0.0037
2311.00,0.0037
2308.00,0.0035
2305.00,0.0033
2302.00,0.0033
2299.00,0.0034
2296.00,0.0035
2293.00,0.0037
2290.00,0.0039
2287.00,0.0039
2284.00,0.0037
2281.00,0.0035
2278.00,0.0033
2275.00,0.0032
2272.00,0.0031
2269.00,0.0030
2266.00,0.0028
2263.00,0.0029
2260.00,0.0031
2257.00,0.0029
2254.00,0.0026
2251.00,0.0026
2248.00,0.0026
2245.00,0.0027
2242.00,0.0028
2239.00,0.0026
2236.00,0.0025
2233.00,0.0026
2230.00,0.0026
2227.00,0.0026
2224.00,0.0024
2221.00,0.0026
2218.00,0.0027
2215.00,0.0026
2212.00,0.0025
2209.00,0.0026
2206.00,0.0024
2203.00,0.0024
2200.00,0.0023
2197.00,0.0024
2194.00,0.0026
2191.00,0.0026
2188.00,0.0027
2185.00,0.0024
2182.00,0.0021
2179.00,0.0021
2176.00,0.0017
2173.00,0.0022
2170.00,0.0030
2167.00,0.0033
2164.00,0.0035
2161.00,0.0020
2158.00,-0.0015
2155.00,-0.0005
2152.00,0.0003
2149.00,0.0004
2146.00,0.0004
2143.00,0.0003
2140.00,0.0004
2137.00,0.0000
2134.00,-0.0004
2131.00,0.0003
2128.00,0.0008
2125.00,0.0012
2122.00,0.0013
2119.00,0.0017
2116.00,0.0020
2113.00,0.0022
2110.00,0.0022
2107.00,0.0019
2104.00,0.0020
2101.00,0.0019
2098.00,0.0015
2095.00,0.0013
2092.00,0.0016
2089.00,0.0018
2086.00,0.0020
2083.00,0.0020
2080.00,0.0021
2077.00,0.0021
2074.00,0.0022
2071.00,0.0019
2068.00,0.0018
2065.00,0.0016
2062.00,0.0015
2059.00,0.0015
2056.00,0.0016
2053.00,0.0023
2050.00,0.0023
2047.00,0.0015
2044.00,0.0017
2041.00,0.0019
2038.00,0.0018
2035.00,0.0013
2032.00,0.0012
2029.00,0.0013
2026.00,0.0014
2023.00,0.0009
2020.00,0.0006
2017.00,0.0008
2014.00,0.0012
2011.00,0.0014
2008.00,0.0008
2005.00,0.0003
2002.00,0.0009
1999.00,0.0015
1996.00,0.0019
1993.00,0.0022
1990.00,0.0022
1987.00,0.0025
1984.00,0.0028
1981.00,0.0036
1978.00,0.0022
1975.00,0.0015
1972.00,0.0016
1969.00,0.0019
1966.00,0.0025
1963.00,0.0030
1960.00,0.0031
1957.00,0.0035
1954.00,0.0041
1951.00,0.0048
1948.00,0.0055
1945.00,0.0061
1942.00,0.0061
1939.00,0.0056
1936.00,0.0049
1933.00,0.0040
1930.00,0.0032
1927.00,0.0028
1924.00,0.0026
1921.00,0.0024
1918.00,0.0022
1915.00,0.0021
1912.00,0.0020
1909.00,0.0021
1906.00,0.0021
1903.00,0.0022
1900.00,0.0025
1897.00,0.0028
1894.00,0.0032
1891.00,0.0037
1888.00,0.0042
1885.00,0.0046
1882.00,0.0049
1879.00,0.0052
1876.00,0.0055
1873.00,0.0057
1870.00,0.0059
1867.00,0.0057
1864.00,0.0052
1861.00,0.0045
1858.00,0.0038
1855.00,0.0032
1852.00,0.0027
1849.00,0.0025
1846.00,0.0023
1843.00,0.0022
1840.00,0.0023
1837.00,0.0023
1834.00,0.0024
1831.00,0.0026
1828.00,0.0030
1825.00,0.0033
1822.00,0.0037
1819.00,0.0040
1816.00,0.0043
1813.00,0.0050
1810.00,0.0056
1807.00,0.0061
1804.00,0.0065
1801.00,0.0065
1798.00,0.0061
1795.00,0.0055
1792.00,0.0047
1789.00,0.0039
1786.00,0.0036
1783.00,0.0034
1780.00,0.0034
1777.00,0.0034
1774.00,0.0035
1771.00,0.0034
1768.00,0.0034
1765.00,0.0034
1762.00,0.0037
1759.00,0.0041
1756.00,0.0046
1753.00,0.0051
1750.00,0.0056
1747.00,0.0058
1744.00,0.0060
1741.00,0.0059
1738.00,0.0058
1735.00,0.0058
1732.00,0.0055
1729.00,0.0051
1726.00,0.0049
1723.00,0.0047
1720.00,0.0046
1717.00,0.0045
1714.00,0.0042
1711.00,0.0041
1708.00,0.0041
1705.00,0.0041
1702.00,0.0041
1699.00,0.0041
1696.00,0.0040
1693.00,0.0040
1690.00,0.0042
1687.00,0.0043
1684.00,0.0046
1681.00,0.0047
1678.00,0.0048
1675.00,0.0050
1672.00,0.0051
1669.00,0.0051
1666.00,0.0051
1663.00,0.0050
1660.00,0.0047
1657.00,0.0046
1654.00,0.0044
1651.00,0.0040
1648.00,0.0039
1645.00,0.0037
1642.00,0.0036
1639.00,0.0036
1636.00,0.0035
1633.00,0.0036
1630.00,0.0037
1627.00,0.0039
1624.00,0.0042
1621.00,0.0045
1618.00,0.0049
1615.00,0.0058
1612.00,0.0075
1609.00,0.0122
1606.00,0.0222
1603.00,0.0346
1600.00,0.0366
1597.00,0.0258
1594.00,0.0166
1591.00,0.0123
1588.00,0.0113
1585.00,0.0147
1582.00,0.0151
1579.00,0.0103
1576.00,0.0070
1573.00,0.0056
1570.00,0.0049
1567.00,0.0044
1564.00,0.0042
1561.00,0.0042
1558.00,0.0043
1555.00,0.0046
1552.00,0.0052
1549.00,0.0057
1546.00,0.0063
1543.00,0.0066
1540.00,0.0064
1537.00,0.0060
1534.00,0.0055
1531.00,0.0049
1528.00,0.0047
1525.00,0.0044
1522.00,0.0045
1519.00,0.0045
1516.00,0.0048
1513.00,0.0052
1510.00,0.0058
1507.00,0.0065
1504.00,0.0085
1501.00,0.0131
1498.00,0.0290
1495.00,0.0736
1492.00,0.0931
1489.00,0.0554
1486.00,0.0289
1483.00,0.0176
1480.00,0.0124
1477.00,0.0103
1474.00,0.0092
1471.00,0.0090
1468.00,0.0096
1465.00,0.0105
1462.00,0.0128
1459.00,0.0199
1456.00,0.0542
1453.00,0.0916
1450.00,0.0891
1447.00,0.0671
1444.00,0.0519
1441.00,0.0397
1438.00,0.0309
1435.00,0.0220
1432.00,0.0164
1429.00,0.0125
1426.00,0.0104
1423.00,0.0092
1420.00,0.0087
1417.00,0.0081
1414.00,0.0076
1411.00,0.0072
1408.00,0.0068
1405.00,0.0065
1402.00,0.0061
1399.00,0.0060
1396.00,0.0061
1393.00,0.0068
1390.00,0.0084
1387.00,0.0103
1384.00,0.0121
1381.00,0.0138
1378.00,0.0159
1375.00,0.0177
1372.00,0.0185
1369.00,0.0185
1366.00,0.0183
1363.00,0.0180
1360.00,0.0172
1357.00,0.0164
1354.00,0.0160
1351.00,0.0160
1348.00,0.0159
1345.00,0.0153
1342.00,0.0146
1339.00,0.0141
1336.00,0.0142
1333.00,0.0153
1330.00,0.0165
1327.00,0.0166
1324.00,0.0158
1321.00,0.0153
1318.00,0.0154
1315.00,0.0160
1312.00,0.0163
1309.00,0.0158
1306.00,0.0150
1303.00,0.0141
1300.00,0.0133
1297.00,0.0127
1294.00,0.0124
1291.00,0.0120
1288.00,0.0116
1285.00,0.0113
1282.00,0.0111
1279.00,0.0106
1276.00,0.0098
1273.00,0.0089
1270.00,0.0081
1267.00,0.0074
1264.00,0.0070
1261.00,0.0069
1258.00,0.0069
1255.00,0.0068
1252.00,0.0069
1249.00,0.0071
1246.00,0.0073
1243.00,0.0073
1240.00,0.0072
1237.00,0.0071
1234.00,0.0072
1231.00,0.0073
1228.00,0.0077
1225.00,0.0080
1222.00,0.0081
1219.00,0.0083
1216.00,0.0086
1213.00,0.0090
1210.00,0.0096
1207.00,0.0104
1204.00,0.0114
1201.00,0.0124
1198.00,0.0132
1195.00,0.0135
1192.00,0.0135
1189.00,0.0138
1186.00,0.0152
1183.00,0.0177
1180.00,0.0177
1177.00,0.0140
1174.00,0.0107
1171.00,0.0093
1168.00,0.0088
1165.00,0.0089
1162.00,0.0098
1159.00,0.0126
1156.00,0.0163
1153.00,0.0160
1150.00,0.0115
1147.00,0.0082
1144.00,0.0068
1141.00,0.0060
1138.00,0.0056
1135.00,0.0056
1132.00,0.0059
1129.00,0.0062
1126.00,0.0063
1123.00,0.0065
1120.00,0.0072
1117.00,0.0083
1114.00,0.0092
1111.00,0.0095
1108.00,0.0093
1105.00,0.0091
1102.00,0.0093
1099.00,0.0096
1096.00,0.0100
1093.00,0.0104
1090.00,0.0109
1087.00,0.0118
1084.00,0.0134
1081.00,0.0153
1078.00,0.0172
1075.00,0.0199
1072.00,0.0232
1069.00,0.0252
1066.00,0.0240
1063.00,0.0209
1060.00,0.0181
1057.00,0.0162
1054.00,0.0149
1051.00,0.0139
1048.00,0.0133
1045.00,0.0130
1042.00,0.0131
1039.00,0.0145
1036.00,0.0200
1033.00,0.0319
1030.00,0.0442
1027.00,0.0466
1024.00,0.0376
1021.00,0.0293
1018.00,0.0243
1015.00,0.0211
1012.00,0.0190
1009.00,0.0181
1006.00,0.0188
1003.00,0.0197
1000.00,0.0170
997.00,0.0143
994.00,0.0136
991.00,0.0138
988.00,0.0144
985.00,0.0157
982.00,0.0169
979.00,0.0169
976.00,0.0157
973.00,0.0143
970.00,0.0147
967.00,0.0164
964.00,0.0173
961.00,0.0159
958.00,0.0132
955.00,0.0118
952.00,0.0119
949.00,0.0127
946.00,0.0133
943.00,0.0135
940.00,0.0128
937.00,0.0117
934.00,0.0105
931.00,0.0097
928.00,0.0097
925.00,0.0102
922.00,0.0111
919.00,0.0127
916.00,0.0156
913.00,0.0208
910.00,0.0271
907.00,0.0311
904.00,0.0292
901.00,0.0227
898.00,0.0163
895.00,0.0125
892.00,0.0108
889.00,0.0097
886.00,0.0089
883.00,0.0083
880.00,0.0081
877.00,0.0079
874.00,0.0076
871.00,0.0073
868.00,0.0071
865.00,0.0070
862.00,0.0069
859.00,0.0070
856.00,0.0075
853.00,0.0083
850.00,0.0102
847.00,0.0128
844.00,0.0152
841.00,0.0157
838.00,0.0139
835.00,0.0108
832.00,0.0082
829.00,0.0071
826.00,0.0066
823.00,0.0064
820.00,0.0065
817.00,0.0067
814.00,0.0069
811.00,0.0069
808.00,0.0071
805.00,0.0073
802.00,0.0078
799.00,0.0086
796.00,0.0100
793.00,0.0120
790.00,0.0144
787.00,0.0174
784.00,0.0211
781.00,0.0259
778.00,0.0331
775.00,0.0432
772.00,0.0565
769.00,0.0726
766.00,0.0890
763.00,0.1050
760.00,0.1220
757.00,0.1351
754.00,0.1383
751.00,0.1362
748.00,0.1338
745.00,0.1210
742.00,0.0946
739.00,0.0693
736.00,0.0496
733.00,0.0331
730.00,0.0221
727.00,0.0173
724.00,0.0155
721.00,0.0152
718.00,0.0163
715.00,0.0196
712.00,0.0293
709.00,0.0539
706.00,0.1042
703.00,0.1857
700.00,0.2987
697.00,0.4243
694.00,0.4385
691.00,0.2896
688.00,0.1739
685.00,0.1187
682.00,0.0899
679.00,0.0725
676.00,0.0620
673.00,0.0550
670.00,0.0499
667.00,0.0443
664.00,0.0391
661.00,0.0342
658.00,0.0298
655.00,0.0263
652.00,0.0237
649.00,0.0218
646.00,0.0202
643.00,0.0193
640.00,0.0194
637.00,0.0207
634.00,0.0222
631.00,0.0234
628.00,0.0246
625.00,0.0256
622.00,0.0271
619.00,0.0268
616.00,0.0244
613.00,0.0228
610.00,0.0213
607.00,0.0208
604.00,0.0210
601.00,0.0215
598.00,0.0220
595.00,0.0225
592.00,0.0238
589.00,0.0252
586.00,0.0266
583.00,0.0281
580.00,0.0312
577.00,0.0358
574.00,0.0408
571.00,0.0461
568.00,0.0512
565.00,0.0563
562.00,0.0614
559.00,0.0670
556.00,0.0724
553.00,0.0785
550.00,0.0856
547.00,0.0957
544.00,0.1084
541.00,0.1213
538.00,0.1266
535.00,0.1182
532.00,0.0999
529.00,0.0808
526.00,0.0654
523.00,0.0537
520.00,0.0464
517.00,0.0414
514.00,0.0377
511.00,0.0339
508.00,0.0306
505.00,0.0280
502.00,0.0253
499.00,0.0233
496.00,0.0221
493.00,0.0212
490.00,0.0197
487.00,0.0183
484.00,0.0178
481.00,0.0175
478.00,0.0168
475.00,0.0164
472.00,0.0158
469.00,0.0160
466.00,0.0153
463.00,0.0149
460.00,0.0151
457.00,0.0151
454.00,0.0144
451.00,0.0135
448.00,0.0141
445.00,0.0149
442.00,0.0145
439.00,0.0132
436.00,0.0136
433.00,0.0135
430.00,0.0116
427.00,0.0114
424.00,0.0113
421.00,0.0128
418.00,0.0120
415.00,0.0111
412.00,0.0131
409.00,0.0148
406.00,0.0165
403.00,0.0143
400.00,0.0113