File: FTIR/Olivia/2025_08_15_Polystyrene_film_scan2.csv
Created as New Dataset,Sample 113 By YargerLab Date Friday, August 15 2025
cm-1,A
4000.00,0.0026
3997.00,0.0026
3994.00,0.0026
3991.00,0.0026
3988.00,0.0025
3985.00,0.0025
3982.00,0.0025
3979.00,0.0026
3976.00,0.0025
3973.00,0.0025
3970.00,0.0025
3967.00,0.0025
3964.00,0.0025
3961.00,0.0025
3958.00,0.0025
3955.00,0.0025
3952.00,0.0025
3949.00,0.0025
3946.00,0.0025
3943.00,0.0025
3940.00,0.0025
3937.00,0.0025
3934.00,0.0025
3931.00,0.0025
3928.00,0.0025
3925.00,0.0025
3922.00,0.0025
3919.00,0.0025
3916.00,0.0024
3913.00,0.0025
3910.00,0.0025
3907.00,0.0025
3904.00,0.0025
3901.00,0.0025
3898.00,0.0025
3895.00,0.0025
3892.00,0.0025
3889.00,0.0025
3886.00,0.0024
3883.00,0.0024
3880.00,0.0024
3877.00,0.0024
3874.00,0.0024
3871.00,0.0024
3868.00,0.0024
3865.00,0.0024
3862.00,0.0025
3859.00,0.0024
3856.00,0.0024
3853.00,0.0024
3850.00,0.0024
3847.00,0.0024
3844.00,0.0024
3841.00,0.0023
3838.00,0.0023
3835.00,0.0024
3832.00,0.0024
3829.00,0.0024
3826.00,0.0024
3823.00,0.0024
3820.00,0.0023
3817.00,0.0024
3814.00,0.0024
3811.00,0.0024
3808.00,0.0024
3805.00,0.0024
3802.00,0.0024
3799.00,0.0024
3796.00,0.0024
3793.00,0.0024
3790.00,0.0024
3787.00,0.0023
3784.00,0.0023
3781.00,0.0023
3778.00,0.0024
3775.00,0.0023
3772.00,0.0024
3769.00,0.0024
3766.00,0.0024
3763.00,0.0024
3760.00,0.0023
3757.00,0.0023
3754.00,0.0023
3751.00,0.0023
3748.00,0.0023
3745.00,0.0023
3742.00,0.0023
3739.00,0.0023
3736.00,0.0024
3733.00,0.0024
3730.00,0.0023
3727.00,0.0023
3724.00,0.0023
3721.00,0.0022
3718.00,0.0023
3715.00,0.0023
3712.00,0.0022
3709.00,0.0022
3706.00,0.0023
3703.00,0.0023
3700.00,0.0023
3697.00,0.0022
3694.00,0.0022
3691.00,0.0022
3688.00,0.0023
3685.00,0.0023
3682.00,0.0022
3679.00,0.0022
3676.00,0.0023
3673.00,0.0024
3670.00,0.0023
3667.00,0.0023
3664.00,0.0023
3661.00,0.0023
3658.00,0.0023
3655.00,0.0024
3652.00,0.0024
3649.00,0.0024
3646.00,0.0024
3643.00,0.0025
3640.00,0.0024
3637.00,0.0023
3634.00,0.0024
3631.00,0.0024
3628.00,0.0024
3625.00,0.0024
3622.00,0.0024
3619.00,0.0024
3616.00,0.0025
3613.00,0.0025
3610.00,0.0025
3607.00,0.0025
3604.00,0.0024
3601.00,0.0025
3598.00,0.0026
3595.00,0.0026
3592.00,0.0026
3589.00,0.0026
3586.00,0.0026
3583.00,0.0027
3580.00,0.0026
3577.00,0.0026
3574.00,0.0027
3571.00,0.0027
3568.00,0.0027
3565.00,0.0027
3562.00,0.0027
3559.00,0.0028
3556.00,0.0028
3553.00,0.0028
3550.00,0.0029
3547.00,0.0029
3544.00,0.0029
3541.00,0.0029
3538.00,0.0029
3535.00,0.0030
3532.00,0.0030
3529.00,0.0030
3526.00,0.0030
3523.00,0.0030
3520.00,0.0031
3517.00,0.0031
3514.00,0.0031
3511.00,0.0031
3508.00,0.0032
3505.00,0.0032
3502.00,0.0032
3499.00,0.0032
3496.00,0.0032
3493.00,0.0033
3490.00,0.0034
3487.00,0.0033
3484.00,0.0033
3481.00,0.0033
3478.00,0.0033
3475.00,0.0034
3472.00,0.0034
3469.00,0.0035
3466.00,0.0035
3463.00,0.0034
3460.00,0.0035
3457.00,0.0035
3454.00,0.0035
3451.00,0.0035
3448.00,0.0035
3445.00,0.0035
3442.00,0.0035
3439.00,0.0035
3436.00,0.0035
3433.00,0.0035
3430.00,0.0035
3427.00,0.0035
3424.00,0.0035
3421.00,0.0034
3418.00,0.0035
3415.00,0.0034
3412.00,0.0034
3409.00,0.0035
3406.00,0.0035
3403.00,0.0035
3400.00,0.0035
3397.00,0.0035
3394.00,0.0035
3391.00,0.0035
3388.00,0.0034
3385.00,0.0034
3382.00,0.0034
3379.00,0.0034
3376.00,0.0034
3373.00,0.0034
3370.00,0.0034
3367.00,0.0034
3364.00,0.0034
3361.00,0.0034
3358.00,0.0034
3355.00,0.0033
3352.00,0.0034
3349.00,0.0034
3346.00,0.0034
3343.00,0.0034
3340.00,0.0034
3337.00,0.0034
3334.00,0.0033
3331.00,0.0033
3328.00,0.0033
3325.00,0.0033
3322.00,0.0033
3319.00,0.0032
3316.00,0.0032
3313.00,0.0032
3310.00,0.0032
3307.00,0.0032
3304.00,0.0032
3301.00,0.0032
3298.00,0.0031
3295.00,0.0032
3292.00,0.0032
3289.00,0.0031
3286.00,0.0032
3283.00,0.0031
3280.00,0.0031
3277.00,0.0031
3274.00,0.0031
3271.00,0.0031
3268.00,0.0031
3265.00,0.0031
3262.00,0.0031
3259.00,0.0031
3256.00,0.0030
3253.00,0.0030
3250.00,0.0031
3247.00,0.0031
3244.00,0.0031
3241.00,0.0030
3238.00,0.0030
3235.00,0.0030
3232.00,0.0030
3229.00,0.0030
3226.00,0.0030
3223.00,0.0030
3220.00,0.0029
3217.00,0.0029
3214.00,0.0030
3211.00,0.0030
3208.00,0.0031
3205.00,0.0031
3202.00,0.0031
3199.00,0.0030
3196.00,0.0030
3193.00,0.0030
3190.00,0.0030
3187.00,0.0029
3184.00,0.0029
3181.00,0.0028
3178.00,0.0028
3175.00,0.0028
3172.00,0.0029
3169.00,0.0029
3166.00,0.0029
3163.00,0.0029
3160.00,0.0029
3157.00,0.0028
3154.00,0.0028
3151.00,0.0027
3148.00,0.0027
3145.00,0.0027
3142.00,0.0027
3139.00,0.0026
3136.00,0.0026
3133.00,0.0027
3130.00,0.0027
3127.00,0.0027
3124.00,0.0028
3121.00,0.0028
3118.00,0.0030
3115.00,0.0032
3112.00,0.0036
3109.00,0.0041
3106.00,0.0046
3103.00,0.0048
3100.00,0.0047
3097.00,0.0045
3094.00,0.0048
3091.00,0.0058
3088.00,0.0076
3085.00,0.0094
3082.00,0.0098
3079.00,0.0088
3076.00,0.0078
3073.00,0.0075
3070.00,0.0082
3067.00,0.0098
3064.00,0.0120
3061.00,0.0134
3058.00,0.0127
3055.00,0.0107
3052.00,0.0089
3049.00,0.0077
3046.00,0.0073
3043.00,0.0075
3040.00,0.0086
3037.00,0.0105
3034.00,0.0138
3031.00,0.0187
3028.00,0.0234
3025.00,0.0244
3022.00,0.0202
3019.00,0.0143
3016.00,0.0102
3013.00,0.0080
3010.00,0.0071
3007.00,0.0072
3004.00,0.0078
3001.00,0.0079
2998.00,0.0069
2995.00,0.0058
2992.00,0.0051
2989.00,0.0049
2986.00,0.0049
2983.00,0.0049
2980.00,0.0050
2977.00,0.0052
2974.00,0.0053
2971.00,0.0055
2968.00,0.0059
2965.00,0.0063
2962.00,0.0068
2959.00,0.0075
2956.00,0.0082
2953.00,0.0091
2950.00,0.0102
2947.00,0.0117
2944.00,0.0136
2941.00,0.0159
2938.00,0.0186
2935.00,0.0217
2932.00,0.0250
2929.00,0.0278
2926.00,0.0299
2923.00,0.0309
2920.00,0.0305
2917.00,0.0293
2914.00,0.0274
2911.00,0.0252
2908.00,0.0229
2905.00,0.0206
2902.00,0.0184
2899.00,0.0164
2896.00,0.0146
2893.00,0.0133
2890.00,0.0124
2887.00,0.0115
2884.00,0.0108
2881.00,0.0102
2878.00,0.0096
2875.00,0.0091
2872.00,0.0088
2869.00,0.0087
2866.00,0.0090
2863.00,0.0097
2860.00,0.0109
2857.00,0.0123
2854.00,0.0136
2851.00,0.0142
2848.00,0.0140
2845.00,0.0127
2842.00,0.0105
2839.00,0.0083
2836.00,0.0066
2833.00,0.0055
2830.00,0.0049
2827.00,0.0046
2824.00,0.0043
2821.00,0.0042
2818.00,0.0040
2815.00,0.0039
2812.00,0.0039
2809.00,0.0038
2806.00,0.0038
2803.00,0.0037
2800.00,0.0036
2797.00,0.0035
2794.00,0.0035
2791.00,0.0034
2788.00,0.0034
2785.00,0.0034
2782.00,0.0033
2779.00,0.0033
2776.00,0.0032
2773.00,0.0032
2770.00,0.0031
2767.00,0.0031
2764.00,0.0031
2761.00,0.0030
2758.00,0.0030
2755.00,0.0030
2752.00,0.0030
2749.00,0.0030
2746.00,0.0030
2743.00,0.0030
2740.00,0.0030
2737.00,0.0030
2734.00,0.0030
2731.00,0.0030
2728.00,0.0030
2725.00,0.0030
2722.00,0.0030
2719.00,0.0030
2716.00,0.0030
2713.00,0.0030
2710.00,0.0030
2707.00,0.0030
2704.00,0.0030
2701.00,0.0029
2698.00,0.0030
2695.00,0.0030
2692.00,0.0030
2689.00,0.0030
2686.00,0.0029
2683.00,0.0029
2680.00,0.0029
2677.00,0.0029
2674.00,0.0029
2671.00,0.0029
2668.00,0.0029
2665.00,0.0029
2662.00,0.0030
2659.00,0.0030
2656.00,0.0031
2653.00,0.0031
2650.00,0.0031
2647.00,0.0030
2644.00,0.0030
2641.00,0.0030
2638.00,0.0031
2635.00,0.0031
2632.00,0.0030
2629.00,0.0030
2626.00,0.0029
2623.00,0.0029
2620.00,0.0028
2617.00,0.0027
2614.00,0.0027
2611.00,0.0028
2608.00,0.0028
2605.00,0.0028
2602.00,0.0027
2599.00,0.0027
2596.00,0.0026
2593.00,0.0026
2590.00,0.0026
2587.00,0.0026
2584.00,0.0026
2581.00,0.0026
2578.00,0.0026
2575.00,0.0025
2572.00,0.0025
2569.00,0.0025
2566.00,0.0025
2563.00,0.0024
2560.00,0.0024
2557.00,0.0023
2554.00,0.0023
2551.00,0.0024
2548.00,0.0024
2545.00,0.0024
2542.00,0.0023
2539.00,0.0024
2536.00,0.0023
2533.00,0.0024
2530.00,0.0023
2527.00,0.0023
2524.00,0.0023
2521.00,0.0023
2518.00,0.0022
2515.00,0.0022
2512.00,0.0022
2509.00,0.0022
2506.00,0.0023
2503.00,0.0022
2500.00,0.0022
2497.00,0.0022
2494.00,0.0022
2491.00,0.0022
2488.00,0.0021
2485.00,0.0021
2482.00,0.0022
2479.00,0.0021
2476.00,0.0020
2473.00,0.0020
2470.00,0.0020
2467.00,0.0020
2464.00,0.0020
2461.00,0.0020
2458.00,0.0021
2455.00,0.0021
2452.00,0.0021
2449.00,0.0020
2446.00,0.0020
2443.00,0.0020
2440.00,0.0020
2437.00,0.0020
2434.00,0.0019
2431.00,0.0019
2428.00,0.0019
2425.00,0.0018
2422.00,0.0018
2419.00,0.0018
2416.00,0.0018
2413.00,0.0019
2410.00,0.0019
2407.00,0.0018
2404.00,0.0017
2401.00,0.0017
2398.00,0.0017
2395.00,0.0018
2392.00,0.0018
2389.00,0.0018
2386.00,0.0018
2383.00,0.0019
2380.00,0.0020
2377.00,0.0020
2374.00,0.0020
2371.00,0.0020
2368.00,0.0020
2365.00,0.0020
2362.00,0.0022
2359.00,0.0022
2356.00,0.0022
2353.00,0.0023
2350.00,0.0023
2347.00,0.0024
2344.00,0.0025
2341.00,0.0025
2338.00,0.0026
2335.00,0.0025
2332.00,0.0024
2329.00,0.0026
2326.00,0.0030
2323.00,0.0029
2320.00,0.0026
2317.00,0.0026
2314.00,0.0026
2311.00,0.0026
2308.00,0.0025
2305.00,0.0025
2302.00,0.0024
2299.00,0.0023
2296.00,0.0023
2293.00,0.0024
2290.00,0.0025
2287.00,0.0024
2284.00,0.0023
2281.00,0.0022
2278.00,0.0021
2275.00,0.0019
2272.00,0.0019
2269.00,0.0019
2266.00,0.0020
2263.00,0.0020
2260.00,0.0020
2257.00,0.0019
2254.00,0.0018
2251.00,0.0020
2248.00,0.0019
2245.00,0.0017
2242.00,0.0017
2239.00,0.0017
2236.00,0.0018
2233.00,0.0017
2230.00,0.0016
2227.00,0.0017
2224.00,0.0019
2221.00,0.0017
2218.00,0.0015
2215.00,0.0016
2212.00,0.0015
2209.00,0.0016
2206.00,0.0015
2203.00,0.0015
2200.00,0.0017
2197.00,0.0018
2194.00,0.0019
2191.00,0.0017
2188.00,0.0017
2185.00,0.0017
2182.00,0.0012
2179.00,0.0014
2176.00,0.0013
2173.00,0.0015
2170.00,0.0016
2167.00,0.0017
2164.00,0.0018
2161.00,0.0008
2158.00,-0.0006
2155.00,-0.0000
2152.00,0.0003
2149.00,0.0009
2146.00,0.0006
2143.00,0.0004
2140.00,0.0006
2137.00,0.0005
2134.00,0.0002
2131.00,0.0006
2128.00,0.0007
2125.00,0.0009
2122.00,0.0012
2119.00,0.0013
2116.00,0.0013
2113.00,0.0013
2110.00,0.0012
2107.00,0.0013
2104.00,0.0012
2101.00,0.0012
2098.00,0.0011
2095.00,0.0010
2092.00,0.0011
2089.00,0.0012
2086.00,0.0013
2083.00,0.0014
2080.00,0.0012
2077.00,0.0013
2074.00,0.0014
2071.00,0.0012
2068.00,0.0009
2065.00,0.0010
2062.00,0.0008
2059.00,0.0009
2056.00,0.0010
2053.00,0.0012
2050.00,0.0013
2047.00,0.0011
2044.00,0.0010
2041.00,0.0010
2038.00,0.0007
2035.00,0.0007
2032.00,0.0007
2029.00,0.0007
2026.00,0.0005
2023.00,0.0007
2020.00,0.0009
2017.00,0.0005
2014.00,0.0008
2011.00,0.0009
2008.00,0.0005
2005.00,0.0004
2002.00,0.0006
1999.00,0.0009
1996.00,0.0011
1993.00,0.0011
1990.00,0.0013
1987.00,0.0013
1984.00,0.0017
1981.00,0.0022
1978.00,0.0012
1975.00,0.0010
1972.00,0.0011
1969.00,0.0014
1966.00,0.0019
1963.00,0.0024
1960.00,0.0024
1957.00,0.0026
1954.00,0.0028
1951.00,0.0033
1948.00,0.0035
1945.00,0.0039
1942.00,0.0039
1939.00,0.0039
1936.00,0.0032
1933.00,0.0025
1930.00,0.0020
1927.00,0.0018
1924.00,0.0016
1921.00,0.0017
1918.00,0.0015
1915.00,0.0014
1912.00,0.0014
1909.00,0.0014
1906.00,0.0014
1903.00,0.0015
1900.00,0.0017
1897.00,0.0019
1894.00,0.0022
1891.00,0.0026
1888.00,0.0028
1885.00,0.0031
1882.00,0.0034
1879.00,0.0034
1876.00,0.0036
1873.00,0.0037
1870.00,0.0037
1867.00,0.0037
1864.00,0.0034
1861.00,0.0029
1858.00,0.0025
1855.00,0.0021
1852.00,0.0018
1849.00,0.0017
1846.00,0.0016
1843.00,0.0016
1840.00,0.0016
1837.00,0.0016
1834.00,0.0018
1831.00,0.0020
1828.00,0.0021
1825.00,0.0023
1822.00,0.0026
1819.00,0.0028
1816.00,0.0031
1813.00,0.0034
1810.00,0.0038
1807.00,0.0042
1804.00,0.0044
1801.00,0.0045
1798.00,0.0042
1795.00,0.0037
1792.00,0.0033
1789.00,0.0029
1786.00,0.0027
1783.00,0.0026
1780.00,0.0027
1777.00,0.0028
1774.00,0.0029
1771.00,0.0030
1768.00,0.0031
1765.00,0.0032
1762.00,0.0035
1759.00,0.0038
1756.00,0.0043
1753.00,0.0048
1750.00,0.0054
1747.00,0.0058
1744.00,0.0061
1741.00,0.0063
1738.00,0.0062
1735.00,0.0061
1732.00,0.0058
1729.00,0.0054
1726.00,0.0051
1723.00,0.0047
1720.00,0.0045
1717.00,0.0043
1714.00,0.0042
1711.00,0.0041
1708.00,0.0041
1705.00,0.0041
1702.00,0.0042
1699.00,0.0044
1696.00,0.0047
1693.00,0.0052
1690.00,0.0057
1687.00,0.0061
1684.00,0.0069
1681.00,0.0073
1678.00,0.0074
1675.00,0.0077
1672.00,0.0079
1669.00,0.0081
1666.00,0.0080
1663.00,0.0077
1660.00,0.0074
1657.00,0.0069
1654.00,0.0065
1651.00,0.0060
1648.00,0.0055
1645.00,0.0051
1642.00,0.0048
1639.00,0.0044
1636.00,0.0043
1633.00,0.0041
1630.00,0.0041
1627.00,0.0041
1624.00,0.0043
1621.00,0.0044
1618.00,0.0045
1615.00,0.0052
1612.00,0.0062
1609.00,0.0092
1606.00,0.0158
1603.00,0.0237
1600.00,0.0243
1597.00,0.0171
1594.00,0.0114
1591.00,0.0087
1588.00,0.0083
1585.00,0.0105
1582.00,0.0105
1579.00,0.0071
1576.00,0.0051
1573.00,0.0043
1570.00,0.0038
1567.00,0.0035
1564.00,0.0034
1561.00,0.0034
1558.00,0.0034
1555.00,0.0036
1552.00,0.0039
1549.00,0.0042
1546.00,0.0045
1543.00,0.0046
1540.00,0.0045
1537.00,0.0042
1534.00,0.0040
1531.00,0.0035
1528.00,0.0034
1525.00,0.0032
1522.00,0.0032
1519.00,0.0033
1516.00,0.0035
1513.00,0.0037
1510.00,0.0039
1507.00,0.0047
1504.00,0.0063
1501.00,0.0092
1498.00,0.0203
1495.00,0.0509
1492.00,0.0588
1489.00,0.0345
1486.00,0.0188
1483.00,0.0118
1480.00,0.0085
1477.00,0.0073
1474.00,0.0069
1471.00,0.0073
1468.00,0.0078
1465.00,0.0088
1462.00,0.0103
1459.00,0.0143
1456.00,0.0401
1453.00,0.0612
1450.00,0.0569
1447.00,0.0437
1444.00,0.0345
1441.00,0.0269
1438.00,0.0211
1435.00,0.0157
1432.00,0.0120
1429.00,0.0096
1426.00,0.0084
1423.00,0.0076
1420.00,0.0070
1417.00,0.0065
1414.00,0.0062
1411.00,0.0059
1408.00,0.0058
1405.00,0.0059
1402.00,0.0059
1399.00,0.0060
1396.00,0.0063
1393.00,0.0071
1390.00,0.0080
1387.00,0.0095
1384.00,0.0108
1381.00,0.0119
1378.00,0.0130
1375.00,0.0140
1372.00,0.0144
1369.00,0.0141
1366.00,0.0137
1363.00,0.0134
1360.00,0.0129
1357.00,0.0122
1354.00,0.0119
1351.00,0.0118
1348.00,0.0117
1345.00,0.0112
1342.00,0.0107
1339.00,0.0104
1336.00,0.0106
1333.00,0.0113
1330.00,0.0121
1327.00,0.0121
1324.00,0.0117
1321.00,0.0114
1318.00,0.0115
1315.00,0.0118
1312.00,0.0119
1309.00,0.0117
1306.00,0.0112
1303.00,0.0108
1300.00,0.0105
1297.00,0.0106
1294.00,0.0108
1291.00,0.0107
1288.00,0.0102
1285.00,0.0097
1282.00,0.0095
1279.00,0.0093
1276.00,0.0088
1273.00,0.0082
1270.00,0.0077
1267.00,0.0073
1264.00,0.0071
1261.00,0.0069
1258.00,0.0069
1255.00,0.0069
1252.00,0.0070
1249.00,0.0071
1246.00,0.0071
1243.00,0.0071
1240.00,0.0071
1237.00,0.0069
1234.00,0.0069
1231.00,0.0070
1228.00,0.0071
1225.00,0.0071
1222.00,0.0071
1219.00,0.0071
1216.00,0.0072
1213.00,0.0074
1210.00,0.0077
1207.00,0.0082
1204.00,0.0088
1201.00,0.0096
1198.00,0.0101
1195.00,0.0104
1192.00,0.0105
1189.00,0.0108
1186.00,0.0119
1183.00,0.0137
1180.00,0.0136
1177.00,0.0113
1174.00,0.0094
1171.00,0.0088
1168.00,0.0087
1165.00,0.0087
1162.00,0.0095
1159.00,0.0114
1156.00,0.0138
1153.00,0.0136
1150.00,0.0107
1147.00,0.0085
1144.00,0.0074
1141.00,0.0067
1138.00,0.0064
1135.00,0.0062
1132.00,0.0063
1129.00,0.0063
1126.00,0.0063
1123.00,0.0064
1120.00,0.0069
1117.00,0.0075
1114.00,0.0080
1111.00,0.0082
1108.00,0.0080
1105.00,0.0078
1102.00,0.0081
1099.00,0.0084
1096.00,0.0087
1093.00,0.0090
1090.00,0.0094
1087.00,0.0101
1084.00,0.0112
1081.00,0.0124
1078.00,0.0138
1075.00,0.0156
1072.00,0.0177
1069.00,0.0188
1066.00,0.0179
1063.00,0.0159
1060.00,0.0142
1057.00,0.0127
1054.00,0.0117
1051.00,0.0108
1048.00,0.0102
1045.00,0.0098
1042.00,0.0098
1039.00,0.0107
1036.00,0.0143
1033.00,0.0222
1030.00,0.0301
1027.00,0.0313
1024.00,0.0254
1021.00,0.0201
1018.00,0.0170
1015.00,0.0149
1012.00,0.0134
1009.00,0.0127
1006.00,0.0133
1003.00,0.0139
1000.00,0.0121
997.00,0.0102
994.00,0.0099
991.00,0.0100
988.00,0.0105
985.00,0.0113
982.00,0.0122
979.00,0.0123
976.00,0.0116
973.00,0.0112
970.00,0.0118
967.00,0.0131
964.00,0.0136
961.00,0.0126
958.00,0.0110
955.00,0.0102
952.00,0.0100
949.00,0.0104
946.00,0.0108
943.00,0.0109
940.00,0.0105
937.00,0.0096
934.00,0.0087
931.00,0.0079
928.00,0.0077
925.00,0.0080
922.00,0.0085
919.00,0.0095
916.00,0.0113
913.00,0.0147
910.00,0.0190
907.00,0.0215
904.00,0.0202
901.00,0.0159
898.00,0.0116
895.00,0.0092
892.00,0.0080
889.00,0.0073
886.00,0.0068
883.00,0.0064
880.00,0.0062
877.00,0.0061
874.00,0.0059
871.00,0.0058
868.00,0.0057
865.00,0.0056
862.00,0.0056
859.00,0.0057
856.00,0.0059
853.00,0.0065
850.00,0.0078
847.00,0.0096
844.00,0.0112
841.00,0.0116
838.00,0.0103
835.00,0.0083
832.00,0.0066
829.00,0.0059
826.00,0.0056
823.00,0.0054
820.00,0.0055
817.00,0.0056
814.00,0.0058
811.00,0.0059
808.00,0.0060
805.00,0.0060
802.00,0.0064
799.00,0.0070
796.00,0.0078
793.00,0.0090
790.00,0.0107
787.00,0.0127
784.00,0.0153
781.00,0.0185
778.00,0.0235
775.00,0.0306
772.00,0.0398
769.00,0.0508
766.00,0.0619
763.00,0.0728
760.00,0.0840
757.00,0.0924
754.00,0.0942
751.00,0.0931
748.00,0.0918
745.00,0.0833
742.00,0.0655
739.00,0.0484
736.00,0.0348
733.00,0.0233
730.00,0.0159
727.00,0.0127
724.00,0.0115
721.00,0.0114
718.00,0.0120
715.00,0.0145
712.00,0.0215
709.00,0.0387
706.00,0.0736
703.00,0.1283
700.00,0.1985
697.00,0.2698
694.00,0.2808
691.00,0.1982
688.00,0.1242
685.00,0.0862
682.00,0.0659
679.00,0.0536
676.00,0.0458
673.00,0.0407
670.00,0.0370
667.00,0.0332
664.00,0.0299
661.00,0.0263
658.00,0.0234
655.00,0.0207
652.00,0.0187
649.00,0.0173
646.00,0.0162
643.00,0.0154
640.00,0.0155
637.00,0.0161
634.00,0.0170
631.00,0.0180
628.00,0.0190
625.00,0.0196
622.00,0.0206
619.00,0.0204
616.00,0.0188
613.00,0.0176
610.00,0.0168
607.00,0.0165
604.00,0.0164
601.00,0.0168
598.00,0.0175
595.00,0.0180
592.00,0.0185
589.00,0.0194
586.00,0.0204
583.00,0.0222
580.00,0.0241
577.00,0.0269
574.00,0.0308
571.00,0.0347
568.00,0.0385
565.00,0.0420
562.00,0.0456
559.00,0.0492
556.00,0.0530
553.00,0.0574
550.00,0.0627
547.00,0.0703
544.00,0.0795
541.00,0.0877
538.00,0.0913
535.00,0.0859
532.00,0.0734
529.00,0.0599
526.00,0.0483
523.00,0.0399
520.00,0.0345
517.00,0.0313
514.00,0.0285
511.00,0.0257
508.00,0.0233
505.00,0.0219
502.00,0.0210
499.00,0.0191
496.00,0.0178
493.00,0.0169
490.00,0.0164
487.00,0.0157
484.00,0.0154
481.00,0.0150
478.00,0.0143
475.00,0.0142
472.00,0.0138
469.00,0.0134
466.00,0.0129
463.00,0.0127
460.00,0.0127
457.00,0.0126
454.00,0.0123
451.00,0.0126
448.00,0.0127
445.00,0.0123
442.00,0.0115
439.00,0.0114
436.00,0.0121
433.00,0.0117
430.00,0.0108
427.00,0.0105
424.00,0.0108
421.00,0.0115
418.00,0.0119
415.00,0.0111
412.00,0.0111
409.00,0.0128
406.00,0.0137
403.00,0.0131
400.00,0.0106