File: FTIR/Olivia/2025_08_15_1CBG_3PVP29_silicone_scan3.csv
Created as New Dataset,Sample 120 By YargerLab Date Friday, August 15 2025
cm-1,A
4000.00,0.0015
3997.00,0.0015
3994.00,0.0015
3991.00,0.0015
3988.00,0.0015
3985.00,0.0015
3982.00,0.0015
3979.00,0.0015
3976.00,0.0015
3973.00,0.0015
3970.00,0.0015
3967.00,0.0015
3964.00,0.0015
3961.00,0.0015
3958.00,0.0015
3955.00,0.0015
3952.00,0.0014
3949.00,0.0014
3946.00,0.0014
3943.00,0.0014
3940.00,0.0014
3937.00,0.0014
3934.00,0.0014
3931.00,0.0013
3928.00,0.0014
3925.00,0.0014
3922.00,0.0013
3919.00,0.0013
3916.00,0.0013
3913.00,0.0013
3910.00,0.0014
3907.00,0.0014
3904.00,0.0014
3901.00,0.0012
3898.00,0.0012
3895.00,0.0014
3892.00,0.0014
3889.00,0.0014
3886.00,0.0013
3883.00,0.0013
3880.00,0.0012
3877.00,0.0013
3874.00,0.0013
3871.00,0.0013
3868.00,0.0013
3865.00,0.0012
3862.00,0.0012
3859.00,0.0014
3856.00,0.0014
3853.00,0.0013
3850.00,0.0012
3847.00,0.0013
3844.00,0.0014
3841.00,0.0014
3838.00,0.0013
3835.00,0.0013
3832.00,0.0013
3829.00,0.0014
3826.00,0.0014
3823.00,0.0014
3820.00,0.0014
3817.00,0.0013
3814.00,0.0014
3811.00,0.0014
3808.00,0.0013
3805.00,0.0014
3802.00,0.0012
3799.00,0.0013
3796.00,0.0013
3793.00,0.0014
3790.00,0.0014
3787.00,0.0014
3784.00,0.0014
3781.00,0.0014
3778.00,0.0014
3775.00,0.0013
3772.00,0.0014
3769.00,0.0014
3766.00,0.0013
3763.00,0.0013
3760.00,0.0013
3757.00,0.0013
3754.00,0.0014
3751.00,0.0013
3748.00,0.0012
3745.00,0.0012
3742.00,0.0013
3739.00,0.0013
3736.00,0.0012
3733.00,0.0011
3730.00,0.0012
3727.00,0.0012
3724.00,0.0013
3721.00,0.0013
3718.00,0.0013
3715.00,0.0014
3712.00,0.0014
3709.00,0.0013
3706.00,0.0013
3703.00,0.0014
3700.00,0.0014
3697.00,0.0015
3694.00,0.0016
3691.00,0.0017
3688.00,0.0018
3685.00,0.0020
3682.00,0.0021
3679.00,0.0023
3676.00,0.0024
3673.00,0.0024
3670.00,0.0023
3667.00,0.0025
3664.00,0.0026
3661.00,0.0027
3658.00,0.0029
3655.00,0.0031
3652.00,0.0032
3649.00,0.0034
3646.00,0.0036
3643.00,0.0038
3640.00,0.0041
3637.00,0.0043
3634.00,0.0045
3631.00,0.0047
3628.00,0.0051
3625.00,0.0053
3622.00,0.0056
3619.00,0.0059
3616.00,0.0063
3613.00,0.0066
3610.00,0.0070
3607.00,0.0073
3604.00,0.0077
3601.00,0.0081
3598.00,0.0085
3595.00,0.0090
3592.00,0.0094
3589.00,0.0097
3586.00,0.0103
3583.00,0.0107
3580.00,0.0112
3577.00,0.0118
3574.00,0.0123
3571.00,0.0127
3568.00,0.0132
3565.00,0.0138
3562.00,0.0143
3559.00,0.0147
3556.00,0.0152
3553.00,0.0156
3550.00,0.0161
3547.00,0.0165
3544.00,0.0171
3541.00,0.0174
3538.00,0.0178
3535.00,0.0183
3532.00,0.0187
3529.00,0.0190
3526.00,0.0196
3523.00,0.0201
3520.00,0.0205
3517.00,0.0209
3514.00,0.0214
3511.00,0.0217
3508.00,0.0222
3505.00,0.0226
3502.00,0.0232
3499.00,0.0236
3496.00,0.0240
3493.00,0.0244
3490.00,0.0248
3487.00,0.0253
3484.00,0.0256
3481.00,0.0261
3478.00,0.0264
3475.00,0.0269
3472.00,0.0273
3469.00,0.0277
3466.00,0.0280
3463.00,0.0283
3460.00,0.0287
3457.00,0.0289
3454.00,0.0292
3451.00,0.0295
3448.00,0.0298
3445.00,0.0301
3442.00,0.0304
3439.00,0.0307
3436.00,0.0310
3433.00,0.0312
3430.00,0.0315
3427.00,0.0317
3424.00,0.0319
3421.00,0.0322
3418.00,0.0325
3415.00,0.0328
3412.00,0.0331
3409.00,0.0333
3406.00,0.0335
3403.00,0.0338
3400.00,0.0340
3397.00,0.0343
3394.00,0.0345
3391.00,0.0348
3388.00,0.0352
3385.00,0.0355
3382.00,0.0357
3379.00,0.0359
3376.00,0.0362
3373.00,0.0363
3370.00,0.0362
3367.00,0.0366
3364.00,0.0371
3361.00,0.0372
3358.00,0.0376
3355.00,0.0377
3352.00,0.0375
3349.00,0.0379
3346.00,0.0382
3343.00,0.0381
3340.00,0.0381
3337.00,0.0384
3334.00,0.0389
3331.00,0.0391
3328.00,0.0389
3325.00,0.0390
3322.00,0.0395
3319.00,0.0397
3316.00,0.0399
3313.00,0.0398
3310.00,0.0393
3307.00,0.0391
3304.00,0.0396
3301.00,0.0403
3298.00,0.0401
3295.00,0.0399
3292.00,0.0400
3289.00,0.0405
3286.00,0.0407
3283.00,0.0406
3280.00,0.0406
3277.00,0.0404
3274.00,0.0401
3271.00,0.0399
3268.00,0.0401
3265.00,0.0402
3262.00,0.0401
3259.00,0.0400
3256.00,0.0397
3253.00,0.0396
3250.00,0.0394
3247.00,0.0392
3244.00,0.0392
3241.00,0.0390
3238.00,0.0388
3235.00,0.0385
3232.00,0.0384
3229.00,0.0382
3226.00,0.0380
3223.00,0.0377
3220.00,0.0375
3217.00,0.0372
3214.00,0.0370
3211.00,0.0369
3208.00,0.0367
3205.00,0.0365
3202.00,0.0363
3199.00,0.0360
3196.00,0.0357
3193.00,0.0354
3190.00,0.0351
3187.00,0.0347
3184.00,0.0344
3181.00,0.0340
3178.00,0.0336
3175.00,0.0332
3172.00,0.0328
3169.00,0.0324
3166.00,0.0320
3163.00,0.0316
3160.00,0.0311
3157.00,0.0307
3154.00,0.0302
3151.00,0.0297
3148.00,0.0293
3145.00,0.0290
3142.00,0.0286
3139.00,0.0282
3136.00,0.0279
3133.00,0.0276
3130.00,0.0273
3127.00,0.0270
3124.00,0.0267
3121.00,0.0264
3118.00,0.0259
3115.00,0.0255
3112.00,0.0251
3109.00,0.0246
3106.00,0.0242
3103.00,0.0237
3100.00,0.0233
3097.00,0.0228
3094.00,0.0224
3091.00,0.0220
3088.00,0.0215
3085.00,0.0212
3082.00,0.0208
3079.00,0.0205
3076.00,0.0202
3073.00,0.0199
3070.00,0.0195
3067.00,0.0193
3064.00,0.0191
3061.00,0.0189
3058.00,0.0188
3055.00,0.0186
3052.00,0.0184
3049.00,0.0182
3046.00,0.0179
3043.00,0.0177
3040.00,0.0175
3037.00,0.0175
3034.00,0.0174
3031.00,0.0174
3028.00,0.0174
3025.00,0.0175
3022.00,0.0175
3019.00,0.0176
3016.00,0.0178
3013.00,0.0183
3010.00,0.0190
3007.00,0.0201
3004.00,0.0214
3001.00,0.0231
2998.00,0.0252
2995.00,0.0277
2992.00,0.0304
2989.00,0.0332
2986.00,0.0359
2983.00,0.0382
2980.00,0.0403
2977.00,0.0422
2974.00,0.0443
2971.00,0.0465
2968.00,0.0492
2965.00,0.0522
2962.00,0.0551
2959.00,0.0573
2956.00,0.0585
2953.00,0.0587
2950.00,0.0581
2947.00,0.0572
2944.00,0.0569
2941.00,0.0576
2938.00,0.0594
2935.00,0.0620
2932.00,0.0647
2929.00,0.0671
2926.00,0.0688
2923.00,0.0695
2920.00,0.0690
2917.00,0.0674
2914.00,0.0650
2911.00,0.0620
2908.00,0.0589
2905.00,0.0561
2902.00,0.0540
2899.00,0.0526
2896.00,0.0515
2893.00,0.0507
2890.00,0.0499
2887.00,0.0489
2884.00,0.0481
2881.00,0.0476
2878.00,0.0474
2875.00,0.0472
2872.00,0.0472
2869.00,0.0469
2866.00,0.0465
2863.00,0.0466
2860.00,0.0472
2857.00,0.0473
2854.00,0.0457
2851.00,0.0426
2848.00,0.0387
2845.00,0.0352
2842.00,0.0319
2839.00,0.0290
2836.00,0.0270
2833.00,0.0255
2830.00,0.0242
2827.00,0.0229
2824.00,0.0215
2821.00,0.0201
2818.00,0.0188
2815.00,0.0175
2812.00,0.0163
2809.00,0.0153
2806.00,0.0144
2803.00,0.0136
2800.00,0.0129
2797.00,0.0124
2794.00,0.0119
2791.00,0.0115
2788.00,0.0112
2785.00,0.0109
2782.00,0.0106
2779.00,0.0104
2776.00,0.0101
2773.00,0.0099
2770.00,0.0097
2767.00,0.0095
2764.00,0.0094
2761.00,0.0093
2758.00,0.0093
2755.00,0.0092
2752.00,0.0092
2749.00,0.0091
2746.00,0.0092
2743.00,0.0093
2740.00,0.0093
2737.00,0.0094
2734.00,0.0094
2731.00,0.0094
2728.00,0.0094
2725.00,0.0093
2722.00,0.0093
2719.00,0.0092
2716.00,0.0091
2713.00,0.0090
2710.00,0.0089
2707.00,0.0088
2704.00,0.0087
2701.00,0.0087
2698.00,0.0086
2695.00,0.0085
2692.00,0.0084
2689.00,0.0083
2686.00,0.0082
2683.00,0.0082
2680.00,0.0080
2677.00,0.0080
2674.00,0.0079
2671.00,0.0078
2668.00,0.0078
2665.00,0.0078
2662.00,0.0078
2659.00,0.0078
2656.00,0.0077
2653.00,0.0076
2650.00,0.0075
2647.00,0.0074
2644.00,0.0072
2641.00,0.0071
2638.00,0.0070
2635.00,0.0069
2632.00,0.0068
2629.00,0.0067
2626.00,0.0066
2623.00,0.0065
2620.00,0.0063
2617.00,0.0062
2614.00,0.0062
2611.00,0.0061
2608.00,0.0061
2605.00,0.0060
2602.00,0.0059
2599.00,0.0059
2596.00,0.0059
2593.00,0.0060
2590.00,0.0060
2587.00,0.0059
2584.00,0.0059
2581.00,0.0058
2578.00,0.0058
2575.00,0.0057
2572.00,0.0055
2569.00,0.0055
2566.00,0.0054
2563.00,0.0054
2560.00,0.0053
2557.00,0.0052
2554.00,0.0051
2551.00,0.0051
2548.00,0.0051
2545.00,0.0049
2542.00,0.0049
2539.00,0.0049
2536.00,0.0049
2533.00,0.0048
2530.00,0.0049
2527.00,0.0048
2524.00,0.0047
2521.00,0.0046
2518.00,0.0046
2515.00,0.0045
2512.00,0.0044
2509.00,0.0043
2506.00,0.0043
2503.00,0.0043
2500.00,0.0043
2497.00,0.0043
2494.00,0.0041
2491.00,0.0041
2488.00,0.0040
2485.00,0.0039
2482.00,0.0039
2479.00,0.0039
2476.00,0.0037
2473.00,0.0037
2470.00,0.0036
2467.00,0.0036
2464.00,0.0036
2461.00,0.0036
2458.00,0.0037
2455.00,0.0037
2452.00,0.0036
2449.00,0.0035
2446.00,0.0035
2443.00,0.0035
2440.00,0.0034
2437.00,0.0034
2434.00,0.0034
2431.00,0.0033
2428.00,0.0033
2425.00,0.0033
2422.00,0.0033
2419.00,0.0033
2416.00,0.0034
2413.00,0.0034
2410.00,0.0034
2407.00,0.0033
2404.00,0.0034
2401.00,0.0035
2398.00,0.0034
2395.00,0.0033
2392.00,0.0033
2389.00,0.0032
2386.00,0.0031
2383.00,0.0030
2380.00,0.0029
2377.00,0.0028
2374.00,0.0029
2371.00,0.0028
2368.00,0.0027
2365.00,0.0028
2362.00,0.0029
2359.00,0.0030
2356.00,0.0030
2353.00,0.0029
2350.00,0.0030
2347.00,0.0031
2344.00,0.0031
2341.00,0.0031
2338.00,0.0033
2335.00,0.0033
2332.00,0.0033
2329.00,0.0035
2326.00,0.0044
2323.00,0.0043
2320.00,0.0039
2317.00,0.0037
2314.00,0.0036
2311.00,0.0036
2308.00,0.0036
2305.00,0.0036
2302.00,0.0036
2299.00,0.0036
2296.00,0.0036
2293.00,0.0037
2290.00,0.0039
2287.00,0.0040
2284.00,0.0038
2281.00,0.0036
2278.00,0.0036
2275.00,0.0036
2272.00,0.0035
2269.00,0.0033
2266.00,0.0033
2263.00,0.0032
2260.00,0.0033
2257.00,0.0030
2254.00,0.0029
2251.00,0.0031
2248.00,0.0032
2245.00,0.0032
2242.00,0.0033
2239.00,0.0033
2236.00,0.0034
2233.00,0.0034
2230.00,0.0032
2227.00,0.0031
2224.00,0.0033
2221.00,0.0034
2218.00,0.0032
2215.00,0.0034
2212.00,0.0033
2209.00,0.0032
2206.00,0.0034
2203.00,0.0035
2200.00,0.0033
2197.00,0.0032
2194.00,0.0033
2191.00,0.0035
2188.00,0.0037
2185.00,0.0032
2182.00,0.0026
2179.00,0.0032
2176.00,0.0026
2173.00,0.0026
2170.00,0.0034
2167.00,0.0038
2164.00,0.0039
2161.00,0.0027
2158.00,0.0000
2155.00,0.0006
2152.00,0.0012
2149.00,0.0016
2146.00,0.0016
2143.00,0.0016
2140.00,0.0017
2137.00,0.0015
2134.00,0.0010
2131.00,0.0017
2128.00,0.0021
2125.00,0.0022
2122.00,0.0024
2119.00,0.0027
2116.00,0.0029
2113.00,0.0031
2110.00,0.0029
2107.00,0.0026
2104.00,0.0025
2101.00,0.0024
2098.00,0.0024
2095.00,0.0020
2092.00,0.0021
2089.00,0.0023
2086.00,0.0024
2083.00,0.0024
2080.00,0.0024
2077.00,0.0024
2074.00,0.0023
2071.00,0.0022
2068.00,0.0022
2065.00,0.0022
2062.00,0.0020
2059.00,0.0022
2056.00,0.0022
2053.00,0.0027
2050.00,0.0027
2047.00,0.0022
2044.00,0.0024
2041.00,0.0021
2038.00,0.0021
2035.00,0.0017
2032.00,0.0012
2029.00,0.0014
2026.00,0.0017
2023.00,0.0016
2020.00,0.0015
2017.00,0.0014
2014.00,0.0013
2011.00,0.0015
2008.00,0.0010
2005.00,0.0006
2002.00,0.0013
1999.00,0.0014
1996.00,0.0017
1993.00,0.0018
1990.00,0.0019
1987.00,0.0020
1984.00,0.0024
1981.00,0.0029
1978.00,0.0015
1975.00,0.0007
1972.00,0.0011
1969.00,0.0014
1966.00,0.0010
1963.00,0.0011
1960.00,0.0009
1957.00,0.0011
1954.00,0.0015
1951.00,0.0015
1948.00,0.0016
1945.00,0.0015
1942.00,0.0013
1939.00,0.0016
1936.00,0.0016
1933.00,0.0017
1930.00,0.0017
1927.00,0.0017
1924.00,0.0020
1921.00,0.0020
1918.00,0.0022
1915.00,0.0023
1912.00,0.0022
1909.00,0.0023
1906.00,0.0023
1903.00,0.0022
1900.00,0.0022
1897.00,0.0022
1894.00,0.0021
1891.00,0.0022
1888.00,0.0022
1885.00,0.0022
1882.00,0.0022
1879.00,0.0023
1876.00,0.0023
1873.00,0.0023
1870.00,0.0025
1867.00,0.0025
1864.00,0.0025
1861.00,0.0025
1858.00,0.0024
1855.00,0.0025
1852.00,0.0026
1849.00,0.0027
1846.00,0.0026
1843.00,0.0027
1840.00,0.0029
1837.00,0.0030
1834.00,0.0029
1831.00,0.0031
1828.00,0.0030
1825.00,0.0030
1822.00,0.0030
1819.00,0.0029
1816.00,0.0028
1813.00,0.0030
1810.00,0.0031
1807.00,0.0032
1804.00,0.0034
1801.00,0.0033
1798.00,0.0034
1795.00,0.0035
1792.00,0.0035
1789.00,0.0036
1786.00,0.0038
1783.00,0.0040
1780.00,0.0043
1777.00,0.0043
1774.00,0.0043
1771.00,0.0047
1768.00,0.0049
1765.00,0.0050
1762.00,0.0051
1759.00,0.0055
1756.00,0.0058
1753.00,0.0060
1750.00,0.0067
1747.00,0.0072
1744.00,0.0075
1741.00,0.0076
1738.00,0.0081
1735.00,0.0086
1732.00,0.0100
1729.00,0.0109
1726.00,0.0120
1723.00,0.0134
1720.00,0.0143
1717.00,0.0166
1714.00,0.0195
1711.00,0.0228
1708.00,0.0269
1705.00,0.0336
1702.00,0.0399
1699.00,0.0569
1696.00,0.0748
1693.00,0.0980
1690.00,0.1215
1687.00,0.1444
1684.00,0.1745
1681.00,0.1970
1678.00,0.2104
1675.00,0.2269
1672.00,0.2401
1669.00,0.2610
1666.00,0.2786
1663.00,0.2980
1660.00,0.3180
1657.00,0.3265
1654.00,0.3311
1651.00,0.3352
1648.00,0.3162
1645.00,0.2875
1642.00,0.2529
1639.00,0.2169
1636.00,0.1815
1633.00,0.1521
1630.00,0.1312
1627.00,0.1156
1624.00,0.1060
1621.00,0.0998
1618.00,0.0930
1615.00,0.0854
1612.00,0.0771
1609.00,0.0707
1606.00,0.0696
1603.00,0.0742
1600.00,0.0796
1597.00,0.0790
1594.00,0.0719
1591.00,0.0630
1588.00,0.0556
1585.00,0.0495
1582.00,0.0438
1579.00,0.0386
1576.00,0.0340
1573.00,0.0311
1570.00,0.0288
1567.00,0.0270
1564.00,0.0255
1561.00,0.0235
1558.00,0.0229
1555.00,0.0229
1552.00,0.0228
1549.00,0.0226
1546.00,0.0226
1543.00,0.0225
1540.00,0.0225
1537.00,0.0226
1534.00,0.0222
1531.00,0.0218
1528.00,0.0216
1525.00,0.0215
1522.00,0.0217
1519.00,0.0225
1516.00,0.0232
1513.00,0.0236
1510.00,0.0249
1507.00,0.0279
1504.00,0.0342
1501.00,0.0413
1498.00,0.0515
1495.00,0.0608
1492.00,0.0611
1489.00,0.0534
1486.00,0.0433
1483.00,0.0370
1480.00,0.0345
1477.00,0.0359
1474.00,0.0415
1471.00,0.0573
1468.00,0.0757
1465.00,0.1024
1462.00,0.1232
1459.00,0.1240
1456.00,0.1093
1453.00,0.0992
1450.00,0.0994
1447.00,0.1135
1444.00,0.1332
1441.00,0.1532
1438.00,0.1675
1435.00,0.1843
1432.00,0.1953
1429.00,0.2080
1426.00,0.2163
1423.00,0.2216
1420.00,0.2070
1417.00,0.1666
1414.00,0.1288
1411.00,0.1007
1408.00,0.0841
1405.00,0.0749
1402.00,0.0697
1399.00,0.0672
1396.00,0.0662
1393.00,0.0666
1390.00,0.0681
1387.00,0.0725
1384.00,0.0784
1381.00,0.0844
1378.00,0.0891
1375.00,0.0904
1372.00,0.0862
1369.00,0.0798
1366.00,0.0726
1363.00,0.0656
1360.00,0.0598
1357.00,0.0569
1354.00,0.0553
1351.00,0.0536
1348.00,0.0513
1345.00,0.0490
1342.00,0.0480
1339.00,0.0484
1336.00,0.0497
1333.00,0.0522
1330.00,0.0565
1327.00,0.0629
1324.00,0.0710
1321.00,0.0786
1318.00,0.0823
1315.00,0.0805
1312.00,0.0752
1309.00,0.0705
1306.00,0.0694
1303.00,0.0747
1300.00,0.0901
1297.00,0.1199
1294.00,0.1618
1291.00,0.2010
1288.00,0.2226
1285.00,0.2208
1282.00,0.2033
1279.00,0.1891
1276.00,0.1880
1273.00,0.1906
1270.00,0.1837
1267.00,0.1652
1264.00,0.1426
1261.00,0.1223
1258.00,0.1055
1255.00,0.0921
1252.00,0.0818
1249.00,0.0742
1246.00,0.0696
1243.00,0.0680
1240.00,0.0698
1237.00,0.0752
1234.00,0.0835
1231.00,0.0918
1228.00,0.0963
1225.00,0.0964
1222.00,0.0945
1219.00,0.0911
1216.00,0.0853
1213.00,0.0782
1210.00,0.0714
1207.00,0.0663
1204.00,0.0624
1201.00,0.0590
1198.00,0.0558
1195.00,0.0532
1192.00,0.0514
1189.00,0.0503
1186.00,0.0498
1183.00,0.0501
1180.00,0.0518
1177.00,0.0558
1174.00,0.0618
1171.00,0.0689
1168.00,0.0744
1165.00,0.0757
1162.00,0.0715
1159.00,0.0647
1156.00,0.0583
1153.00,0.0524
1150.00,0.0470
1147.00,0.0421
1144.00,0.0380
1141.00,0.0351
1138.00,0.0329
1135.00,0.0311
1132.00,0.0302
1129.00,0.0302
1126.00,0.0307
1123.00,0.0316
1120.00,0.0328
1117.00,0.0346
1114.00,0.0371
1111.00,0.0397
1108.00,0.0413
1105.00,0.0418
1102.00,0.0420
1099.00,0.0431
1096.00,0.0449
1093.00,0.0461
1090.00,0.0468
1087.00,0.0489
1084.00,0.0514
1081.00,0.0520
1078.00,0.0507
1075.00,0.0490
1072.00,0.0468
1069.00,0.0447
1066.00,0.0436
1063.00,0.0443
1060.00,0.0483
1057.00,0.0581
1054.00,0.0758
1051.00,0.0948
1048.00,0.1017
1045.00,0.0981
1042.00,0.0951
1039.00,0.0955
1036.00,0.0960
1033.00,0.0940
1030.00,0.0893
1027.00,0.0835
1024.00,0.0782
1021.00,0.0741
1018.00,0.0699
1015.00,0.0626
1012.00,0.0529
1009.00,0.0464
1006.00,0.0457
1003.00,0.0479
1000.00,0.0463
997.00,0.0421
994.00,0.0387
991.00,0.0372
988.00,0.0369
985.00,0.0364
982.00,0.0343
979.00,0.0320
976.00,0.0303
973.00,0.0287
970.00,0.0270
967.00,0.0252
964.00,0.0239
961.00,0.0227
958.00,0.0215
955.00,0.0203
952.00,0.0196
949.00,0.0192
946.00,0.0191
943.00,0.0197
940.00,0.0214
937.00,0.0249
934.00,0.0284
931.00,0.0281
928.00,0.0259
925.00,0.0252
922.00,0.0253
919.00,0.0258
916.00,0.0267
913.00,0.0278
910.00,0.0290
907.00,0.0300
904.00,0.0305
901.00,0.0311
898.00,0.0320
895.00,0.0323
892.00,0.0315
889.00,0.0304
886.00,0.0296
883.00,0.0296
880.00,0.0300
877.00,0.0308
874.00,0.0316
871.00,0.0327
868.00,0.0344
865.00,0.0370
862.00,0.0406
859.00,0.0452
856.00,0.0508
853.00,0.0570
850.00,0.0628
847.00,0.0672
844.00,0.0701
841.00,0.0716
838.00,0.0725
835.00,0.0731
832.00,0.0733
829.00,0.0722
826.00,0.0686
823.00,0.0630
820.00,0.0573
817.00,0.0526
814.00,0.0495
811.00,0.0476
808.00,0.0466
805.00,0.0461
802.00,0.0459
799.00,0.0462
796.00,0.0470
793.00,0.0476
790.00,0.0475
787.00,0.0476
784.00,0.0482
781.00,0.0491
778.00,0.0498
775.00,0.0502
772.00,0.0507
769.00,0.0514
766.00,0.0527
763.00,0.0548
760.00,0.0579
757.00,0.0617
754.00,0.0656
751.00,0.0696
748.00,0.0737
745.00,0.0775
742.00,0.0807
739.00,0.0835
736.00,0.0854
733.00,0.0847
730.00,0.0808
727.00,0.0754
724.00,0.0706
721.00,0.0674
718.00,0.0653
715.00,0.0643
712.00,0.0641
709.00,0.0645
706.00,0.0650
703.00,0.0656
700.00,0.0667
697.00,0.0680
694.00,0.0697
691.00,0.0715
688.00,0.0740
685.00,0.0769
682.00,0.0798
679.00,0.0824
676.00,0.0848
673.00,0.0878
670.00,0.0903
667.00,0.0956
664.00,0.0999
661.00,0.1053
658.00,0.1117
655.00,0.1183
652.00,0.1242
649.00,0.1275
646.00,0.1267
643.00,0.1221
640.00,0.1155
637.00,0.1093
634.00,0.1040
631.00,0.0996
628.00,0.0963
625.00,0.0935
622.00,0.0916
619.00,0.0907
616.00,0.0906
613.00,0.0907
610.00,0.0913
607.00,0.0925
604.00,0.0943
601.00,0.0961
598.00,0.0973
595.00,0.0996
592.00,0.1027
589.00,0.1065
586.00,0.1114
583.00,0.1177
580.00,0.1241
577.00,0.1282
574.00,0.1293
571.00,0.1281
568.00,0.1260
565.00,0.1224
562.00,0.1172
559.00,0.1114
556.00,0.1064
553.00,0.1027
550.00,0.0996
547.00,0.0969
544.00,0.0952
541.00,0.0941
538.00,0.0929
535.00,0.0918
532.00,0.0915
529.00,0.0915
526.00,0.0908
523.00,0.0892
520.00,0.0885
517.00,0.0882
514.00,0.0870
511.00,0.0859
508.00,0.0850
505.00,0.0849
502.00,0.0849
499.00,0.0845
496.00,0.0850
493.00,0.0858
490.00,0.0863
487.00,0.0863
484.00,0.0862
481.00,0.0872
478.00,0.0878
475.00,0.0883
472.00,0.0879
469.00,0.0878
466.00,0.0857
463.00,0.0844
460.00,0.0855
457.00,0.0858
454.00,0.0849
451.00,0.0843
448.00,0.0837
445.00,0.0821
442.00,0.0803
439.00,0.0784
436.00,0.0773
433.00,0.0771
430.00,0.0753
427.00,0.0736
424.00,0.0741
421.00,0.0756
418.00,0.0736
415.00,0.0722
412.00,0.0728
409.00,0.0752
406.00,0.0756
403.00,0.0772
400.00,0.0794