File: FTIR/Olivia/2025_07_28_CBN_PVP10kDa_Mortar_Mix_Batch_scan1.csv
Created as New Dataset,Sample 943 By YargerLab Date Monday, July 28 2025
cm-1,A
4000.00,0.0029
3997.00,0.0029
3994.00,0.0029
3991.00,0.0029
3988.00,0.0029
3985.00,0.0029
3982.00,0.0029
3979.00,0.0029
3976.00,0.0029
3973.00,0.0029
3970.00,0.0029
3967.00,0.0029
3964.00,0.0029
3961.00,0.0029
3958.00,0.0029
3955.00,0.0029
3952.00,0.0029
3949.00,0.0029
3946.00,0.0029
3943.00,0.0030
3940.00,0.0029
3937.00,0.0029
3934.00,0.0029
3931.00,0.0029
3928.00,0.0029
3925.00,0.0029
3922.00,0.0029
3919.00,0.0029
3916.00,0.0029
3913.00,0.0029
3910.00,0.0029
3907.00,0.0029
3904.00,0.0030
3901.00,0.0029
3898.00,0.0029
3895.00,0.0029
3892.00,0.0029
3889.00,0.0029
3886.00,0.0028
3883.00,0.0028
3880.00,0.0029
3877.00,0.0029
3874.00,0.0029
3871.00,0.0029
3868.00,0.0028
3865.00,0.0029
3862.00,0.0029
3859.00,0.0029
3856.00,0.0029
3853.00,0.0028
3850.00,0.0028
3847.00,0.0029
3844.00,0.0029
3841.00,0.0028
3838.00,0.0029
3835.00,0.0029
3832.00,0.0029
3829.00,0.0029
3826.00,0.0029
3823.00,0.0029
3820.00,0.0029
3817.00,0.0028
3814.00,0.0029
3811.00,0.0029
3808.00,0.0029
3805.00,0.0029
3802.00,0.0028
3799.00,0.0028
3796.00,0.0029
3793.00,0.0029
3790.00,0.0029
3787.00,0.0029
3784.00,0.0029
3781.00,0.0029
3778.00,0.0029
3775.00,0.0029
3772.00,0.0030
3769.00,0.0029
3766.00,0.0029
3763.00,0.0030
3760.00,0.0030
3757.00,0.0030
3754.00,0.0030
3751.00,0.0029
3748.00,0.0029
3745.00,0.0029
3742.00,0.0029
3739.00,0.0029
3736.00,0.0028
3733.00,0.0028
3730.00,0.0028
3727.00,0.0029
3724.00,0.0029
3721.00,0.0029
3718.00,0.0029
3715.00,0.0029
3712.00,0.0029
3709.00,0.0028
3706.00,0.0027
3703.00,0.0028
3700.00,0.0028
3697.00,0.0028
3694.00,0.0028
3691.00,0.0028
3688.00,0.0028
3685.00,0.0029
3682.00,0.0031
3679.00,0.0031
3676.00,0.0031
3673.00,0.0031
3670.00,0.0031
3667.00,0.0031
3664.00,0.0032
3661.00,0.0032
3658.00,0.0032
3655.00,0.0033
3652.00,0.0034
3649.00,0.0035
3646.00,0.0035
3643.00,0.0035
3640.00,0.0037
3637.00,0.0038
3634.00,0.0038
3631.00,0.0039
3628.00,0.0040
3625.00,0.0041
3622.00,0.0042
3619.00,0.0043
3616.00,0.0044
3613.00,0.0047
3610.00,0.0048
3607.00,0.0049
3604.00,0.0051
3601.00,0.0053
3598.00,0.0054
3595.00,0.0056
3592.00,0.0058
3589.00,0.0059
3586.00,0.0061
3583.00,0.0064
3580.00,0.0066
3577.00,0.0068
3574.00,0.0071
3571.00,0.0072
3568.00,0.0073
3565.00,0.0076
3562.00,0.0079
3559.00,0.0081
3556.00,0.0083
3553.00,0.0086
3550.00,0.0088
3547.00,0.0090
3544.00,0.0092
3541.00,0.0094
3538.00,0.0095
3535.00,0.0098
3532.00,0.0099
3529.00,0.0100
3526.00,0.0102
3523.00,0.0104
3520.00,0.0105
3517.00,0.0106
3514.00,0.0108
3511.00,0.0109
3508.00,0.0110
3505.00,0.0111
3502.00,0.0112
3499.00,0.0113
3496.00,0.0114
3493.00,0.0117
3490.00,0.0118
3487.00,0.0119
3484.00,0.0120
3481.00,0.0122
3478.00,0.0123
3475.00,0.0124
3472.00,0.0126
3469.00,0.0129
3466.00,0.0130
3463.00,0.0132
3460.00,0.0134
3457.00,0.0135
3454.00,0.0137
3451.00,0.0138
3448.00,0.0140
3445.00,0.0142
3442.00,0.0144
3439.00,0.0145
3436.00,0.0148
3433.00,0.0149
3430.00,0.0151
3427.00,0.0153
3424.00,0.0155
3421.00,0.0158
3418.00,0.0160
3415.00,0.0162
3412.00,0.0163
3409.00,0.0165
3406.00,0.0166
3403.00,0.0166
3400.00,0.0166
3397.00,0.0166
3394.00,0.0165
3391.00,0.0165
3388.00,0.0164
3385.00,0.0162
3382.00,0.0160
3379.00,0.0158
3376.00,0.0156
3373.00,0.0154
3370.00,0.0151
3367.00,0.0149
3364.00,0.0149
3361.00,0.0147
3358.00,0.0146
3355.00,0.0144
3352.00,0.0142
3349.00,0.0142
3346.00,0.0142
3343.00,0.0140
3340.00,0.0139
3337.00,0.0139
3334.00,0.0140
3331.00,0.0139
3328.00,0.0138
3325.00,0.0137
3322.00,0.0138
3319.00,0.0138
3316.00,0.0138
3313.00,0.0138
3310.00,0.0136
3307.00,0.0134
3304.00,0.0136
3301.00,0.0139
3298.00,0.0138
3295.00,0.0137
3292.00,0.0138
3289.00,0.0140
3286.00,0.0141
3283.00,0.0141
3280.00,0.0141
3277.00,0.0141
3274.00,0.0140
3271.00,0.0139
3268.00,0.0141
3265.00,0.0141
3262.00,0.0141
3259.00,0.0141
3256.00,0.0141
3253.00,0.0141
3250.00,0.0140
3247.00,0.0140
3244.00,0.0140
3241.00,0.0140
3238.00,0.0139
3235.00,0.0137
3232.00,0.0136
3229.00,0.0136
3226.00,0.0136
3223.00,0.0135
3220.00,0.0134
3217.00,0.0132
3214.00,0.0130
3211.00,0.0129
3208.00,0.0128
3205.00,0.0126
3202.00,0.0124
3199.00,0.0122
3196.00,0.0120
3193.00,0.0118
3190.00,0.0116
3187.00,0.0114
3184.00,0.0112
3181.00,0.0111
3178.00,0.0109
3175.00,0.0107
3172.00,0.0105
3169.00,0.0102
3166.00,0.0100
3163.00,0.0098
3160.00,0.0096
3157.00,0.0094
3154.00,0.0092
3151.00,0.0090
3148.00,0.0088
3145.00,0.0086
3142.00,0.0085
3139.00,0.0083
3136.00,0.0082
3133.00,0.0080
3130.00,0.0079
3127.00,0.0078
3124.00,0.0077
3121.00,0.0076
3118.00,0.0075
3115.00,0.0073
3112.00,0.0073
3109.00,0.0072
3106.00,0.0071
3103.00,0.0070
3100.00,0.0069
3097.00,0.0069
3094.00,0.0068
3091.00,0.0068
3088.00,0.0069
3085.00,0.0068
3082.00,0.0068
3079.00,0.0068
3076.00,0.0067
3073.00,0.0067
3070.00,0.0066
3067.00,0.0066
3064.00,0.0066
3061.00,0.0066
3058.00,0.0066
3055.00,0.0066
3052.00,0.0066
3049.00,0.0065
3046.00,0.0065
3043.00,0.0065
3040.00,0.0066
3037.00,0.0067
3034.00,0.0068
3031.00,0.0068
3028.00,0.0067
3025.00,0.0066
3022.00,0.0066
3019.00,0.0066
3016.00,0.0066
3013.00,0.0067
3010.00,0.0070
3007.00,0.0074
3004.00,0.0080
3001.00,0.0087
2998.00,0.0096
2995.00,0.0106
2992.00,0.0115
2989.00,0.0125
2986.00,0.0134
2983.00,0.0147
2980.00,0.0160
2977.00,0.0168
2974.00,0.0177
2971.00,0.0192
2968.00,0.0202
2965.00,0.0210
2962.00,0.0219
2959.00,0.0223
2956.00,0.0218
2953.00,0.0210
2950.00,0.0203
2947.00,0.0201
2944.00,0.0205
2941.00,0.0212
2938.00,0.0225
2935.00,0.0245
2932.00,0.0268
2929.00,0.0286
2926.00,0.0292
2923.00,0.0284
2920.00,0.0268
2917.00,0.0248
2914.00,0.0231
2911.00,0.0215
2908.00,0.0203
2905.00,0.0192
2902.00,0.0184
2899.00,0.0178
2896.00,0.0173
2893.00,0.0169
2890.00,0.0166
2887.00,0.0163
2884.00,0.0162
2881.00,0.0162
2878.00,0.0167
2875.00,0.0173
2872.00,0.0177
2869.00,0.0175
2866.00,0.0173
2863.00,0.0181
2860.00,0.0195
2857.00,0.0205
2854.00,0.0203
2851.00,0.0190
2848.00,0.0167
2845.00,0.0145
2842.00,0.0128
2839.00,0.0114
2836.00,0.0105
2833.00,0.0098
2830.00,0.0092
2827.00,0.0086
2824.00,0.0081
2821.00,0.0077
2818.00,0.0074
2815.00,0.0071
2812.00,0.0069
2809.00,0.0068
2806.00,0.0067
2803.00,0.0065
2800.00,0.0063
2797.00,0.0063
2794.00,0.0061
2791.00,0.0060
2788.00,0.0059
2785.00,0.0058
2782.00,0.0058
2779.00,0.0057
2776.00,0.0056
2773.00,0.0055
2770.00,0.0055
2767.00,0.0054
2764.00,0.0054
2761.00,0.0054
2758.00,0.0054
2755.00,0.0053
2752.00,0.0053
2749.00,0.0053
2746.00,0.0053
2743.00,0.0053
2740.00,0.0054
2737.00,0.0055
2734.00,0.0055
2731.00,0.0055
2728.00,0.0055
2725.00,0.0054
2722.00,0.0054
2719.00,0.0053
2716.00,0.0053
2713.00,0.0053
2710.00,0.0052
2707.00,0.0051
2704.00,0.0051
2701.00,0.0051
2698.00,0.0050
2695.00,0.0050
2692.00,0.0049
2689.00,0.0049
2686.00,0.0049
2683.00,0.0049
2680.00,0.0049
2677.00,0.0049
2674.00,0.0048
2671.00,0.0049
2668.00,0.0049
2665.00,0.0051
2662.00,0.0052
2659.00,0.0053
2656.00,0.0054
2653.00,0.0054
2650.00,0.0054
2647.00,0.0054
2644.00,0.0053
2641.00,0.0053
2638.00,0.0053
2635.00,0.0052
2632.00,0.0052
2629.00,0.0051
2626.00,0.0051
2623.00,0.0051
2620.00,0.0050
2617.00,0.0050
2614.00,0.0050
2611.00,0.0049
2608.00,0.0049
2605.00,0.0048
2602.00,0.0049
2599.00,0.0050
2596.00,0.0049
2593.00,0.0049
2590.00,0.0049
2587.00,0.0050
2584.00,0.0049
2581.00,0.0049
2578.00,0.0048
2575.00,0.0048
2572.00,0.0048
2569.00,0.0048
2566.00,0.0048
2563.00,0.0048
2560.00,0.0047
2557.00,0.0046
2554.00,0.0046
2551.00,0.0046
2548.00,0.0046
2545.00,0.0045
2542.00,0.0045
2539.00,0.0045
2536.00,0.0044
2533.00,0.0045
2530.00,0.0044
2527.00,0.0044
2524.00,0.0043
2521.00,0.0043
2518.00,0.0042
2515.00,0.0041
2512.00,0.0042
2509.00,0.0042
2506.00,0.0041
2503.00,0.0041
2500.00,0.0042
2497.00,0.0042
2494.00,0.0041
2491.00,0.0041
2488.00,0.0040
2485.00,0.0040
2482.00,0.0040
2479.00,0.0039
2476.00,0.0039
2473.00,0.0039
2470.00,0.0039
2467.00,0.0039
2464.00,0.0040
2461.00,0.0040
2458.00,0.0041
2455.00,0.0040
2452.00,0.0040
2449.00,0.0040
2446.00,0.0040
2443.00,0.0040
2440.00,0.0039
2437.00,0.0038
2434.00,0.0038
2431.00,0.0038
2428.00,0.0038
2425.00,0.0037
2422.00,0.0037
2419.00,0.0038
2416.00,0.0038
2413.00,0.0038
2410.00,0.0038
2407.00,0.0037
2404.00,0.0037
2401.00,0.0036
2398.00,0.0036
2395.00,0.0036
2392.00,0.0036
2389.00,0.0035
2386.00,0.0034
2383.00,0.0032
2380.00,0.0032
2377.00,0.0032
2374.00,0.0032
2371.00,0.0032
2368.00,0.0032
2365.00,0.0031
2362.00,0.0032
2359.00,0.0033
2356.00,0.0033
2353.00,0.0033
2350.00,0.0033
2347.00,0.0033
2344.00,0.0035
2341.00,0.0036
2338.00,0.0037
2335.00,0.0037
2332.00,0.0036
2329.00,0.0039
2326.00,0.0049
2323.00,0.0047
2320.00,0.0044
2317.00,0.0042
2314.00,0.0040
2311.00,0.0040
2308.00,0.0040
2305.00,0.0041
2302.00,0.0041
2299.00,0.0041
2296.00,0.0043
2293.00,0.0045
2290.00,0.0048
2287.00,0.0048
2284.00,0.0046
2281.00,0.0045
2278.00,0.0043
2275.00,0.0041
2272.00,0.0041
2269.00,0.0041
2266.00,0.0039
2263.00,0.0038
2260.00,0.0040
2257.00,0.0039
2254.00,0.0036
2251.00,0.0038
2248.00,0.0038
2245.00,0.0037
2242.00,0.0038
2239.00,0.0037
2236.00,0.0038
2233.00,0.0038
2230.00,0.0037
2227.00,0.0037
2224.00,0.0038
2221.00,0.0039
2218.00,0.0039
2215.00,0.0038
2212.00,0.0038
2209.00,0.0038
2206.00,0.0038
2203.00,0.0037
2200.00,0.0038
2197.00,0.0037
2194.00,0.0040
2191.00,0.0041
2188.00,0.0041
2185.00,0.0038
2182.00,0.0035
2179.00,0.0036
2176.00,0.0035
2173.00,0.0036
2170.00,0.0042
2167.00,0.0047
2164.00,0.0050
2161.00,0.0035
2158.00,0.0008
2155.00,0.0011
2152.00,0.0016
2149.00,0.0019
2146.00,0.0019
2143.00,0.0020
2140.00,0.0022
2137.00,0.0020
2134.00,0.0015
2131.00,0.0021
2128.00,0.0026
2125.00,0.0028
2122.00,0.0031
2119.00,0.0033
2116.00,0.0036
2113.00,0.0036
2110.00,0.0034
2107.00,0.0033
2104.00,0.0033
2101.00,0.0033
2098.00,0.0031
2095.00,0.0028
2092.00,0.0030
2089.00,0.0033
2086.00,0.0035
2083.00,0.0036
2080.00,0.0035
2077.00,0.0035
2074.00,0.0034
2071.00,0.0033
2068.00,0.0032
2065.00,0.0030
2062.00,0.0031
2059.00,0.0032
2056.00,0.0031
2053.00,0.0039
2050.00,0.0040
2047.00,0.0033
2044.00,0.0030
2041.00,0.0030
2038.00,0.0032
2035.00,0.0029
2032.00,0.0024
2029.00,0.0025
2026.00,0.0028
2023.00,0.0026
2020.00,0.0028
2017.00,0.0028
2014.00,0.0025
2011.00,0.0026
2008.00,0.0021
2005.00,0.0016
2002.00,0.0020
1999.00,0.0027
1996.00,0.0029
1993.00,0.0029
1990.00,0.0032
1987.00,0.0035
1984.00,0.0040
1981.00,0.0044
1978.00,0.0026
1975.00,0.0017
1972.00,0.0022
1969.00,0.0022
1966.00,0.0021
1963.00,0.0020
1960.00,0.0020
1957.00,0.0020
1954.00,0.0020
1951.00,0.0022
1948.00,0.0023
1945.00,0.0022
1942.00,0.0025
1939.00,0.0024
1936.00,0.0024
1933.00,0.0024
1930.00,0.0023
1927.00,0.0023
1924.00,0.0025
1921.00,0.0026
1918.00,0.0028
1915.00,0.0029
1912.00,0.0031
1909.00,0.0034
1906.00,0.0031
1903.00,0.0030
1900.00,0.0029
1897.00,0.0030
1894.00,0.0031
1891.00,0.0031
1888.00,0.0030
1885.00,0.0029
1882.00,0.0029
1879.00,0.0029
1876.00,0.0030
1873.00,0.0030
1870.00,0.0031
1867.00,0.0031
1864.00,0.0030
1861.00,0.0031
1858.00,0.0031
1855.00,0.0031
1852.00,0.0031
1849.00,0.0032
1846.00,0.0032
1843.00,0.0031
1840.00,0.0032
1837.00,0.0032
1834.00,0.0031
1831.00,0.0031
1828.00,0.0030
1825.00,0.0032
1822.00,0.0032
1819.00,0.0030
1816.00,0.0029
1813.00,0.0031
1810.00,0.0032
1807.00,0.0032
1804.00,0.0033
1801.00,0.0034
1798.00,0.0034
1795.00,0.0035
1792.00,0.0035
1789.00,0.0035
1786.00,0.0036
1783.00,0.0036
1780.00,0.0036
1777.00,0.0038
1774.00,0.0039
1771.00,0.0038
1768.00,0.0039
1765.00,0.0039
1762.00,0.0040
1759.00,0.0042
1756.00,0.0043
1753.00,0.0043
1750.00,0.0045
1747.00,0.0046
1744.00,0.0047
1741.00,0.0047
1738.00,0.0048
1735.00,0.0052
1732.00,0.0055
1729.00,0.0057
1726.00,0.0061
1723.00,0.0065
1720.00,0.0068
1717.00,0.0076
1714.00,0.0083
1711.00,0.0094
1708.00,0.0107
1705.00,0.0127
1702.00,0.0148
1699.00,0.0197
1696.00,0.0247
1693.00,0.0302
1690.00,0.0358
1687.00,0.0412
1684.00,0.0479
1681.00,0.0537
1678.00,0.0578
1675.00,0.0624
1672.00,0.0663
1669.00,0.0700
1666.00,0.0728
1663.00,0.0751
1660.00,0.0775
1657.00,0.0782
1654.00,0.0783
1651.00,0.0788
1648.00,0.0759
1645.00,0.0720
1642.00,0.0672
1639.00,0.0618
1636.00,0.0561
1633.00,0.0522
1630.00,0.0509
1627.00,0.0524
1624.00,0.0537
1621.00,0.0529
1618.00,0.0485
1615.00,0.0426
1612.00,0.0404
1609.00,0.0380
1606.00,0.0333
1603.00,0.0285
1600.00,0.0248
1597.00,0.0228
1594.00,0.0223
1591.00,0.0241
1588.00,0.0275
1585.00,0.0298
1582.00,0.0293
1579.00,0.0271
1576.00,0.0241
1573.00,0.0217
1570.00,0.0204
1567.00,0.0192
1564.00,0.0174
1561.00,0.0157
1558.00,0.0139
1555.00,0.0138
1552.00,0.0135
1549.00,0.0134
1546.00,0.0133
1543.00,0.0130
1540.00,0.0128
1537.00,0.0126
1534.00,0.0126
1531.00,0.0125
1528.00,0.0127
1525.00,0.0127
1522.00,0.0131
1519.00,0.0133
1516.00,0.0142
1513.00,0.0150
1510.00,0.0159
1507.00,0.0169
1504.00,0.0185
1501.00,0.0214
1498.00,0.0265
1495.00,0.0298
1492.00,0.0277
1489.00,0.0237
1486.00,0.0199
1483.00,0.0174
1480.00,0.0162
1477.00,0.0164
1474.00,0.0183
1471.00,0.0235
1468.00,0.0306
1465.00,0.0375
1462.00,0.0410
1459.00,0.0411
1456.00,0.0374
1453.00,0.0340
1450.00,0.0331
1447.00,0.0353
1444.00,0.0397
1441.00,0.0450
1438.00,0.0491
1435.00,0.0537
1432.00,0.0563
1429.00,0.0589
1426.00,0.0617
1423.00,0.0641
1420.00,0.0625
1417.00,0.0560
1414.00,0.0475
1411.00,0.0406
1408.00,0.0373
1405.00,0.0372
1402.00,0.0378
1399.00,0.0367
1396.00,0.0332
1393.00,0.0292
1390.00,0.0276
1387.00,0.0293
1384.00,0.0298
1381.00,0.0306
1378.00,0.0318
1375.00,0.0311
1372.00,0.0294
1369.00,0.0297
1366.00,0.0315
1363.00,0.0317
1360.00,0.0325
1357.00,0.0292
1354.00,0.0258
1351.00,0.0244
1348.00,0.0241
1345.00,0.0235
1342.00,0.0222
1339.00,0.0210
1336.00,0.0206
1333.00,0.0217
1330.00,0.0231
1327.00,0.0244
1324.00,0.0259
1321.00,0.0276
1318.00,0.0289
1315.00,0.0286
1312.00,0.0276
1309.00,0.0273
1306.00,0.0289
1303.00,0.0330
1300.00,0.0373
1297.00,0.0417
1294.00,0.0488
1291.00,0.0564
1288.00,0.0628
1285.00,0.0667
1282.00,0.0660
1279.00,0.0619
1276.00,0.0592
1273.00,0.0590
1270.00,0.0584
1267.00,0.0556
1264.00,0.0508
1261.00,0.0452
1258.00,0.0400
1255.00,0.0362
1252.00,0.0337
1249.00,0.0330
1246.00,0.0340
1243.00,0.0354
1240.00,0.0370
1237.00,0.0398
1234.00,0.0426
1231.00,0.0427
1228.00,0.0407
1225.00,0.0386
1222.00,0.0372
1219.00,0.0368
1216.00,0.0370
1213.00,0.0360
1210.00,0.0330
1207.00,0.0302
1204.00,0.0293
1201.00,0.0307
1198.00,0.0335
1195.00,0.0359
1192.00,0.0348
1189.00,0.0312
1186.00,0.0274
1183.00,0.0249
1180.00,0.0238
1177.00,0.0236
1174.00,0.0240
1171.00,0.0246
1168.00,0.0249
1165.00,0.0250
1162.00,0.0257
1159.00,0.0285
1156.00,0.0334
1153.00,0.0331
1150.00,0.0267
1147.00,0.0220
1144.00,0.0200
1141.00,0.0191
1138.00,0.0193
1135.00,0.0215
1132.00,0.0274
1129.00,0.0332
1126.00,0.0328
1123.00,0.0284
1120.00,0.0239
1117.00,0.0218
1114.00,0.0214
1111.00,0.0207
1108.00,0.0200
1105.00,0.0209
1102.00,0.0244
1099.00,0.0267
1096.00,0.0240
1093.00,0.0204
1090.00,0.0186
1087.00,0.0180
1084.00,0.0178
1081.00,0.0179
1078.00,0.0183
1075.00,0.0188
1072.00,0.0191
1069.00,0.0195
1066.00,0.0204
1063.00,0.0226
1060.00,0.0271
1057.00,0.0345
1054.00,0.0403
1051.00,0.0420
1048.00,0.0408
1045.00,0.0362
1042.00,0.0306
1039.00,0.0269
1036.00,0.0263
1033.00,0.0278
1030.00,0.0326
1027.00,0.0385
1024.00,0.0367
1021.00,0.0308
1018.00,0.0269
1015.00,0.0239
1012.00,0.0217
1009.00,0.0215
1006.00,0.0237
1003.00,0.0256
1000.00,0.0248
997.00,0.0230
994.00,0.0214
991.00,0.0197
988.00,0.0177
985.00,0.0164
982.00,0.0156
979.00,0.0153
976.00,0.0151
973.00,0.0150
970.00,0.0147
967.00,0.0146
964.00,0.0148
961.00,0.0148
958.00,0.0139
955.00,0.0131
952.00,0.0126
949.00,0.0129
946.00,0.0131
943.00,0.0135
940.00,0.0149
937.00,0.0164
934.00,0.0177
931.00,0.0178
928.00,0.0168
925.00,0.0168
922.00,0.0174
919.00,0.0164
916.00,0.0146
913.00,0.0137
910.00,0.0134
907.00,0.0136
904.00,0.0147
901.00,0.0172
898.00,0.0183
895.00,0.0171
892.00,0.0174
889.00,0.0179
886.00,0.0151
883.00,0.0142
880.00,0.0147
877.00,0.0170
874.00,0.0219
871.00,0.0274
868.00,0.0278
865.00,0.0247
862.00,0.0220
859.00,0.0207
856.00,0.0228
853.00,0.0267
850.00,0.0307
847.00,0.0312
844.00,0.0285
841.00,0.0268
838.00,0.0274
835.00,0.0301
832.00,0.0299
829.00,0.0258
826.00,0.0216
823.00,0.0233
820.00,0.0307
817.00,0.0335
814.00,0.0317
811.00,0.0225
808.00,0.0182
805.00,0.0162
802.00,0.0153
799.00,0.0148
796.00,0.0146
793.00,0.0146
790.00,0.0147
787.00,0.0148
784.00,0.0149
781.00,0.0153
778.00,0.0161
775.00,0.0181
772.00,0.0181
769.00,0.0172
766.00,0.0175
763.00,0.0184
760.00,0.0199
757.00,0.0205
754.00,0.0207
751.00,0.0215
748.00,0.0225
745.00,0.0236
742.00,0.0251
739.00,0.0279
736.00,0.0325
733.00,0.0337
730.00,0.0324
727.00,0.0309
724.00,0.0273
721.00,0.0251
718.00,0.0255
715.00,0.0267
712.00,0.0263
709.00,0.0253
706.00,0.0252
703.00,0.0260
700.00,0.0273
697.00,0.0283
694.00,0.0282
691.00,0.0291
688.00,0.0312
685.00,0.0311
682.00,0.0309
679.00,0.0319
676.00,0.0339
673.00,0.0365
670.00,0.0383
667.00,0.0393
664.00,0.0405
661.00,0.0424
658.00,0.0433
655.00,0.0439
652.00,0.0448
649.00,0.0455
646.00,0.0454
643.00,0.0444
640.00,0.0433
637.00,0.0421
634.00,0.0411
631.00,0.0404
628.00,0.0402
625.00,0.0404
622.00,0.0413
619.00,0.0420
616.00,0.0410
613.00,0.0396
610.00,0.0396
607.00,0.0420
604.00,0.0452
601.00,0.0466
598.00,0.0470
595.00,0.0476
592.00,0.0479
589.00,0.0485
586.00,0.0492
583.00,0.0512
580.00,0.0537
577.00,0.0569
574.00,0.0572
571.00,0.0546
568.00,0.0530
565.00,0.0529
562.00,0.0537
559.00,0.0541
556.00,0.0521
553.00,0.0506
550.00,0.0509
547.00,0.0528
544.00,0.0522
541.00,0.0497
538.00,0.0484
535.00,0.0491
532.00,0.0508
529.00,0.0504
526.00,0.0489
523.00,0.0468
520.00,0.0457
517.00,0.0450
514.00,0.0447
511.00,0.0446
508.00,0.0452
505.00,0.0451
502.00,0.0447
499.00,0.0446
496.00,0.0449
493.00,0.0455
490.00,0.0449
487.00,0.0447
484.00,0.0443
481.00,0.0442
478.00,0.0440
475.00,0.0434
472.00,0.0435
469.00,0.0438
466.00,0.0433
463.00,0.0437
460.00,0.0438
457.00,0.0434
454.00,0.0428
451.00,0.0426
448.00,0.0422
445.00,0.0421
442.00,0.0416
439.00,0.0420
436.00,0.0412
433.00,0.0416
430.00,0.0412
427.00,0.0411
424.00,0.0403
421.00,0.0405
418.00,0.0412
415.00,0.0410
412.00,0.0425
409.00,0.0441
406.00,0.0420
403.00,0.0419
400.00,0.0401