File: FTIR/Olivia/2025_08_06_1CBN_CBN_MP_Powder_Floraworks1.csv
Created as New Dataset,Sample 008 By YargerLab Date Wednesday, August 06 2025
cm-1,A
4000.00,0.0016
3997.00,0.0016
3994.00,0.0017
3991.00,0.0017
3988.00,0.0017
3985.00,0.0017
3982.00,0.0017
3979.00,0.0017
3976.00,0.0017
3973.00,0.0017
3970.00,0.0017
3967.00,0.0017
3964.00,0.0017
3961.00,0.0017
3958.00,0.0017
3955.00,0.0017
3952.00,0.0017
3949.00,0.0017
3946.00,0.0017
3943.00,0.0017
3940.00,0.0017
3937.00,0.0017
3934.00,0.0017
3931.00,0.0017
3928.00,0.0017
3925.00,0.0018
3922.00,0.0017
3919.00,0.0017
3916.00,0.0016
3913.00,0.0017
3910.00,0.0017
3907.00,0.0018
3904.00,0.0018
3901.00,0.0017
3898.00,0.0017
3895.00,0.0017
3892.00,0.0017
3889.00,0.0017
3886.00,0.0017
3883.00,0.0016
3880.00,0.0016
3877.00,0.0017
3874.00,0.0017
3871.00,0.0016
3868.00,0.0017
3865.00,0.0016
3862.00,0.0017
3859.00,0.0017
3856.00,0.0017
3853.00,0.0016
3850.00,0.0016
3847.00,0.0016
3844.00,0.0017
3841.00,0.0017
3838.00,0.0017
3835.00,0.0017
3832.00,0.0016
3829.00,0.0016
3826.00,0.0017
3823.00,0.0017
3820.00,0.0017
3817.00,0.0016
3814.00,0.0017
3811.00,0.0017
3808.00,0.0017
3805.00,0.0016
3802.00,0.0016
3799.00,0.0017
3796.00,0.0017
3793.00,0.0017
3790.00,0.0017
3787.00,0.0018
3784.00,0.0018
3781.00,0.0018
3778.00,0.0017
3775.00,0.0017
3772.00,0.0017
3769.00,0.0017
3766.00,0.0017
3763.00,0.0017
3760.00,0.0017
3757.00,0.0017
3754.00,0.0017
3751.00,0.0017
3748.00,0.0016
3745.00,0.0016
3742.00,0.0016
3739.00,0.0017
3736.00,0.0016
3733.00,0.0014
3730.00,0.0015
3727.00,0.0016
3724.00,0.0016
3721.00,0.0017
3718.00,0.0018
3715.00,0.0017
3712.00,0.0015
3709.00,0.0015
3706.00,0.0016
3703.00,0.0016
3700.00,0.0016
3697.00,0.0016
3694.00,0.0016
3691.00,0.0016
3688.00,0.0015
3685.00,0.0015
3682.00,0.0016
3679.00,0.0017
3676.00,0.0016
3673.00,0.0015
3670.00,0.0014
3667.00,0.0015
3664.00,0.0015
3661.00,0.0016
3658.00,0.0015
3655.00,0.0016
3652.00,0.0017
3649.00,0.0015
3646.00,0.0015
3643.00,0.0015
3640.00,0.0016
3637.00,0.0016
3634.00,0.0016
3631.00,0.0015
3628.00,0.0015
3625.00,0.0016
3622.00,0.0016
3619.00,0.0017
3616.00,0.0018
3613.00,0.0017
3610.00,0.0017
3607.00,0.0017
3604.00,0.0017
3601.00,0.0017
3598.00,0.0017
3595.00,0.0018
3592.00,0.0018
3589.00,0.0018
3586.00,0.0018
3583.00,0.0019
3580.00,0.0020
3577.00,0.0020
3574.00,0.0020
3571.00,0.0021
3568.00,0.0021
3565.00,0.0021
3562.00,0.0021
3559.00,0.0022
3556.00,0.0022
3553.00,0.0022
3550.00,0.0023
3547.00,0.0023
3544.00,0.0023
3541.00,0.0023
3538.00,0.0025
3535.00,0.0025
3532.00,0.0025
3529.00,0.0026
3526.00,0.0026
3523.00,0.0026
3520.00,0.0027
3517.00,0.0027
3514.00,0.0028
3511.00,0.0028
3508.00,0.0028
3505.00,0.0029
3502.00,0.0029
3499.00,0.0030
3496.00,0.0030
3493.00,0.0030
3490.00,0.0030
3487.00,0.0031
3484.00,0.0032
3481.00,0.0032
3478.00,0.0033
3475.00,0.0034
3472.00,0.0034
3469.00,0.0035
3466.00,0.0036
3463.00,0.0036
3460.00,0.0037
3457.00,0.0037
3454.00,0.0038
3451.00,0.0038
3448.00,0.0039
3445.00,0.0040
3442.00,0.0041
3439.00,0.0042
3436.00,0.0043
3433.00,0.0043
3430.00,0.0044
3427.00,0.0045
3424.00,0.0045
3421.00,0.0047
3418.00,0.0048
3415.00,0.0050
3412.00,0.0051
3409.00,0.0053
3406.00,0.0054
3403.00,0.0055
3400.00,0.0057
3397.00,0.0059
3394.00,0.0059
3391.00,0.0060
3388.00,0.0060
3385.00,0.0059
3382.00,0.0059
3379.00,0.0058
3376.00,0.0058
3373.00,0.0057
3370.00,0.0056
3367.00,0.0055
3364.00,0.0055
3361.00,0.0054
3358.00,0.0053
3355.00,0.0053
3352.00,0.0052
3349.00,0.0052
3346.00,0.0051
3343.00,0.0051
3340.00,0.0051
3337.00,0.0050
3334.00,0.0050
3331.00,0.0050
3328.00,0.0050
3325.00,0.0050
3322.00,0.0050
3319.00,0.0050
3316.00,0.0050
3313.00,0.0050
3310.00,0.0049
3307.00,0.0049
3304.00,0.0050
3301.00,0.0050
3298.00,0.0050
3295.00,0.0051
3292.00,0.0051
3289.00,0.0052
3286.00,0.0052
3283.00,0.0053
3280.00,0.0053
3277.00,0.0053
3274.00,0.0054
3271.00,0.0054
3268.00,0.0055
3265.00,0.0055
3262.00,0.0056
3259.00,0.0057
3256.00,0.0057
3253.00,0.0057
3250.00,0.0058
3247.00,0.0059
3244.00,0.0059
3241.00,0.0060
3238.00,0.0060
3235.00,0.0060
3232.00,0.0061
3229.00,0.0061
3226.00,0.0062
3223.00,0.0062
3220.00,0.0063
3217.00,0.0063
3214.00,0.0064
3211.00,0.0064
3208.00,0.0063
3205.00,0.0063
3202.00,0.0063
3199.00,0.0062
3196.00,0.0061
3193.00,0.0061
3190.00,0.0061
3187.00,0.0060
3184.00,0.0059
3181.00,0.0059
3178.00,0.0059
3175.00,0.0058
3172.00,0.0057
3169.00,0.0056
3166.00,0.0056
3163.00,0.0055
3160.00,0.0054
3157.00,0.0052
3154.00,0.0052
3151.00,0.0052
3148.00,0.0050
3145.00,0.0049
3142.00,0.0049
3139.00,0.0048
3136.00,0.0047
3133.00,0.0047
3130.00,0.0046
3127.00,0.0045
3124.00,0.0045
3121.00,0.0045
3118.00,0.0045
3115.00,0.0043
3112.00,0.0042
3109.00,0.0042
3106.00,0.0041
3103.00,0.0041
3100.00,0.0040
3097.00,0.0040
3094.00,0.0040
3091.00,0.0041
3088.00,0.0041
3085.00,0.0040
3082.00,0.0039
3079.00,0.0039
3076.00,0.0038
3073.00,0.0038
3070.00,0.0038
3067.00,0.0038
3064.00,0.0038
3061.00,0.0037
3058.00,0.0037
3055.00,0.0036
3052.00,0.0036
3049.00,0.0036
3046.00,0.0035
3043.00,0.0035
3040.00,0.0035
3037.00,0.0036
3034.00,0.0036
3031.00,0.0035
3028.00,0.0034
3025.00,0.0034
3022.00,0.0033
3019.00,0.0034
3016.00,0.0033
3013.00,0.0033
3010.00,0.0034
3007.00,0.0035
3004.00,0.0037
3001.00,0.0039
2998.00,0.0042
2995.00,0.0044
2992.00,0.0045
2989.00,0.0047
2986.00,0.0050
2983.00,0.0054
2980.00,0.0059
2977.00,0.0063
2974.00,0.0070
2971.00,0.0076
2968.00,0.0079
2965.00,0.0083
2962.00,0.0085
2959.00,0.0081
2956.00,0.0075
2953.00,0.0072
2950.00,0.0071
2947.00,0.0073
2944.00,0.0077
2941.00,0.0082
2938.00,0.0089
2935.00,0.0100
2932.00,0.0110
2929.00,0.0117
2926.00,0.0118
2923.00,0.0112
2920.00,0.0104
2917.00,0.0096
2914.00,0.0090
2911.00,0.0086
2908.00,0.0081
2905.00,0.0077
2902.00,0.0074
2899.00,0.0071
2896.00,0.0069
2893.00,0.0068
2890.00,0.0067
2887.00,0.0065
2884.00,0.0064
2881.00,0.0065
2878.00,0.0068
2875.00,0.0071
2872.00,0.0071
2869.00,0.0071
2866.00,0.0072
2863.00,0.0077
2860.00,0.0085
2857.00,0.0088
2854.00,0.0087
2851.00,0.0083
2848.00,0.0075
2845.00,0.0067
2842.00,0.0060
2839.00,0.0055
2836.00,0.0051
2833.00,0.0049
2830.00,0.0047
2827.00,0.0045
2824.00,0.0043
2821.00,0.0042
2818.00,0.0041
2815.00,0.0039
2812.00,0.0038
2809.00,0.0038
2806.00,0.0038
2803.00,0.0037
2800.00,0.0036
2797.00,0.0035
2794.00,0.0035
2791.00,0.0035
2788.00,0.0034
2785.00,0.0034
2782.00,0.0034
2779.00,0.0034
2776.00,0.0033
2773.00,0.0032
2770.00,0.0032
2767.00,0.0032
2764.00,0.0032
2761.00,0.0032
2758.00,0.0032
2755.00,0.0032
2752.00,0.0032
2749.00,0.0032
2746.00,0.0032
2743.00,0.0032
2740.00,0.0032
2737.00,0.0033
2734.00,0.0033
2731.00,0.0033
2728.00,0.0033
2725.00,0.0033
2722.00,0.0033
2719.00,0.0033
2716.00,0.0032
2713.00,0.0032
2710.00,0.0032
2707.00,0.0032
2704.00,0.0031
2701.00,0.0031
2698.00,0.0031
2695.00,0.0031
2692.00,0.0030
2689.00,0.0030
2686.00,0.0030
2683.00,0.0030
2680.00,0.0030
2677.00,0.0030
2674.00,0.0030
2671.00,0.0030
2668.00,0.0030
2665.00,0.0032
2662.00,0.0033
2659.00,0.0034
2656.00,0.0035
2653.00,0.0035
2650.00,0.0035
2647.00,0.0035
2644.00,0.0035
2641.00,0.0035
2638.00,0.0034
2635.00,0.0034
2632.00,0.0033
2629.00,0.0033
2626.00,0.0033
2623.00,0.0032
2620.00,0.0032
2617.00,0.0032
2614.00,0.0032
2611.00,0.0032
2608.00,0.0031
2605.00,0.0032
2602.00,0.0031
2599.00,0.0031
2596.00,0.0031
2593.00,0.0030
2590.00,0.0030
2587.00,0.0030
2584.00,0.0030
2581.00,0.0030
2578.00,0.0029
2575.00,0.0030
2572.00,0.0029
2569.00,0.0029
2566.00,0.0029
2563.00,0.0029
2560.00,0.0028
2557.00,0.0028
2554.00,0.0027
2551.00,0.0027
2548.00,0.0027
2545.00,0.0027
2542.00,0.0026
2539.00,0.0027
2536.00,0.0027
2533.00,0.0026
2530.00,0.0026
2527.00,0.0026
2524.00,0.0026
2521.00,0.0026
2518.00,0.0026
2515.00,0.0025
2512.00,0.0025
2509.00,0.0025
2506.00,0.0024
2503.00,0.0024
2500.00,0.0023
2497.00,0.0024
2494.00,0.0023
2491.00,0.0024
2488.00,0.0024
2485.00,0.0024
2482.00,0.0024
2479.00,0.0024
2476.00,0.0024
2473.00,0.0024
2470.00,0.0024
2467.00,0.0024
2464.00,0.0024
2461.00,0.0024
2458.00,0.0025
2455.00,0.0025
2452.00,0.0025
2449.00,0.0024
2446.00,0.0024
2443.00,0.0024
2440.00,0.0024
2437.00,0.0023
2434.00,0.0023
2431.00,0.0022
2428.00,0.0022
2425.00,0.0022
2422.00,0.0022
2419.00,0.0021
2416.00,0.0022
2413.00,0.0022
2410.00,0.0021
2407.00,0.0019
2404.00,0.0020
2401.00,0.0020
2398.00,0.0019
2395.00,0.0019
2392.00,0.0019
2389.00,0.0018
2386.00,0.0017
2383.00,0.0015
2380.00,0.0015
2377.00,0.0015
2374.00,0.0015
2371.00,0.0015
2368.00,0.0014
2365.00,0.0014
2362.00,0.0015
2359.00,0.0016
2356.00,0.0018
2353.00,0.0016
2350.00,0.0017
2347.00,0.0018
2344.00,0.0018
2341.00,0.0021
2338.00,0.0020
2335.00,0.0021
2332.00,0.0021
2329.00,0.0022
2326.00,0.0033
2323.00,0.0031
2320.00,0.0026
2317.00,0.0025
2314.00,0.0023
2311.00,0.0021
2308.00,0.0021
2305.00,0.0022
2302.00,0.0023
2299.00,0.0024
2296.00,0.0027
2293.00,0.0030
2290.00,0.0033
2287.00,0.0033
2284.00,0.0032
2281.00,0.0030
2278.00,0.0029
2275.00,0.0028
2272.00,0.0028
2269.00,0.0026
2266.00,0.0024
2263.00,0.0024
2260.00,0.0026
2257.00,0.0024
2254.00,0.0023
2251.00,0.0025
2248.00,0.0026
2245.00,0.0025
2242.00,0.0026
2239.00,0.0025
2236.00,0.0025
2233.00,0.0024
2230.00,0.0025
2227.00,0.0026
2224.00,0.0024
2221.00,0.0024
2218.00,0.0023
2215.00,0.0023
2212.00,0.0022
2209.00,0.0024
2206.00,0.0023
2203.00,0.0024
2200.00,0.0022
2197.00,0.0023
2194.00,0.0027
2191.00,0.0028
2188.00,0.0029
2185.00,0.0028
2182.00,0.0020
2179.00,0.0023
2176.00,0.0020
2173.00,0.0025
2170.00,0.0029
2167.00,0.0033
2164.00,0.0038
2161.00,0.0024
2158.00,-0.0010
2155.00,-0.0003
2152.00,0.0004
2149.00,0.0006
2146.00,0.0007
2143.00,0.0009
2140.00,0.0009
2137.00,0.0004
2134.00,-0.0002
2131.00,0.0004
2128.00,0.0010
2125.00,0.0013
2122.00,0.0013
2119.00,0.0015
2116.00,0.0020
2113.00,0.0021
2110.00,0.0021
2107.00,0.0020
2104.00,0.0019
2101.00,0.0021
2098.00,0.0019
2095.00,0.0015
2092.00,0.0016
2089.00,0.0021
2086.00,0.0022
2083.00,0.0024
2080.00,0.0024
2077.00,0.0025
2074.00,0.0024
2071.00,0.0023
2068.00,0.0021
2065.00,0.0022
2062.00,0.0020
2059.00,0.0018
2056.00,0.0020
2053.00,0.0030
2050.00,0.0030
2047.00,0.0023
2044.00,0.0024
2041.00,0.0026
2038.00,0.0028
2035.00,0.0020
2032.00,0.0015
2029.00,0.0015
2026.00,0.0013
2023.00,0.0015
2020.00,0.0018
2017.00,0.0016
2014.00,0.0013
2011.00,0.0015
2008.00,0.0013
2005.00,0.0009
2002.00,0.0012
1999.00,0.0013
1996.00,0.0016
1993.00,0.0022
1990.00,0.0021
1987.00,0.0021
1984.00,0.0028
1981.00,0.0038
1978.00,0.0023
1975.00,0.0015
1972.00,0.0014
1969.00,0.0013
1966.00,0.0011
1963.00,0.0010
1960.00,0.0007
1957.00,0.0010
1954.00,0.0012
1951.00,0.0014
1948.00,0.0014
1945.00,0.0012
1942.00,0.0014
1939.00,0.0014
1936.00,0.0013
1933.00,0.0013
1930.00,0.0012
1927.00,0.0013
1924.00,0.0014
1921.00,0.0017
1918.00,0.0017
1915.00,0.0015
1912.00,0.0016
1909.00,0.0018
1906.00,0.0019
1903.00,0.0018
1900.00,0.0018
1897.00,0.0018
1894.00,0.0018
1891.00,0.0018
1888.00,0.0019
1885.00,0.0018
1882.00,0.0019
1879.00,0.0019
1876.00,0.0018
1873.00,0.0018
1870.00,0.0018
1867.00,0.0019
1864.00,0.0019
1861.00,0.0018
1858.00,0.0018
1855.00,0.0019
1852.00,0.0019
1849.00,0.0019
1846.00,0.0020
1843.00,0.0019
1840.00,0.0020
1837.00,0.0020
1834.00,0.0020
1831.00,0.0019
1828.00,0.0019
1825.00,0.0018
1822.00,0.0019
1819.00,0.0018
1816.00,0.0017
1813.00,0.0018
1810.00,0.0019
1807.00,0.0019
1804.00,0.0020
1801.00,0.0020
1798.00,0.0021
1795.00,0.0021
1792.00,0.0021
1789.00,0.0021
1786.00,0.0021
1783.00,0.0022
1780.00,0.0022
1777.00,0.0021
1774.00,0.0022
1771.00,0.0022
1768.00,0.0022
1765.00,0.0022
1762.00,0.0022
1759.00,0.0022
1756.00,0.0022
1753.00,0.0022
1750.00,0.0022
1747.00,0.0023
1744.00,0.0023
1741.00,0.0023
1738.00,0.0024
1735.00,0.0025
1732.00,0.0024
1729.00,0.0025
1726.00,0.0027
1723.00,0.0027
1720.00,0.0029
1717.00,0.0030
1714.00,0.0031
1711.00,0.0033
1708.00,0.0035
1705.00,0.0040
1702.00,0.0044
1699.00,0.0055
1696.00,0.0068
1693.00,0.0084
1690.00,0.0100
1687.00,0.0116
1684.00,0.0138
1681.00,0.0152
1678.00,0.0159
1675.00,0.0168
1672.00,0.0173
1669.00,0.0184
1666.00,0.0192
1663.00,0.0202
1660.00,0.0213
1657.00,0.0216
1654.00,0.0216
1651.00,0.0223
1648.00,0.0209
1645.00,0.0198
1642.00,0.0181
1639.00,0.0164
1636.00,0.0148
1633.00,0.0140
1630.00,0.0147
1627.00,0.0169
1624.00,0.0186
1621.00,0.0194
1618.00,0.0184
1615.00,0.0165
1612.00,0.0161
1609.00,0.0154
1606.00,0.0133
1603.00,0.0110
1600.00,0.0093
1597.00,0.0085
1594.00,0.0088
1591.00,0.0105
1588.00,0.0127
1585.00,0.0136
1582.00,0.0132
1579.00,0.0121
1576.00,0.0107
1573.00,0.0097
1570.00,0.0091
1567.00,0.0084
1564.00,0.0075
1561.00,0.0068
1558.00,0.0058
1555.00,0.0055
1552.00,0.0053
1549.00,0.0051
1546.00,0.0050
1543.00,0.0048
1540.00,0.0047
1537.00,0.0045
1534.00,0.0044
1531.00,0.0044
1528.00,0.0045
1525.00,0.0045
1522.00,0.0047
1519.00,0.0050
1516.00,0.0054
1513.00,0.0057
1510.00,0.0058
1507.00,0.0059
1504.00,0.0065
1501.00,0.0077
1498.00,0.0101
1495.00,0.0111
1492.00,0.0100
1489.00,0.0083
1486.00,0.0070
1483.00,0.0061
1480.00,0.0057
1477.00,0.0058
1474.00,0.0064
1471.00,0.0085
1468.00,0.0112
1465.00,0.0136
1462.00,0.0143
1459.00,0.0143
1456.00,0.0134
1453.00,0.0124
1450.00,0.0124
1447.00,0.0133
1444.00,0.0147
1441.00,0.0165
1438.00,0.0176
1435.00,0.0190
1432.00,0.0197
1429.00,0.0202
1426.00,0.0205
1423.00,0.0205
1420.00,0.0194
1417.00,0.0172
1414.00,0.0151
1411.00,0.0140
1408.00,0.0143
1405.00,0.0157
1402.00,0.0169
1399.00,0.0166
1396.00,0.0149
1393.00,0.0128
1390.00,0.0118
1387.00,0.0124
1384.00,0.0122
1381.00,0.0123
1378.00,0.0128
1375.00,0.0127
1372.00,0.0116
1369.00,0.0116
1366.00,0.0128
1363.00,0.0135
1360.00,0.0148
1357.00,0.0135
1354.00,0.0117
1351.00,0.0111
1348.00,0.0112
1345.00,0.0108
1342.00,0.0101
1339.00,0.0095
1336.00,0.0093
1333.00,0.0097
1330.00,0.0099
1327.00,0.0100
1324.00,0.0102
1321.00,0.0106
1318.00,0.0107
1315.00,0.0104
1312.00,0.0102
1309.00,0.0107
1306.00,0.0120
1303.00,0.0141
1300.00,0.0156
1297.00,0.0168
1294.00,0.0189
1291.00,0.0206
1288.00,0.0221
1285.00,0.0232
1282.00,0.0225
1279.00,0.0205
1276.00,0.0192
1273.00,0.0184
1270.00,0.0173
1267.00,0.0158
1264.00,0.0141
1261.00,0.0125
1258.00,0.0112
1255.00,0.0103
1252.00,0.0100
1249.00,0.0106
1246.00,0.0118
1243.00,0.0129
1240.00,0.0137
1237.00,0.0151
1234.00,0.0158
1231.00,0.0151
1228.00,0.0141
1225.00,0.0134
1222.00,0.0131
1219.00,0.0133
1216.00,0.0138
1213.00,0.0135
1210.00,0.0121
1207.00,0.0109
1204.00,0.0110
1201.00,0.0122
1198.00,0.0141
1195.00,0.0156
1192.00,0.0148
1189.00,0.0128
1186.00,0.0109
1183.00,0.0097
1180.00,0.0091
1177.00,0.0089
1174.00,0.0088
1171.00,0.0089
1168.00,0.0091
1165.00,0.0094
1162.00,0.0102
1159.00,0.0119
1156.00,0.0145
1153.00,0.0148
1150.00,0.0117
1147.00,0.0093
1144.00,0.0084
1141.00,0.0081
1138.00,0.0086
1135.00,0.0104
1132.00,0.0143
1129.00,0.0173
1126.00,0.0165
1123.00,0.0136
1120.00,0.0113
1117.00,0.0105
1114.00,0.0104
1111.00,0.0099
1108.00,0.0096
1105.00,0.0103
1102.00,0.0123
1099.00,0.0133
1096.00,0.0116
1093.00,0.0094
1090.00,0.0082
1087.00,0.0075
1084.00,0.0072
1081.00,0.0071
1078.00,0.0071
1075.00,0.0073
1072.00,0.0077
1069.00,0.0084
1066.00,0.0094
1063.00,0.0109
1060.00,0.0135
1057.00,0.0175
1054.00,0.0206
1051.00,0.0213
1048.00,0.0201
1045.00,0.0170
1042.00,0.0142
1039.00,0.0128
1036.00,0.0129
1033.00,0.0131
1030.00,0.0154
1027.00,0.0189
1024.00,0.0180
1021.00,0.0148
1018.00,0.0126
1015.00,0.0111
1012.00,0.0102
1009.00,0.0107
1006.00,0.0120
1003.00,0.0127
1000.00,0.0119
997.00,0.0112
994.00,0.0109
991.00,0.0101
988.00,0.0091
985.00,0.0084
982.00,0.0080
979.00,0.0078
976.00,0.0077
973.00,0.0075
970.00,0.0074
967.00,0.0075
964.00,0.0080
961.00,0.0087
958.00,0.0091
955.00,0.0088
952.00,0.0080
949.00,0.0073
946.00,0.0068
943.00,0.0068
940.00,0.0073
937.00,0.0078
934.00,0.0083
931.00,0.0084
928.00,0.0081
925.00,0.0084
922.00,0.0087
919.00,0.0082
916.00,0.0074
913.00,0.0068
910.00,0.0066
907.00,0.0068
904.00,0.0076
901.00,0.0090
898.00,0.0090
895.00,0.0080
892.00,0.0082
889.00,0.0092
886.00,0.0078
883.00,0.0071
880.00,0.0073
877.00,0.0086
874.00,0.0118
871.00,0.0153
868.00,0.0152
865.00,0.0135
862.00,0.0115
859.00,0.0104
856.00,0.0115
853.00,0.0131
850.00,0.0153
847.00,0.0151
844.00,0.0133
841.00,0.0127
838.00,0.0138
835.00,0.0160
832.00,0.0157
829.00,0.0134
826.00,0.0112
823.00,0.0123
820.00,0.0181
817.00,0.0214
814.00,0.0189
811.00,0.0129
808.00,0.0105
805.00,0.0097
802.00,0.0092
799.00,0.0088
796.00,0.0086
793.00,0.0086
790.00,0.0083
787.00,0.0081
784.00,0.0082
781.00,0.0083
778.00,0.0087
775.00,0.0096
772.00,0.0096
769.00,0.0091
766.00,0.0089
763.00,0.0093
760.00,0.0101
757.00,0.0102
754.00,0.0100
751.00,0.0099
748.00,0.0102
745.00,0.0107
742.00,0.0112
739.00,0.0127
736.00,0.0152
733.00,0.0157
730.00,0.0161
727.00,0.0157
724.00,0.0132
721.00,0.0120
718.00,0.0122
715.00,0.0132
712.00,0.0130
709.00,0.0124
706.00,0.0123
703.00,0.0126
700.00,0.0133
697.00,0.0134
694.00,0.0128
691.00,0.0134
688.00,0.0146
685.00,0.0144
682.00,0.0139
679.00,0.0142
676.00,0.0153
673.00,0.0164
670.00,0.0173
667.00,0.0177
664.00,0.0176
661.00,0.0184
658.00,0.0181
655.00,0.0176
652.00,0.0175
649.00,0.0177
646.00,0.0173
643.00,0.0169
640.00,0.0164
637.00,0.0160
634.00,0.0157
631.00,0.0156
628.00,0.0159
625.00,0.0163
622.00,0.0171
619.00,0.0170
616.00,0.0164
613.00,0.0156
610.00,0.0157
607.00,0.0172
604.00,0.0193
601.00,0.0210
598.00,0.0214
595.00,0.0213
592.00,0.0211
589.00,0.0207
586.00,0.0206
583.00,0.0210
580.00,0.0218
577.00,0.0238
574.00,0.0234
571.00,0.0215
568.00,0.0207
565.00,0.0210
562.00,0.0221
559.00,0.0230
556.00,0.0214
553.00,0.0200
550.00,0.0210
547.00,0.0226
544.00,0.0230
541.00,0.0218
538.00,0.0208
535.00,0.0209
532.00,0.0223
529.00,0.0223
526.00,0.0210
523.00,0.0192
520.00,0.0181
517.00,0.0181
514.00,0.0175
511.00,0.0176
508.00,0.0178
505.00,0.0183
502.00,0.0183
499.00,0.0172
496.00,0.0174
493.00,0.0183
490.00,0.0184
487.00,0.0177
484.00,0.0175
481.00,0.0169
478.00,0.0167
475.00,0.0162
472.00,0.0165
469.00,0.0164
466.00,0.0164
463.00,0.0156
460.00,0.0154
457.00,0.0154
454.00,0.0148
451.00,0.0154
448.00,0.0158
445.00,0.0156
442.00,0.0150
439.00,0.0146
436.00,0.0149
433.00,0.0156
430.00,0.0153
427.00,0.0142
424.00,0.0128
421.00,0.0139
418.00,0.0136
415.00,0.0144
412.00,0.0175
409.00,0.0186
406.00,0.0167
403.00,0.0144
400.00,0.0124