File: FTIR/Olivia/2025_08_13_Polystyrene_Standard_scan1.csv
Created as New Dataset,Sample 053 By YargerLab Date Tuesday, August 12 2025
cm-1,A
4000.00,0.0012
3997.00,0.0012
3994.00,0.0012
3991.00,0.0011
3988.00,0.0011
3985.00,0.0011
3982.00,0.0011
3979.00,0.0011
3976.00,0.0011
3973.00,0.0011
3970.00,0.0011
3967.00,0.0011
3964.00,0.0011
3961.00,0.0011
3958.00,0.0011
3955.00,0.0010
3952.00,0.0011
3949.00,0.0011
3946.00,0.0011
3943.00,0.0011
3940.00,0.0011
3937.00,0.0011
3934.00,0.0011
3931.00,0.0011
3928.00,0.0011
3925.00,0.0011
3922.00,0.0011
3919.00,0.0010
3916.00,0.0010
3913.00,0.0011
3910.00,0.0011
3907.00,0.0010
3904.00,0.0010
3901.00,0.0011
3898.00,0.0010
3895.00,0.0010
3892.00,0.0010
3889.00,0.0010
3886.00,0.0010
3883.00,0.0010
3880.00,0.0010
3877.00,0.0010
3874.00,0.0010
3871.00,0.0010
3868.00,0.0010
3865.00,0.0010
3862.00,0.0010
3859.00,0.0010
3856.00,0.0010
3853.00,0.0010
3850.00,0.0010
3847.00,0.0011
3844.00,0.0011
3841.00,0.0011
3838.00,0.0011
3835.00,0.0010
3832.00,0.0011
3829.00,0.0011
3826.00,0.0011
3823.00,0.0011
3820.00,0.0011
3817.00,0.0011
3814.00,0.0011
3811.00,0.0011
3808.00,0.0011
3805.00,0.0011
3802.00,0.0012
3799.00,0.0011
3796.00,0.0011
3793.00,0.0011
3790.00,0.0011
3787.00,0.0010
3784.00,0.0011
3781.00,0.0011
3778.00,0.0010
3775.00,0.0011
3772.00,0.0011
3769.00,0.0010
3766.00,0.0011
3763.00,0.0011
3760.00,0.0010
3757.00,0.0010
3754.00,0.0010
3751.00,0.0010
3748.00,0.0010
3745.00,0.0010
3742.00,0.0010
3739.00,0.0010
3736.00,0.0010
3733.00,0.0010
3730.00,0.0010
3727.00,0.0011
3724.00,0.0010
3721.00,0.0010
3718.00,0.0010
3715.00,0.0009
3712.00,0.0010
3709.00,0.0010
3706.00,0.0010
3703.00,0.0009
3700.00,0.0010
3697.00,0.0010
3694.00,0.0009
3691.00,0.0009
3688.00,0.0010
3685.00,0.0010
3682.00,0.0010
3679.00,0.0010
3676.00,0.0011
3673.00,0.0011
3670.00,0.0010
3667.00,0.0010
3664.00,0.0011
3661.00,0.0011
3658.00,0.0011
3655.00,0.0011
3652.00,0.0011
3649.00,0.0012
3646.00,0.0012
3643.00,0.0011
3640.00,0.0011
3637.00,0.0011
3634.00,0.0010
3631.00,0.0009
3628.00,0.0010
3625.00,0.0011
3622.00,0.0011
3619.00,0.0011
3616.00,0.0012
3613.00,0.0011
3610.00,0.0010
3607.00,0.0011
3604.00,0.0011
3601.00,0.0012
3598.00,0.0011
3595.00,0.0011
3592.00,0.0012
3589.00,0.0011
3586.00,0.0011
3583.00,0.0012
3580.00,0.0013
3577.00,0.0013
3574.00,0.0013
3571.00,0.0013
3568.00,0.0012
3565.00,0.0013
3562.00,0.0013
3559.00,0.0014
3556.00,0.0014
3553.00,0.0013
3550.00,0.0014
3547.00,0.0014
3544.00,0.0015
3541.00,0.0015
3538.00,0.0014
3535.00,0.0015
3532.00,0.0015
3529.00,0.0015
3526.00,0.0015
3523.00,0.0015
3520.00,0.0016
3517.00,0.0016
3514.00,0.0016
3511.00,0.0016
3508.00,0.0017
3505.00,0.0017
3502.00,0.0017
3499.00,0.0017
3496.00,0.0017
3493.00,0.0018
3490.00,0.0018
3487.00,0.0018
3484.00,0.0017
3481.00,0.0018
3478.00,0.0018
3475.00,0.0018
3472.00,0.0019
3469.00,0.0019
3466.00,0.0019
3463.00,0.0019
3460.00,0.0019
3457.00,0.0019
3454.00,0.0019
3451.00,0.0019
3448.00,0.0019
3445.00,0.0019
3442.00,0.0019
3439.00,0.0019
3436.00,0.0019
3433.00,0.0019
3430.00,0.0019
3427.00,0.0019
3424.00,0.0019
3421.00,0.0019
3418.00,0.0018
3415.00,0.0019
3412.00,0.0019
3409.00,0.0019
3406.00,0.0018
3403.00,0.0018
3400.00,0.0018
3397.00,0.0019
3394.00,0.0018
3391.00,0.0018
3388.00,0.0019
3385.00,0.0018
3382.00,0.0018
3379.00,0.0018
3376.00,0.0018
3373.00,0.0018
3370.00,0.0018
3367.00,0.0018
3364.00,0.0018
3361.00,0.0018
3358.00,0.0018
3355.00,0.0018
3352.00,0.0018
3349.00,0.0017
3346.00,0.0017
3343.00,0.0018
3340.00,0.0017
3337.00,0.0018
3334.00,0.0017
3331.00,0.0017
3328.00,0.0017
3325.00,0.0017
3322.00,0.0017
3319.00,0.0017
3316.00,0.0016
3313.00,0.0016
3310.00,0.0017
3307.00,0.0017
3304.00,0.0017
3301.00,0.0016
3298.00,0.0016
3295.00,0.0016
3292.00,0.0016
3289.00,0.0016
3286.00,0.0016
3283.00,0.0016
3280.00,0.0016
3277.00,0.0016
3274.00,0.0016
3271.00,0.0016
3268.00,0.0016
3265.00,0.0016
3262.00,0.0016
3259.00,0.0016
3256.00,0.0015
3253.00,0.0015
3250.00,0.0016
3247.00,0.0015
3244.00,0.0015
3241.00,0.0015
3238.00,0.0015
3235.00,0.0015
3232.00,0.0015
3229.00,0.0015
3226.00,0.0015
3223.00,0.0015
3220.00,0.0015
3217.00,0.0015
3214.00,0.0015
3211.00,0.0015
3208.00,0.0015
3205.00,0.0015
3202.00,0.0015
3199.00,0.0015
3196.00,0.0015
3193.00,0.0014
3190.00,0.0014
3187.00,0.0014
3184.00,0.0014
3181.00,0.0014
3178.00,0.0014
3175.00,0.0014
3172.00,0.0015
3169.00,0.0015
3166.00,0.0016
3163.00,0.0016
3160.00,0.0016
3157.00,0.0014
3154.00,0.0014
3151.00,0.0014
3148.00,0.0013
3145.00,0.0014
3142.00,0.0013
3139.00,0.0014
3136.00,0.0014
3133.00,0.0014
3130.00,0.0015
3127.00,0.0014
3124.00,0.0015
3121.00,0.0016
3118.00,0.0017
3115.00,0.0021
3112.00,0.0026
3109.00,0.0033
3106.00,0.0039
3103.00,0.0040
3100.00,0.0039
3097.00,0.0039
3094.00,0.0042
3091.00,0.0054
3088.00,0.0075
3085.00,0.0098
3082.00,0.0104
3079.00,0.0091
3076.00,0.0078
3073.00,0.0076
3070.00,0.0084
3067.00,0.0102
3064.00,0.0127
3061.00,0.0143
3058.00,0.0137
3055.00,0.0114
3052.00,0.0092
3049.00,0.0078
3046.00,0.0073
3043.00,0.0076
3040.00,0.0088
3037.00,0.0111
3034.00,0.0151
3031.00,0.0208
3028.00,0.0263
3025.00,0.0277
3022.00,0.0229
3019.00,0.0158
3016.00,0.0106
3013.00,0.0079
3010.00,0.0068
3007.00,0.0070
3004.00,0.0077
3001.00,0.0078
2998.00,0.0065
2995.00,0.0051
2992.00,0.0042
2989.00,0.0039
2986.00,0.0038
2983.00,0.0038
2980.00,0.0040
2977.00,0.0041
2974.00,0.0043
2971.00,0.0046
2968.00,0.0049
2965.00,0.0054
2962.00,0.0060
2959.00,0.0068
2956.00,0.0078
2953.00,0.0089
2950.00,0.0104
2947.00,0.0122
2944.00,0.0145
2941.00,0.0171
2938.00,0.0203
2935.00,0.0238
2932.00,0.0274
2929.00,0.0306
2926.00,0.0328
2923.00,0.0337
2920.00,0.0334
2917.00,0.0320
2914.00,0.0300
2911.00,0.0275
2908.00,0.0250
2905.00,0.0224
2902.00,0.0198
2899.00,0.0173
2896.00,0.0152
2893.00,0.0137
2890.00,0.0126
2887.00,0.0116
2884.00,0.0107
2881.00,0.0100
2878.00,0.0093
2875.00,0.0087
2872.00,0.0083
2869.00,0.0082
2866.00,0.0086
2863.00,0.0094
2860.00,0.0108
2857.00,0.0123
2854.00,0.0137
2851.00,0.0145
2848.00,0.0143
2845.00,0.0129
2842.00,0.0105
2839.00,0.0079
2836.00,0.0059
2833.00,0.0046
2830.00,0.0039
2827.00,0.0035
2824.00,0.0033
2821.00,0.0031
2818.00,0.0030
2815.00,0.0029
2812.00,0.0028
2809.00,0.0027
2806.00,0.0027
2803.00,0.0026
2800.00,0.0026
2797.00,0.0024
2794.00,0.0024
2791.00,0.0023
2788.00,0.0023
2785.00,0.0023
2782.00,0.0022
2779.00,0.0022
2776.00,0.0021
2773.00,0.0021
2770.00,0.0020
2767.00,0.0020
2764.00,0.0020
2761.00,0.0019
2758.00,0.0019
2755.00,0.0019
2752.00,0.0018
2749.00,0.0018
2746.00,0.0018
2743.00,0.0018
2740.00,0.0018
2737.00,0.0018
2734.00,0.0019
2731.00,0.0019
2728.00,0.0019
2725.00,0.0019
2722.00,0.0019
2719.00,0.0019
2716.00,0.0019
2713.00,0.0018
2710.00,0.0018
2707.00,0.0018
2704.00,0.0018
2701.00,0.0018
2698.00,0.0018
2695.00,0.0018
2692.00,0.0019
2689.00,0.0018
2686.00,0.0018
2683.00,0.0018
2680.00,0.0018
2677.00,0.0018
2674.00,0.0018
2671.00,0.0018
2668.00,0.0019
2665.00,0.0020
2662.00,0.0021
2659.00,0.0021
2656.00,0.0022
2653.00,0.0022
2650.00,0.0022
2647.00,0.0022
2644.00,0.0022
2641.00,0.0022
2638.00,0.0022
2635.00,0.0023
2632.00,0.0023
2629.00,0.0022
2626.00,0.0021
2623.00,0.0020
2620.00,0.0020
2617.00,0.0020
2614.00,0.0019
2611.00,0.0019
2608.00,0.0020
2605.00,0.0020
2602.00,0.0020
2599.00,0.0019
2596.00,0.0018
2593.00,0.0017
2590.00,0.0017
2587.00,0.0017
2584.00,0.0017
2581.00,0.0018
2578.00,0.0017
2575.00,0.0016
2572.00,0.0015
2569.00,0.0015
2566.00,0.0015
2563.00,0.0014
2560.00,0.0014
2557.00,0.0014
2554.00,0.0014
2551.00,0.0015
2548.00,0.0015
2545.00,0.0014
2542.00,0.0013
2539.00,0.0012
2536.00,0.0013
2533.00,0.0013
2530.00,0.0012
2527.00,0.0013
2524.00,0.0013
2521.00,0.0012
2518.00,0.0013
2515.00,0.0013
2512.00,0.0012
2509.00,0.0013
2506.00,0.0012
2503.00,0.0012
2500.00,0.0012
2497.00,0.0013
2494.00,0.0012
2491.00,0.0012
2488.00,0.0012
2485.00,0.0011
2482.00,0.0011
2479.00,0.0012
2476.00,0.0011
2473.00,0.0010
2470.00,0.0010
2467.00,0.0010
2464.00,0.0010
2461.00,0.0011
2458.00,0.0011
2455.00,0.0012
2452.00,0.0011
2449.00,0.0010
2446.00,0.0010
2443.00,0.0010
2440.00,0.0009
2437.00,0.0009
2434.00,0.0009
2431.00,0.0009
2428.00,0.0008
2425.00,0.0007
2422.00,0.0007
2419.00,0.0007
2416.00,0.0007
2413.00,0.0008
2410.00,0.0008
2407.00,0.0006
2404.00,0.0006
2401.00,0.0006
2398.00,0.0006
2395.00,0.0006
2392.00,0.0006
2389.00,0.0006
2386.00,0.0006
2383.00,0.0006
2380.00,0.0006
2377.00,0.0006
2374.00,0.0007
2371.00,0.0007
2368.00,0.0006
2365.00,0.0008
2362.00,0.0008
2359.00,0.0009
2356.00,0.0010
2353.00,0.0010
2350.00,0.0011
2347.00,0.0012
2344.00,0.0013
2341.00,0.0014
2338.00,0.0015
2335.00,0.0015
2332.00,0.0014
2329.00,0.0016
2326.00,0.0025
2323.00,0.0024
2320.00,0.0020
2317.00,0.0020
2314.00,0.0020
2311.00,0.0019
2308.00,0.0018
2305.00,0.0017
2302.00,0.0016
2299.00,0.0016
2296.00,0.0016
2293.00,0.0018
2290.00,0.0020
2287.00,0.0020
2284.00,0.0018
2281.00,0.0016
2278.00,0.0015
2275.00,0.0014
2272.00,0.0014
2269.00,0.0012
2266.00,0.0011
2263.00,0.0011
2260.00,0.0014
2257.00,0.0012
2254.00,0.0009
2251.00,0.0009
2248.00,0.0009
2245.00,0.0009
2242.00,0.0008
2239.00,0.0009
2236.00,0.0009
2233.00,0.0009
2230.00,0.0010
2227.00,0.0007
2224.00,0.0006
2221.00,0.0007
2218.00,0.0009
2215.00,0.0008
2212.00,0.0007
2209.00,0.0006
2206.00,0.0004
2203.00,0.0006
2200.00,0.0006
2197.00,0.0005
2194.00,0.0007
2191.00,0.0007
2188.00,0.0008
2185.00,0.0007
2182.00,0.0004
2179.00,0.0006
2176.00,0.0002
2173.00,0.0003
2170.00,0.0009
2167.00,0.0017
2164.00,0.0020
2161.00,-0.0002
2158.00,-0.0030
2155.00,-0.0021
2152.00,-0.0012
2149.00,-0.0011
2146.00,-0.0013
2143.00,-0.0012
2140.00,-0.0010
2137.00,-0.0013
2134.00,-0.0016
2131.00,-0.0012
2128.00,-0.0008
2125.00,-0.0005
2122.00,-0.0003
2119.00,-0.0001
2116.00,0.0003
2113.00,0.0004
2110.00,0.0004
2107.00,0.0003
2104.00,0.0003
2101.00,0.0003
2098.00,0.0002
2095.00,-0.0003
2092.00,0.0001
2089.00,0.0002
2086.00,0.0003
2083.00,0.0005
2080.00,0.0006
2077.00,0.0005
2074.00,0.0005
2071.00,0.0003
2068.00,0.0002
2065.00,0.0002
2062.00,0.0002
2059.00,0.0001
2056.00,0.0003
2053.00,0.0010
2050.00,0.0011
2047.00,0.0005
2044.00,0.0002
2041.00,0.0003
2038.00,0.0006
2035.00,0.0000
2032.00,-0.0004
2029.00,-0.0004
2026.00,-0.0006
2023.00,-0.0006
2020.00,-0.0003
2017.00,-0.0002
2014.00,-0.0002
2011.00,-0.0000
2008.00,-0.0005
2005.00,-0.0007
2002.00,-0.0006
1999.00,-0.0001
1996.00,0.0000
1993.00,0.0004
1990.00,0.0007
1987.00,0.0008
1984.00,0.0013
1981.00,0.0017
1978.00,0.0002
1975.00,-0.0002
1972.00,-0.0001
1969.00,0.0004
1966.00,0.0007
1963.00,0.0007
1960.00,0.0009
1957.00,0.0015
1954.00,0.0020
1951.00,0.0022
1948.00,0.0026
1945.00,0.0032
1942.00,0.0033
1939.00,0.0029
1936.00,0.0022
1933.00,0.0015
1930.00,0.0012
1927.00,0.0008
1924.00,0.0006
1921.00,0.0005
1918.00,0.0005
1915.00,0.0002
1912.00,0.0002
1909.00,0.0003
1906.00,0.0005
1903.00,0.0005
1900.00,0.0008
1897.00,0.0011
1894.00,0.0014
1891.00,0.0016
1888.00,0.0019
1885.00,0.0022
1882.00,0.0025
1879.00,0.0028
1876.00,0.0029
1873.00,0.0029
1870.00,0.0030
1867.00,0.0029
1864.00,0.0026
1861.00,0.0021
1858.00,0.0016
1855.00,0.0012
1852.00,0.0010
1849.00,0.0008
1846.00,0.0006
1843.00,0.0006
1840.00,0.0007
1837.00,0.0007
1834.00,0.0008
1831.00,0.0010
1828.00,0.0012
1825.00,0.0014
1822.00,0.0018
1819.00,0.0020
1816.00,0.0022
1813.00,0.0026
1810.00,0.0031
1807.00,0.0035
1804.00,0.0037
1801.00,0.0038
1798.00,0.0035
1795.00,0.0031
1792.00,0.0025
1789.00,0.0021
1786.00,0.0020
1783.00,0.0019
1780.00,0.0019
1777.00,0.0020
1774.00,0.0021
1771.00,0.0022
1768.00,0.0022
1765.00,0.0023
1762.00,0.0026
1759.00,0.0030
1756.00,0.0035
1753.00,0.0040
1750.00,0.0045
1747.00,0.0049
1744.00,0.0052
1741.00,0.0054
1738.00,0.0054
1735.00,0.0052
1732.00,0.0050
1729.00,0.0046
1726.00,0.0042
1723.00,0.0040
1720.00,0.0037
1717.00,0.0034
1714.00,0.0033
1711.00,0.0033
1708.00,0.0032
1705.00,0.0031
1702.00,0.0030
1699.00,0.0031
1696.00,0.0032
1693.00,0.0032
1690.00,0.0033
1687.00,0.0035
1684.00,0.0038
1681.00,0.0040
1678.00,0.0042
1675.00,0.0044
1672.00,0.0044
1669.00,0.0045
1666.00,0.0045
1663.00,0.0043
1660.00,0.0041
1657.00,0.0038
1654.00,0.0036
1651.00,0.0034
1648.00,0.0031
1645.00,0.0029
1642.00,0.0027
1639.00,0.0026
1636.00,0.0025
1633.00,0.0025
1630.00,0.0025
1627.00,0.0026
1624.00,0.0027
1621.00,0.0029
1618.00,0.0031
1615.00,0.0039
1612.00,0.0050
1609.00,0.0082
1606.00,0.0153
1603.00,0.0234
1600.00,0.0240
1597.00,0.0165
1594.00,0.0105
1591.00,0.0077
1588.00,0.0073
1585.00,0.0095
1582.00,0.0096
1579.00,0.0062
1576.00,0.0040
1573.00,0.0031
1570.00,0.0026
1567.00,0.0023
1564.00,0.0022
1561.00,0.0022
1558.00,0.0022
1555.00,0.0024
1552.00,0.0028
1549.00,0.0031
1546.00,0.0034
1543.00,0.0035
1540.00,0.0035
1537.00,0.0033
1534.00,0.0028
1531.00,0.0025
1528.00,0.0023
1525.00,0.0022
1522.00,0.0022
1519.00,0.0023
1516.00,0.0024
1513.00,0.0027
1510.00,0.0030
1507.00,0.0038
1504.00,0.0055
1501.00,0.0086
1498.00,0.0200
1495.00,0.0504
1492.00,0.0590
1489.00,0.0342
1486.00,0.0181
1483.00,0.0110
1480.00,0.0077
1477.00,0.0063
1474.00,0.0058
1471.00,0.0059
1468.00,0.0063
1465.00,0.0071
1462.00,0.0090
1459.00,0.0134
1456.00,0.0389
1453.00,0.0599
1450.00,0.0560
1447.00,0.0426
1444.00,0.0334
1441.00,0.0257
1438.00,0.0198
1435.00,0.0142
1432.00,0.0105
1429.00,0.0080
1426.00,0.0067
1423.00,0.0059
1420.00,0.0055
1417.00,0.0051
1414.00,0.0049
1411.00,0.0047
1408.00,0.0047
1405.00,0.0047
1402.00,0.0048
1399.00,0.0049
1396.00,0.0052
1393.00,0.0061
1390.00,0.0070
1387.00,0.0084
1384.00,0.0097
1381.00,0.0108
1378.00,0.0119
1375.00,0.0128
1372.00,0.0133
1369.00,0.0130
1366.00,0.0127
1363.00,0.0123
1360.00,0.0119
1357.00,0.0112
1354.00,0.0109
1351.00,0.0108
1348.00,0.0106
1345.00,0.0102
1342.00,0.0096
1339.00,0.0092
1336.00,0.0095
1333.00,0.0102
1330.00,0.0110
1327.00,0.0110
1324.00,0.0105
1321.00,0.0102
1318.00,0.0103
1315.00,0.0106
1312.00,0.0108
1309.00,0.0105
1306.00,0.0100
1303.00,0.0095
1300.00,0.0091
1297.00,0.0089
1294.00,0.0088
1291.00,0.0086
1288.00,0.0083
1285.00,0.0081
1282.00,0.0080
1279.00,0.0077
1276.00,0.0073
1273.00,0.0067
1270.00,0.0063
1267.00,0.0060
1264.00,0.0058
1261.00,0.0057
1258.00,0.0057
1255.00,0.0058
1252.00,0.0059
1249.00,0.0059
1246.00,0.0060
1243.00,0.0060
1240.00,0.0059
1237.00,0.0059
1234.00,0.0058
1231.00,0.0059
1228.00,0.0059
1225.00,0.0060
1222.00,0.0060
1219.00,0.0060
1216.00,0.0061
1213.00,0.0063
1210.00,0.0066
1207.00,0.0071
1204.00,0.0078
1201.00,0.0085
1198.00,0.0090
1195.00,0.0093
1192.00,0.0094
1189.00,0.0098
1186.00,0.0108
1183.00,0.0126
1180.00,0.0127
1177.00,0.0103
1174.00,0.0084
1171.00,0.0077
1168.00,0.0075
1165.00,0.0076
1162.00,0.0084
1159.00,0.0104
1156.00,0.0128
1153.00,0.0125
1150.00,0.0095
1147.00,0.0072
1144.00,0.0062
1141.00,0.0056
1138.00,0.0052
1135.00,0.0050
1132.00,0.0049
1129.00,0.0050
1126.00,0.0050
1123.00,0.0052
1120.00,0.0056
1117.00,0.0063
1114.00,0.0068
1111.00,0.0069
1108.00,0.0068
1105.00,0.0068
1102.00,0.0069
1099.00,0.0072
1096.00,0.0075
1093.00,0.0078
1090.00,0.0082
1087.00,0.0090
1084.00,0.0100
1081.00,0.0113
1078.00,0.0127
1075.00,0.0145
1072.00,0.0166
1069.00,0.0176
1066.00,0.0168
1063.00,0.0148
1060.00,0.0128
1057.00,0.0114
1054.00,0.0103
1051.00,0.0095
1048.00,0.0090
1045.00,0.0085
1042.00,0.0085
1039.00,0.0095
1036.00,0.0132
1033.00,0.0211
1030.00,0.0286
1027.00,0.0297
1024.00,0.0239
1021.00,0.0186
1018.00,0.0156
1015.00,0.0136
1012.00,0.0121
1009.00,0.0115
1006.00,0.0121
1003.00,0.0127
1000.00,0.0108
997.00,0.0092
994.00,0.0087
991.00,0.0089
988.00,0.0094
985.00,0.0103
982.00,0.0112
979.00,0.0113
976.00,0.0107
973.00,0.0103
970.00,0.0109
967.00,0.0121
964.00,0.0126
961.00,0.0116
958.00,0.0099
955.00,0.0089
952.00,0.0087
949.00,0.0090
946.00,0.0095
943.00,0.0097
940.00,0.0093
937.00,0.0083
934.00,0.0074
931.00,0.0068
928.00,0.0066
925.00,0.0067
922.00,0.0072
919.00,0.0083
916.00,0.0102
913.00,0.0135
910.00,0.0174
907.00,0.0196
904.00,0.0183
901.00,0.0143
898.00,0.0102
895.00,0.0079
892.00,0.0067
889.00,0.0061
886.00,0.0055
883.00,0.0051
880.00,0.0050
877.00,0.0047
874.00,0.0046
871.00,0.0045
868.00,0.0044
865.00,0.0043
862.00,0.0043
859.00,0.0043
856.00,0.0046
853.00,0.0052
850.00,0.0064
847.00,0.0079
844.00,0.0095
841.00,0.0098
838.00,0.0087
835.00,0.0067
832.00,0.0050
829.00,0.0044
826.00,0.0041
823.00,0.0040
820.00,0.0041
817.00,0.0042
814.00,0.0042
811.00,0.0044
808.00,0.0045
805.00,0.0046
802.00,0.0050
799.00,0.0055
796.00,0.0062
793.00,0.0075
790.00,0.0090
787.00,0.0109
784.00,0.0132
781.00,0.0162
778.00,0.0208
775.00,0.0272
772.00,0.0352
769.00,0.0447
766.00,0.0540
763.00,0.0630
760.00,0.0719
757.00,0.0784
754.00,0.0798
751.00,0.0789
748.00,0.0779
745.00,0.0709
742.00,0.0562
739.00,0.0417
736.00,0.0299
733.00,0.0198
730.00,0.0134
727.00,0.0103
724.00,0.0092
721.00,0.0091
718.00,0.0098
715.00,0.0122
712.00,0.0184
709.00,0.0336
706.00,0.0618
703.00,0.1025
700.00,0.1513
697.00,0.1977
694.00,0.2018
691.00,0.1453
688.00,0.0933
685.00,0.0657
682.00,0.0508
679.00,0.0416
676.00,0.0360
673.00,0.0319
670.00,0.0289
667.00,0.0260
664.00,0.0232
661.00,0.0206
658.00,0.0181
655.00,0.0163
652.00,0.0147
649.00,0.0137
646.00,0.0128
643.00,0.0122
640.00,0.0119
637.00,0.0125
634.00,0.0134
631.00,0.0144
628.00,0.0150
625.00,0.0155
622.00,0.0165
619.00,0.0161
616.00,0.0144
613.00,0.0135
610.00,0.0132
607.00,0.0128
604.00,0.0127
601.00,0.0130
598.00,0.0135
595.00,0.0142
592.00,0.0148
589.00,0.0155
586.00,0.0162
583.00,0.0174
580.00,0.0191
577.00,0.0215
574.00,0.0241
571.00,0.0275
568.00,0.0309
565.00,0.0336
562.00,0.0364
559.00,0.0395
556.00,0.0427
553.00,0.0462
550.00,0.0503
547.00,0.0558
544.00,0.0627
541.00,0.0693
538.00,0.0717
535.00,0.0669
532.00,0.0571
529.00,0.0469
526.00,0.0379
523.00,0.0319
520.00,0.0274
517.00,0.0243
514.00,0.0225
511.00,0.0205
508.00,0.0185
505.00,0.0168
502.00,0.0157
499.00,0.0143
496.00,0.0135
493.00,0.0132
490.00,0.0129
487.00,0.0122
484.00,0.0114
481.00,0.0106
478.00,0.0103
475.00,0.0105
472.00,0.0101
469.00,0.0104
466.00,0.0097
463.00,0.0098
460.00,0.0095
457.00,0.0096
454.00,0.0090
451.00,0.0090
448.00,0.0093
445.00,0.0087
442.00,0.0089
439.00,0.0091
436.00,0.0079
433.00,0.0082
430.00,0.0085
427.00,0.0085
424.00,0.0085
421.00,0.0079
418.00,0.0069
415.00,0.0068
412.00,0.0074
409.00,0.0088
406.00,0.0087
403.00,0.0093
400.00,0.0071