File: FTIR/Olivia/2025_08_07_Polystyrene_film_scan1.csv
Created as New Dataset,Sample 012 By YargerLab Date Thursday, August 07 2025
cm-1,A
4000.00,0.0012
3997.00,0.0012
3994.00,0.0011
3991.00,0.0011
3988.00,0.0011
3985.00,0.0011
3982.00,0.0011
3979.00,0.0011
3976.00,0.0011
3973.00,0.0011
3970.00,0.0011
3967.00,0.0011
3964.00,0.0012
3961.00,0.0011
3958.00,0.0011
3955.00,0.0011
3952.00,0.0012
3949.00,0.0012
3946.00,0.0012
3943.00,0.0012
3940.00,0.0012
3937.00,0.0011
3934.00,0.0012
3931.00,0.0012
3928.00,0.0012
3925.00,0.0012
3922.00,0.0012
3919.00,0.0012
3916.00,0.0012
3913.00,0.0012
3910.00,0.0012
3907.00,0.0012
3904.00,0.0013
3901.00,0.0014
3898.00,0.0013
3895.00,0.0012
3892.00,0.0013
3889.00,0.0013
3886.00,0.0013
3883.00,0.0013
3880.00,0.0012
3877.00,0.0012
3874.00,0.0013
3871.00,0.0014
3868.00,0.0014
3865.00,0.0014
3862.00,0.0013
3859.00,0.0013
3856.00,0.0015
3853.00,0.0016
3850.00,0.0016
3847.00,0.0014
3844.00,0.0013
3841.00,0.0014
3838.00,0.0015
3835.00,0.0016
3832.00,0.0015
3829.00,0.0014
3826.00,0.0013
3823.00,0.0015
3820.00,0.0015
3817.00,0.0015
3814.00,0.0014
3811.00,0.0014
3808.00,0.0014
3805.00,0.0015
3802.00,0.0016
3799.00,0.0016
3796.00,0.0015
3793.00,0.0013
3790.00,0.0012
3787.00,0.0012
3784.00,0.0013
3781.00,0.0013
3778.00,0.0012
3775.00,0.0012
3772.00,0.0013
3769.00,0.0014
3766.00,0.0014
3763.00,0.0014
3760.00,0.0014
3757.00,0.0014
3754.00,0.0016
3751.00,0.0017
3748.00,0.0018
3745.00,0.0017
3742.00,0.0016
3739.00,0.0016
3736.00,0.0016
3733.00,0.0015
3730.00,0.0015
3727.00,0.0014
3724.00,0.0013
3721.00,0.0013
3718.00,0.0012
3715.00,0.0012
3712.00,0.0013
3709.00,0.0013
3706.00,0.0013
3703.00,0.0012
3700.00,0.0011
3697.00,0.0011
3694.00,0.0012
3691.00,0.0014
3688.00,0.0015
3685.00,0.0014
3682.00,0.0012
3679.00,0.0013
3676.00,0.0015
3673.00,0.0015
3670.00,0.0015
3667.00,0.0014
3664.00,0.0012
3661.00,0.0012
3658.00,0.0013
3655.00,0.0013
3652.00,0.0014
3649.00,0.0015
3646.00,0.0015
3643.00,0.0013
3640.00,0.0012
3637.00,0.0012
3634.00,0.0012
3631.00,0.0013
3628.00,0.0013
3625.00,0.0013
3622.00,0.0012
3619.00,0.0012
3616.00,0.0013
3613.00,0.0013
3610.00,0.0013
3607.00,0.0011
3604.00,0.0011
3601.00,0.0012
3598.00,0.0012
3595.00,0.0012
3592.00,0.0012
3589.00,0.0012
3586.00,0.0011
3583.00,0.0012
3580.00,0.0012
3577.00,0.0012
3574.00,0.0012
3571.00,0.0012
3568.00,0.0013
3565.00,0.0013
3562.00,0.0013
3559.00,0.0012
3556.00,0.0012
3553.00,0.0012
3550.00,0.0013
3547.00,0.0013
3544.00,0.0013
3541.00,0.0013
3538.00,0.0013
3535.00,0.0014
3532.00,0.0013
3529.00,0.0013
3526.00,0.0014
3523.00,0.0014
3520.00,0.0014
3517.00,0.0014
3514.00,0.0014
3511.00,0.0014
3508.00,0.0014
3505.00,0.0015
3502.00,0.0015
3499.00,0.0015
3496.00,0.0015
3493.00,0.0015
3490.00,0.0016
3487.00,0.0016
3484.00,0.0016
3481.00,0.0016
3478.00,0.0016
3475.00,0.0016
3472.00,0.0016
3469.00,0.0016
3466.00,0.0016
3463.00,0.0016
3460.00,0.0016
3457.00,0.0016
3454.00,0.0016
3451.00,0.0016
3448.00,0.0016
3445.00,0.0017
3442.00,0.0017
3439.00,0.0016
3436.00,0.0017
3433.00,0.0016
3430.00,0.0016
3427.00,0.0016
3424.00,0.0016
3421.00,0.0017
3418.00,0.0017
3415.00,0.0016
3412.00,0.0017
3409.00,0.0016
3406.00,0.0016
3403.00,0.0017
3400.00,0.0017
3397.00,0.0017
3394.00,0.0017
3391.00,0.0017
3388.00,0.0017
3385.00,0.0017
3382.00,0.0017
3379.00,0.0017
3376.00,0.0017
3373.00,0.0017
3370.00,0.0017
3367.00,0.0017
3364.00,0.0017
3361.00,0.0018
3358.00,0.0018
3355.00,0.0018
3352.00,0.0018
3349.00,0.0017
3346.00,0.0017
3343.00,0.0017
3340.00,0.0018
3337.00,0.0018
3334.00,0.0018
3331.00,0.0017
3328.00,0.0017
3325.00,0.0017
3322.00,0.0017
3319.00,0.0017
3316.00,0.0017
3313.00,0.0017
3310.00,0.0017
3307.00,0.0017
3304.00,0.0017
3301.00,0.0017
3298.00,0.0018
3295.00,0.0017
3292.00,0.0017
3289.00,0.0017
3286.00,0.0017
3283.00,0.0017
3280.00,0.0017
3277.00,0.0017
3274.00,0.0017
3271.00,0.0017
3268.00,0.0017
3265.00,0.0016
3262.00,0.0016
3259.00,0.0016
3256.00,0.0017
3253.00,0.0017
3250.00,0.0017
3247.00,0.0016
3244.00,0.0016
3241.00,0.0016
3238.00,0.0016
3235.00,0.0016
3232.00,0.0016
3229.00,0.0016
3226.00,0.0016
3223.00,0.0016
3220.00,0.0016
3217.00,0.0015
3214.00,0.0015
3211.00,0.0016
3208.00,0.0016
3205.00,0.0016
3202.00,0.0016
3199.00,0.0016
3196.00,0.0015
3193.00,0.0015
3190.00,0.0015
3187.00,0.0015
3184.00,0.0015
3181.00,0.0015
3178.00,0.0015
3175.00,0.0015
3172.00,0.0015
3169.00,0.0015
3166.00,0.0015
3163.00,0.0015
3160.00,0.0015
3157.00,0.0015
3154.00,0.0015
3151.00,0.0014
3148.00,0.0014
3145.00,0.0014
3142.00,0.0014
3139.00,0.0014
3136.00,0.0014
3133.00,0.0014
3130.00,0.0014
3127.00,0.0014
3124.00,0.0014
3121.00,0.0015
3118.00,0.0017
3115.00,0.0018
3112.00,0.0021
3109.00,0.0025
3106.00,0.0030
3103.00,0.0030
3100.00,0.0030
3097.00,0.0029
3094.00,0.0032
3091.00,0.0041
3088.00,0.0053
3085.00,0.0065
3082.00,0.0068
3079.00,0.0061
3076.00,0.0054
3073.00,0.0053
3070.00,0.0058
3067.00,0.0068
3064.00,0.0082
3061.00,0.0091
3058.00,0.0088
3055.00,0.0075
3052.00,0.0063
3049.00,0.0055
3046.00,0.0051
3043.00,0.0054
3040.00,0.0062
3037.00,0.0076
3034.00,0.0099
3031.00,0.0131
3028.00,0.0161
3025.00,0.0168
3022.00,0.0143
3019.00,0.0104
3016.00,0.0074
3013.00,0.0058
3010.00,0.0052
3007.00,0.0052
3004.00,0.0056
3001.00,0.0056
2998.00,0.0049
2995.00,0.0041
2992.00,0.0036
2989.00,0.0034
2986.00,0.0034
2983.00,0.0034
2980.00,0.0035
2977.00,0.0036
2974.00,0.0037
2971.00,0.0039
2968.00,0.0041
2965.00,0.0045
2962.00,0.0049
2959.00,0.0055
2956.00,0.0061
2953.00,0.0068
2950.00,0.0076
2947.00,0.0088
2944.00,0.0102
2941.00,0.0118
2938.00,0.0137
2935.00,0.0158
2932.00,0.0178
2929.00,0.0197
2926.00,0.0211
2923.00,0.0218
2920.00,0.0217
2917.00,0.0211
2914.00,0.0200
2911.00,0.0186
2908.00,0.0172
2905.00,0.0157
2902.00,0.0141
2899.00,0.0126
2896.00,0.0113
2893.00,0.0103
2890.00,0.0096
2887.00,0.0089
2884.00,0.0084
2881.00,0.0079
2878.00,0.0075
2875.00,0.0072
2872.00,0.0069
2869.00,0.0069
2866.00,0.0070
2863.00,0.0075
2860.00,0.0083
2857.00,0.0092
2854.00,0.0100
2851.00,0.0105
2848.00,0.0103
2845.00,0.0094
2842.00,0.0080
2839.00,0.0064
2836.00,0.0051
2833.00,0.0042
2830.00,0.0036
2827.00,0.0033
2824.00,0.0030
2821.00,0.0029
2818.00,0.0028
2815.00,0.0027
2812.00,0.0027
2809.00,0.0026
2806.00,0.0025
2803.00,0.0024
2800.00,0.0024
2797.00,0.0023
2794.00,0.0022
2791.00,0.0022
2788.00,0.0022
2785.00,0.0022
2782.00,0.0021
2779.00,0.0021
2776.00,0.0020
2773.00,0.0020
2770.00,0.0020
2767.00,0.0019
2764.00,0.0019
2761.00,0.0019
2758.00,0.0019
2755.00,0.0019
2752.00,0.0019
2749.00,0.0018
2746.00,0.0019
2743.00,0.0018
2740.00,0.0018
2737.00,0.0018
2734.00,0.0018
2731.00,0.0018
2728.00,0.0019
2725.00,0.0019
2722.00,0.0018
2719.00,0.0019
2716.00,0.0019
2713.00,0.0018
2710.00,0.0018
2707.00,0.0018
2704.00,0.0018
2701.00,0.0018
2698.00,0.0018
2695.00,0.0018
2692.00,0.0018
2689.00,0.0018
2686.00,0.0018
2683.00,0.0018
2680.00,0.0018
2677.00,0.0018
2674.00,0.0018
2671.00,0.0018
2668.00,0.0019
2665.00,0.0020
2662.00,0.0022
2659.00,0.0023
2656.00,0.0023
2653.00,0.0024
2650.00,0.0024
2647.00,0.0024
2644.00,0.0024
2641.00,0.0024
2638.00,0.0024
2635.00,0.0024
2632.00,0.0024
2629.00,0.0024
2626.00,0.0023
2623.00,0.0022
2620.00,0.0021
2617.00,0.0021
2614.00,0.0021
2611.00,0.0021
2608.00,0.0022
2605.00,0.0022
2602.00,0.0021
2599.00,0.0020
2596.00,0.0019
2593.00,0.0019
2590.00,0.0019
2587.00,0.0019
2584.00,0.0019
2581.00,0.0019
2578.00,0.0018
2575.00,0.0018
2572.00,0.0018
2569.00,0.0017
2566.00,0.0017
2563.00,0.0016
2560.00,0.0016
2557.00,0.0016
2554.00,0.0016
2551.00,0.0016
2548.00,0.0016
2545.00,0.0016
2542.00,0.0015
2539.00,0.0015
2536.00,0.0015
2533.00,0.0014
2530.00,0.0014
2527.00,0.0015
2524.00,0.0015
2521.00,0.0015
2518.00,0.0015
2515.00,0.0014
2512.00,0.0014
2509.00,0.0014
2506.00,0.0014
2503.00,0.0014
2500.00,0.0014
2497.00,0.0014
2494.00,0.0013
2491.00,0.0013
2488.00,0.0013
2485.00,0.0013
2482.00,0.0012
2479.00,0.0012
2476.00,0.0012
2473.00,0.0013
2470.00,0.0012
2467.00,0.0012
2464.00,0.0012
2461.00,0.0013
2458.00,0.0014
2455.00,0.0014
2452.00,0.0014
2449.00,0.0013
2446.00,0.0013
2443.00,0.0012
2440.00,0.0012
2437.00,0.0011
2434.00,0.0011
2431.00,0.0011
2428.00,0.0010
2425.00,0.0010
2422.00,0.0010
2419.00,0.0011
2416.00,0.0010
2413.00,0.0010
2410.00,0.0009
2407.00,0.0008
2404.00,0.0008
2401.00,0.0008
2398.00,0.0008
2395.00,0.0008
2392.00,0.0008
2389.00,0.0008
2386.00,0.0008
2383.00,0.0007
2380.00,0.0007
2377.00,0.0008
2374.00,0.0008
2371.00,0.0008
2368.00,0.0007
2365.00,0.0008
2362.00,0.0009
2359.00,0.0010
2356.00,0.0010
2353.00,0.0010
2350.00,0.0010
2347.00,0.0013
2344.00,0.0015
2341.00,0.0015
2338.00,0.0016
2335.00,0.0015
2332.00,0.0014
2329.00,0.0017
2326.00,0.0028
2323.00,0.0026
2320.00,0.0022
2317.00,0.0020
2314.00,0.0019
2311.00,0.0018
2308.00,0.0018
2305.00,0.0017
2302.00,0.0017
2299.00,0.0018
2296.00,0.0020
2293.00,0.0022
2290.00,0.0024
2287.00,0.0025
2284.00,0.0023
2281.00,0.0021
2278.00,0.0019
2275.00,0.0017
2272.00,0.0018
2269.00,0.0017
2266.00,0.0015
2263.00,0.0015
2260.00,0.0017
2257.00,0.0016
2254.00,0.0013
2251.00,0.0013
2248.00,0.0015
2245.00,0.0015
2242.00,0.0014
2239.00,0.0015
2236.00,0.0015
2233.00,0.0014
2230.00,0.0013
2227.00,0.0013
2224.00,0.0014
2221.00,0.0012
2218.00,0.0011
2215.00,0.0011
2212.00,0.0012
2209.00,0.0013
2206.00,0.0014
2203.00,0.0012
2200.00,0.0012
2197.00,0.0013
2194.00,0.0013
2191.00,0.0014
2188.00,0.0018
2185.00,0.0012
2182.00,0.0009
2179.00,0.0011
2176.00,0.0007
2173.00,0.0013
2170.00,0.0018
2167.00,0.0020
2164.00,0.0026
2161.00,0.0004
2158.00,-0.0031
2155.00,-0.0020
2152.00,-0.0011
2149.00,-0.0010
2146.00,-0.0011
2143.00,-0.0010
2140.00,-0.0011
2137.00,-0.0012
2134.00,-0.0015
2131.00,-0.0010
2128.00,-0.0004
2125.00,-0.0001
2122.00,0.0001
2119.00,0.0004
2116.00,0.0009
2113.00,0.0009
2110.00,0.0010
2107.00,0.0009
2104.00,0.0007
2101.00,0.0007
2098.00,0.0005
2095.00,0.0001
2092.00,0.0004
2089.00,0.0007
2086.00,0.0008
2083.00,0.0010
2080.00,0.0011
2077.00,0.0011
2074.00,0.0010
2071.00,0.0008
2068.00,0.0010
2065.00,0.0008
2062.00,0.0006
2059.00,0.0007
2056.00,0.0008
2053.00,0.0017
2050.00,0.0018
2047.00,0.0012
2044.00,0.0010
2041.00,0.0010
2038.00,0.0013
2035.00,0.0009
2032.00,0.0004
2029.00,0.0002
2026.00,-0.0002
2023.00,-0.0002
2020.00,-0.0000
2017.00,-0.0000
2014.00,0.0003
2011.00,0.0007
2008.00,-0.0001
2005.00,-0.0005
2002.00,0.0000
1999.00,0.0006
1996.00,0.0007
1993.00,0.0012
1990.00,0.0011
1987.00,0.0014
1984.00,0.0018
1981.00,0.0023
1978.00,0.0006
1975.00,-0.0001
1972.00,0.0003
1969.00,0.0005
1966.00,0.0008
1963.00,0.0008
1960.00,0.0005
1957.00,0.0008
1954.00,0.0015
1951.00,0.0020
1948.00,0.0022
1945.00,0.0025
1942.00,0.0024
1939.00,0.0023
1936.00,0.0018
1933.00,0.0014
1930.00,0.0010
1927.00,0.0008
1924.00,0.0007
1921.00,0.0009
1918.00,0.0008
1915.00,0.0006
1912.00,0.0006
1909.00,0.0006
1906.00,0.0008
1903.00,0.0009
1900.00,0.0009
1897.00,0.0010
1894.00,0.0014
1891.00,0.0015
1888.00,0.0017
1885.00,0.0019
1882.00,0.0021
1879.00,0.0022
1876.00,0.0023
1873.00,0.0025
1870.00,0.0025
1867.00,0.0024
1864.00,0.0023
1861.00,0.0020
1858.00,0.0017
1855.00,0.0013
1852.00,0.0012
1849.00,0.0010
1846.00,0.0009
1843.00,0.0009
1840.00,0.0009
1837.00,0.0009
1834.00,0.0010
1831.00,0.0012
1828.00,0.0013
1825.00,0.0015
1822.00,0.0017
1819.00,0.0017
1816.00,0.0019
1813.00,0.0023
1810.00,0.0026
1807.00,0.0029
1804.00,0.0030
1801.00,0.0031
1798.00,0.0030
1795.00,0.0027
1792.00,0.0024
1789.00,0.0021
1786.00,0.0019
1783.00,0.0018
1780.00,0.0019
1777.00,0.0019
1774.00,0.0020
1771.00,0.0019
1768.00,0.0020
1765.00,0.0022
1762.00,0.0024
1759.00,0.0027
1756.00,0.0030
1753.00,0.0034
1750.00,0.0039
1747.00,0.0042
1744.00,0.0043
1741.00,0.0044
1738.00,0.0043
1735.00,0.0041
1732.00,0.0039
1729.00,0.0036
1726.00,0.0034
1723.00,0.0033
1720.00,0.0032
1717.00,0.0031
1714.00,0.0030
1711.00,0.0028
1708.00,0.0028
1705.00,0.0028
1702.00,0.0029
1699.00,0.0029
1696.00,0.0029
1693.00,0.0031
1690.00,0.0033
1687.00,0.0035
1684.00,0.0038
1681.00,0.0039
1678.00,0.0040
1675.00,0.0041
1672.00,0.0041
1669.00,0.0041
1666.00,0.0042
1663.00,0.0041
1660.00,0.0040
1657.00,0.0038
1654.00,0.0036
1651.00,0.0033
1648.00,0.0032
1645.00,0.0030
1642.00,0.0028
1639.00,0.0028
1636.00,0.0027
1633.00,0.0026
1630.00,0.0027
1627.00,0.0028
1624.00,0.0030
1621.00,0.0031
1618.00,0.0033
1615.00,0.0036
1612.00,0.0044
1609.00,0.0068
1606.00,0.0115
1603.00,0.0166
1600.00,0.0169
1597.00,0.0121
1594.00,0.0083
1591.00,0.0065
1588.00,0.0063
1585.00,0.0079
1582.00,0.0077
1579.00,0.0054
1576.00,0.0039
1573.00,0.0031
1570.00,0.0027
1567.00,0.0026
1564.00,0.0024
1561.00,0.0024
1558.00,0.0025
1555.00,0.0026
1552.00,0.0028
1549.00,0.0031
1546.00,0.0032
1543.00,0.0034
1540.00,0.0033
1537.00,0.0031
1534.00,0.0029
1531.00,0.0027
1528.00,0.0025
1525.00,0.0024
1522.00,0.0024
1519.00,0.0024
1516.00,0.0025
1513.00,0.0027
1510.00,0.0030
1507.00,0.0035
1504.00,0.0044
1501.00,0.0069
1498.00,0.0151
1495.00,0.0349
1492.00,0.0414
1489.00,0.0253
1486.00,0.0140
1483.00,0.0089
1480.00,0.0065
1477.00,0.0055
1474.00,0.0052
1471.00,0.0053
1468.00,0.0056
1465.00,0.0062
1462.00,0.0075
1459.00,0.0110
1456.00,0.0273
1453.00,0.0417
1450.00,0.0402
1447.00,0.0315
1444.00,0.0252
1441.00,0.0199
1438.00,0.0160
1435.00,0.0121
1432.00,0.0095
1429.00,0.0076
1426.00,0.0066
1423.00,0.0059
1420.00,0.0055
1417.00,0.0053
1414.00,0.0050
1411.00,0.0048
1408.00,0.0048
1405.00,0.0048
1402.00,0.0048
1399.00,0.0049
1396.00,0.0052
1393.00,0.0056
1390.00,0.0061
1387.00,0.0071
1384.00,0.0080
1381.00,0.0088
1378.00,0.0097
1375.00,0.0102
1372.00,0.0106
1369.00,0.0104
1366.00,0.0103
1363.00,0.0101
1360.00,0.0098
1357.00,0.0094
1354.00,0.0091
1351.00,0.0089
1348.00,0.0088
1345.00,0.0086
1342.00,0.0083
1339.00,0.0081
1336.00,0.0082
1333.00,0.0086
1330.00,0.0091
1327.00,0.0091
1324.00,0.0088
1321.00,0.0086
1318.00,0.0086
1315.00,0.0088
1312.00,0.0090
1309.00,0.0087
1306.00,0.0084
1303.00,0.0081
1300.00,0.0079
1297.00,0.0078
1294.00,0.0077
1291.00,0.0077
1288.00,0.0075
1285.00,0.0073
1282.00,0.0072
1279.00,0.0069
1276.00,0.0065
1273.00,0.0062
1270.00,0.0059
1267.00,0.0056
1264.00,0.0055
1261.00,0.0054
1258.00,0.0054
1255.00,0.0054
1252.00,0.0055
1249.00,0.0055
1246.00,0.0056
1243.00,0.0055
1240.00,0.0055
1237.00,0.0055
1234.00,0.0055
1231.00,0.0055
1228.00,0.0055
1225.00,0.0055
1222.00,0.0055
1219.00,0.0055
1216.00,0.0056
1213.00,0.0057
1210.00,0.0060
1207.00,0.0062
1204.00,0.0067
1201.00,0.0072
1198.00,0.0076
1195.00,0.0078
1192.00,0.0080
1189.00,0.0083
1186.00,0.0091
1183.00,0.0104
1180.00,0.0105
1177.00,0.0089
1174.00,0.0075
1171.00,0.0069
1168.00,0.0068
1165.00,0.0070
1162.00,0.0076
1159.00,0.0092
1156.00,0.0109
1153.00,0.0107
1150.00,0.0084
1147.00,0.0068
1144.00,0.0058
1141.00,0.0054
1138.00,0.0051
1135.00,0.0050
1132.00,0.0050
1129.00,0.0051
1126.00,0.0050
1123.00,0.0052
1120.00,0.0056
1117.00,0.0060
1114.00,0.0064
1111.00,0.0065
1108.00,0.0065
1105.00,0.0065
1102.00,0.0067
1099.00,0.0068
1096.00,0.0072
1093.00,0.0076
1090.00,0.0078
1087.00,0.0083
1084.00,0.0091
1081.00,0.0100
1078.00,0.0109
1075.00,0.0122
1072.00,0.0138
1069.00,0.0147
1066.00,0.0141
1063.00,0.0127
1060.00,0.0114
1057.00,0.0105
1054.00,0.0096
1051.00,0.0087
1048.00,0.0081
1045.00,0.0078
1042.00,0.0078
1039.00,0.0087
1036.00,0.0115
1033.00,0.0171
1030.00,0.0224
1027.00,0.0230
1024.00,0.0190
1021.00,0.0155
1018.00,0.0134
1015.00,0.0119
1012.00,0.0110
1009.00,0.0106
1006.00,0.0109
1003.00,0.0111
1000.00,0.0099
997.00,0.0087
994.00,0.0084
991.00,0.0084
988.00,0.0088
985.00,0.0095
982.00,0.0101
979.00,0.0102
976.00,0.0098
973.00,0.0094
970.00,0.0098
967.00,0.0106
964.00,0.0110
961.00,0.0103
958.00,0.0091
955.00,0.0082
952.00,0.0080
949.00,0.0081
946.00,0.0084
943.00,0.0085
940.00,0.0082
937.00,0.0077
934.00,0.0070
931.00,0.0065
928.00,0.0063
925.00,0.0064
922.00,0.0068
919.00,0.0075
916.00,0.0090
913.00,0.0113
910.00,0.0141
907.00,0.0159
904.00,0.0152
901.00,0.0125
898.00,0.0095
895.00,0.0076
892.00,0.0066
889.00,0.0060
886.00,0.0056
883.00,0.0052
880.00,0.0051
877.00,0.0049
874.00,0.0048
871.00,0.0046
868.00,0.0045
865.00,0.0045
862.00,0.0045
859.00,0.0045
856.00,0.0046
853.00,0.0052
850.00,0.0061
847.00,0.0075
844.00,0.0086
841.00,0.0089
838.00,0.0081
835.00,0.0065
832.00,0.0053
829.00,0.0047
826.00,0.0043
823.00,0.0042
820.00,0.0043
817.00,0.0044
814.00,0.0044
811.00,0.0043
808.00,0.0044
805.00,0.0045
802.00,0.0047
799.00,0.0050
796.00,0.0055
793.00,0.0065
790.00,0.0078
787.00,0.0092
784.00,0.0110
781.00,0.0134
778.00,0.0168
775.00,0.0218
772.00,0.0280
769.00,0.0354
766.00,0.0431
763.00,0.0504
760.00,0.0580
757.00,0.0639
754.00,0.0657
751.00,0.0651
748.00,0.0640
745.00,0.0588
742.00,0.0476
739.00,0.0364
736.00,0.0271
733.00,0.0190
730.00,0.0132
727.00,0.0102
724.00,0.0088
721.00,0.0084
718.00,0.0088
715.00,0.0107
712.00,0.0161
709.00,0.0289
706.00,0.0530
703.00,0.0886
700.00,0.1323
697.00,0.1737
694.00,0.1810
691.00,0.1346
688.00,0.0877
685.00,0.0618
682.00,0.0478
679.00,0.0392
676.00,0.0339
673.00,0.0303
670.00,0.0278
667.00,0.0251
664.00,0.0226
661.00,0.0203
658.00,0.0182
655.00,0.0163
652.00,0.0148
649.00,0.0137
646.00,0.0130
643.00,0.0124
640.00,0.0123
637.00,0.0128
634.00,0.0137
631.00,0.0142
628.00,0.0147
625.00,0.0153
622.00,0.0160
619.00,0.0157
616.00,0.0146
613.00,0.0138
610.00,0.0131
607.00,0.0128
604.00,0.0127
601.00,0.0131
598.00,0.0136
595.00,0.0140
592.00,0.0143
589.00,0.0153
586.00,0.0156
583.00,0.0165
580.00,0.0181
577.00,0.0199
574.00,0.0222
571.00,0.0246
568.00,0.0272
565.00,0.0299
562.00,0.0321
559.00,0.0346
556.00,0.0374
553.00,0.0405
550.00,0.0445
547.00,0.0497
544.00,0.0561
541.00,0.0619
538.00,0.0641
535.00,0.0608
532.00,0.0534
529.00,0.0448
526.00,0.0370
523.00,0.0314
520.00,0.0276
517.00,0.0250
514.00,0.0227
511.00,0.0211
508.00,0.0199
505.00,0.0182
502.00,0.0171
499.00,0.0159
496.00,0.0153
493.00,0.0142
490.00,0.0135
487.00,0.0129
484.00,0.0127
481.00,0.0128
478.00,0.0128
475.00,0.0127
472.00,0.0117
469.00,0.0119
466.00,0.0120
463.00,0.0119
460.00,0.0119
457.00,0.0120
454.00,0.0114
451.00,0.0113
448.00,0.0106
445.00,0.0105
442.00,0.0104
439.00,0.0099
436.00,0.0101
433.00,0.0098
430.00,0.0089
427.00,0.0088
424.00,0.0088
421.00,0.0097
418.00,0.0090
415.00,0.0093
412.00,0.0091
409.00,0.0106
406.00,0.0109
403.00,0.0089
400.00,0.0091