File: FTIR/Olivia/2025_08_04_1CBN_3PVP90kDa_MortPest_powder_scan1.csv
Created as New Dataset,Sample 1051 By YargerLab Date Monday, August 04 2025
cm-1,A
4000.00,0.0024
3997.00,0.0024
3994.00,0.0024
3991.00,0.0024
3988.00,0.0024
3985.00,0.0024
3982.00,0.0024
3979.00,0.0024
3976.00,0.0024
3973.00,0.0024
3970.00,0.0024
3967.00,0.0024
3964.00,0.0023
3961.00,0.0023
3958.00,0.0023
3955.00,0.0024
3952.00,0.0024
3949.00,0.0023
3946.00,0.0023
3943.00,0.0023
3940.00,0.0023
3937.00,0.0023
3934.00,0.0023
3931.00,0.0023
3928.00,0.0023
3925.00,0.0023
3922.00,0.0024
3919.00,0.0023
3916.00,0.0023
3913.00,0.0023
3910.00,0.0024
3907.00,0.0023
3904.00,0.0023
3901.00,0.0023
3898.00,0.0023
3895.00,0.0023
3892.00,0.0023
3889.00,0.0023
3886.00,0.0022
3883.00,0.0023
3880.00,0.0023
3877.00,0.0023
3874.00,0.0023
3871.00,0.0023
3868.00,0.0023
3865.00,0.0022
3862.00,0.0023
3859.00,0.0023
3856.00,0.0023
3853.00,0.0023
3850.00,0.0022
3847.00,0.0023
3844.00,0.0023
3841.00,0.0023
3838.00,0.0022
3835.00,0.0022
3832.00,0.0023
3829.00,0.0023
3826.00,0.0023
3823.00,0.0023
3820.00,0.0023
3817.00,0.0022
3814.00,0.0022
3811.00,0.0023
3808.00,0.0023
3805.00,0.0023
3802.00,0.0022
3799.00,0.0022
3796.00,0.0023
3793.00,0.0023
3790.00,0.0023
3787.00,0.0023
3784.00,0.0023
3781.00,0.0023
3778.00,0.0023
3775.00,0.0023
3772.00,0.0023
3769.00,0.0023
3766.00,0.0023
3763.00,0.0024
3760.00,0.0023
3757.00,0.0023
3754.00,0.0023
3751.00,0.0022
3748.00,0.0022
3745.00,0.0022
3742.00,0.0022
3739.00,0.0022
3736.00,0.0021
3733.00,0.0021
3730.00,0.0021
3727.00,0.0022
3724.00,0.0022
3721.00,0.0022
3718.00,0.0022
3715.00,0.0022
3712.00,0.0022
3709.00,0.0021
3706.00,0.0021
3703.00,0.0021
3700.00,0.0022
3697.00,0.0022
3694.00,0.0022
3691.00,0.0022
3688.00,0.0022
3685.00,0.0021
3682.00,0.0022
3679.00,0.0023
3676.00,0.0022
3673.00,0.0022
3670.00,0.0022
3667.00,0.0022
3664.00,0.0023
3661.00,0.0024
3658.00,0.0023
3655.00,0.0023
3652.00,0.0023
3649.00,0.0023
3646.00,0.0023
3643.00,0.0024
3640.00,0.0025
3637.00,0.0025
3634.00,0.0026
3631.00,0.0026
3628.00,0.0026
3625.00,0.0026
3622.00,0.0027
3619.00,0.0028
3616.00,0.0028
3613.00,0.0028
3610.00,0.0029
3607.00,0.0030
3604.00,0.0030
3601.00,0.0031
3598.00,0.0031
3595.00,0.0031
3592.00,0.0033
3589.00,0.0034
3586.00,0.0033
3583.00,0.0034
3580.00,0.0035
3577.00,0.0036
3574.00,0.0037
3571.00,0.0038
3568.00,0.0038
3565.00,0.0039
3562.00,0.0041
3559.00,0.0042
3556.00,0.0043
3553.00,0.0043
3550.00,0.0045
3547.00,0.0046
3544.00,0.0047
3541.00,0.0048
3538.00,0.0049
3535.00,0.0051
3532.00,0.0052
3529.00,0.0052
3526.00,0.0054
3523.00,0.0055
3520.00,0.0056
3517.00,0.0057
3514.00,0.0058
3511.00,0.0059
3508.00,0.0060
3505.00,0.0062
3502.00,0.0063
3499.00,0.0064
3496.00,0.0066
3493.00,0.0068
3490.00,0.0069
3487.00,0.0071
3484.00,0.0073
3481.00,0.0075
3478.00,0.0076
3475.00,0.0079
3472.00,0.0082
3469.00,0.0084
3466.00,0.0086
3463.00,0.0089
3460.00,0.0092
3457.00,0.0094
3454.00,0.0097
3451.00,0.0100
3448.00,0.0103
3445.00,0.0106
3442.00,0.0109
3439.00,0.0113
3436.00,0.0117
3433.00,0.0121
3430.00,0.0125
3427.00,0.0130
3424.00,0.0135
3421.00,0.0140
3418.00,0.0144
3415.00,0.0148
3412.00,0.0152
3409.00,0.0156
3406.00,0.0159
3403.00,0.0161
3400.00,0.0161
3397.00,0.0161
3394.00,0.0160
3391.00,0.0159
3388.00,0.0156
3385.00,0.0153
3382.00,0.0150
3379.00,0.0147
3376.00,0.0144
3373.00,0.0140
3370.00,0.0138
3367.00,0.0135
3364.00,0.0133
3361.00,0.0130
3358.00,0.0128
3355.00,0.0127
3352.00,0.0125
3349.00,0.0123
3346.00,0.0122
3343.00,0.0121
3340.00,0.0120
3337.00,0.0120
3334.00,0.0119
3331.00,0.0119
3328.00,0.0119
3325.00,0.0119
3322.00,0.0120
3319.00,0.0120
3316.00,0.0121
3313.00,0.0122
3310.00,0.0122
3307.00,0.0123
3304.00,0.0125
3301.00,0.0127
3298.00,0.0128
3295.00,0.0129
3292.00,0.0131
3289.00,0.0133
3286.00,0.0135
3283.00,0.0136
3280.00,0.0138
3277.00,0.0140
3274.00,0.0141
3271.00,0.0143
3268.00,0.0145
3265.00,0.0146
3262.00,0.0148
3259.00,0.0150
3256.00,0.0151
3253.00,0.0153
3250.00,0.0155
3247.00,0.0156
3244.00,0.0157
3241.00,0.0158
3238.00,0.0158
3235.00,0.0158
3232.00,0.0158
3229.00,0.0158
3226.00,0.0157
3223.00,0.0156
3220.00,0.0155
3217.00,0.0154
3214.00,0.0152
3211.00,0.0151
3208.00,0.0148
3205.00,0.0145
3202.00,0.0142
3199.00,0.0140
3196.00,0.0137
3193.00,0.0134
3190.00,0.0131
3187.00,0.0128
3184.00,0.0125
3181.00,0.0122
3178.00,0.0119
3175.00,0.0117
3172.00,0.0114
3169.00,0.0111
3166.00,0.0108
3163.00,0.0104
3160.00,0.0101
3157.00,0.0098
3154.00,0.0094
3151.00,0.0091
3148.00,0.0090
3145.00,0.0087
3142.00,0.0084
3139.00,0.0082
3136.00,0.0080
3133.00,0.0078
3130.00,0.0076
3127.00,0.0074
3124.00,0.0072
3121.00,0.0071
3118.00,0.0070
3115.00,0.0068
3112.00,0.0066
3109.00,0.0064
3106.00,0.0062
3103.00,0.0060
3100.00,0.0059
3097.00,0.0059
3094.00,0.0058
3091.00,0.0059
3088.00,0.0059
3085.00,0.0059
3082.00,0.0059
3079.00,0.0058
3076.00,0.0058
3073.00,0.0056
3070.00,0.0056
3067.00,0.0056
3064.00,0.0056
3061.00,0.0056
3058.00,0.0057
3055.00,0.0057
3052.00,0.0057
3049.00,0.0056
3046.00,0.0056
3043.00,0.0056
3040.00,0.0057
3037.00,0.0059
3034.00,0.0061
3031.00,0.0061
3028.00,0.0060
3025.00,0.0057
3022.00,0.0055
3019.00,0.0053
3016.00,0.0052
3013.00,0.0053
3010.00,0.0054
3007.00,0.0056
3004.00,0.0060
3001.00,0.0065
2998.00,0.0073
2995.00,0.0083
2992.00,0.0091
2989.00,0.0096
2986.00,0.0103
2983.00,0.0115
2980.00,0.0132
2977.00,0.0141
2974.00,0.0151
2971.00,0.0172
2968.00,0.0185
2965.00,0.0194
2962.00,0.0207
2959.00,0.0210
2956.00,0.0197
2953.00,0.0177
2950.00,0.0164
2947.00,0.0162
2944.00,0.0171
2941.00,0.0187
2938.00,0.0210
2935.00,0.0245
2932.00,0.0287
2929.00,0.0323
2926.00,0.0337
2923.00,0.0325
2920.00,0.0299
2917.00,0.0269
2914.00,0.0240
2911.00,0.0217
2908.00,0.0199
2905.00,0.0184
2902.00,0.0171
2899.00,0.0160
2896.00,0.0150
2893.00,0.0143
2890.00,0.0136
2887.00,0.0131
2884.00,0.0127
2881.00,0.0129
2878.00,0.0137
2875.00,0.0152
2872.00,0.0160
2869.00,0.0159
2866.00,0.0160
2863.00,0.0177
2860.00,0.0209
2857.00,0.0237
2854.00,0.0243
2851.00,0.0230
2848.00,0.0196
2845.00,0.0158
2842.00,0.0129
2839.00,0.0109
2836.00,0.0096
2833.00,0.0087
2830.00,0.0081
2827.00,0.0075
2824.00,0.0070
2821.00,0.0067
2818.00,0.0064
2815.00,0.0062
2812.00,0.0060
2809.00,0.0058
2806.00,0.0057
2803.00,0.0056
2800.00,0.0055
2797.00,0.0053
2794.00,0.0051
2791.00,0.0050
2788.00,0.0049
2785.00,0.0048
2782.00,0.0047
2779.00,0.0047
2776.00,0.0046
2773.00,0.0045
2770.00,0.0045
2767.00,0.0045
2764.00,0.0044
2761.00,0.0045
2758.00,0.0045
2755.00,0.0045
2752.00,0.0044
2749.00,0.0044
2746.00,0.0045
2743.00,0.0046
2740.00,0.0046
2737.00,0.0047
2734.00,0.0049
2731.00,0.0050
2728.00,0.0050
2725.00,0.0049
2722.00,0.0048
2719.00,0.0047
2716.00,0.0047
2713.00,0.0046
2710.00,0.0046
2707.00,0.0046
2704.00,0.0045
2701.00,0.0045
2698.00,0.0044
2695.00,0.0044
2692.00,0.0043
2689.00,0.0043
2686.00,0.0042
2683.00,0.0042
2680.00,0.0042
2677.00,0.0042
2674.00,0.0042
2671.00,0.0043
2668.00,0.0043
2665.00,0.0044
2662.00,0.0045
2659.00,0.0047
2656.00,0.0047
2653.00,0.0047
2650.00,0.0048
2647.00,0.0047
2644.00,0.0047
2641.00,0.0047
2638.00,0.0046
2635.00,0.0045
2632.00,0.0045
2629.00,0.0044
2626.00,0.0043
2623.00,0.0042
2620.00,0.0042
2617.00,0.0042
2614.00,0.0041
2611.00,0.0042
2608.00,0.0041
2605.00,0.0041
2602.00,0.0042
2599.00,0.0043
2596.00,0.0043
2593.00,0.0043
2590.00,0.0043
2587.00,0.0043
2584.00,0.0042
2581.00,0.0042
2578.00,0.0042
2575.00,0.0042
2572.00,0.0041
2569.00,0.0041
2566.00,0.0041
2563.00,0.0040
2560.00,0.0040
2557.00,0.0039
2554.00,0.0038
2551.00,0.0037
2548.00,0.0038
2545.00,0.0038
2542.00,0.0038
2539.00,0.0038
2536.00,0.0038
2533.00,0.0038
2530.00,0.0038
2527.00,0.0037
2524.00,0.0036
2521.00,0.0035
2518.00,0.0035
2515.00,0.0035
2512.00,0.0035
2509.00,0.0034
2506.00,0.0034
2503.00,0.0034
2500.00,0.0033
2497.00,0.0033
2494.00,0.0033
2491.00,0.0033
2488.00,0.0033
2485.00,0.0033
2482.00,0.0032
2479.00,0.0032
2476.00,0.0032
2473.00,0.0032
2470.00,0.0032
2467.00,0.0032
2464.00,0.0031
2461.00,0.0032
2458.00,0.0032
2455.00,0.0033
2452.00,0.0032
2449.00,0.0032
2446.00,0.0031
2443.00,0.0031
2440.00,0.0032
2437.00,0.0031
2434.00,0.0030
2431.00,0.0030
2428.00,0.0030
2425.00,0.0030
2422.00,0.0030
2419.00,0.0029
2416.00,0.0029
2413.00,0.0029
2410.00,0.0030
2407.00,0.0029
2404.00,0.0029
2401.00,0.0029
2398.00,0.0029
2395.00,0.0029
2392.00,0.0028
2389.00,0.0027
2386.00,0.0027
2383.00,0.0027
2380.00,0.0026
2377.00,0.0026
2374.00,0.0027
2371.00,0.0026
2368.00,0.0025
2365.00,0.0026
2362.00,0.0027
2359.00,0.0027
2356.00,0.0028
2353.00,0.0027
2350.00,0.0028
2347.00,0.0029
2344.00,0.0029
2341.00,0.0030
2338.00,0.0030
2335.00,0.0030
2332.00,0.0029
2329.00,0.0031
2326.00,0.0040
2323.00,0.0039
2320.00,0.0034
2317.00,0.0033
2314.00,0.0033
2311.00,0.0031
2308.00,0.0031
2305.00,0.0031
2302.00,0.0032
2299.00,0.0033
2296.00,0.0035
2293.00,0.0037
2290.00,0.0039
2287.00,0.0040
2284.00,0.0039
2281.00,0.0036
2278.00,0.0034
2275.00,0.0032
2272.00,0.0032
2269.00,0.0031
2266.00,0.0029
2263.00,0.0029
2260.00,0.0029
2257.00,0.0028
2254.00,0.0028
2251.00,0.0029
2248.00,0.0028
2245.00,0.0029
2242.00,0.0030
2239.00,0.0030
2236.00,0.0029
2233.00,0.0029
2230.00,0.0029
2227.00,0.0029
2224.00,0.0028
2221.00,0.0027
2218.00,0.0028
2215.00,0.0029
2212.00,0.0028
2209.00,0.0029
2206.00,0.0029
2203.00,0.0027
2200.00,0.0026
2197.00,0.0026
2194.00,0.0027
2191.00,0.0029
2188.00,0.0032
2185.00,0.0029
2182.00,0.0024
2179.00,0.0025
2176.00,0.0026
2173.00,0.0029
2170.00,0.0036
2167.00,0.0037
2164.00,0.0036
2161.00,0.0027
2158.00,0.0005
2155.00,0.0006
2152.00,0.0008
2149.00,0.0011
2146.00,0.0010
2143.00,0.0011
2140.00,0.0016
2137.00,0.0011
2134.00,0.0006
2131.00,0.0012
2128.00,0.0014
2125.00,0.0018
2122.00,0.0020
2119.00,0.0022
2116.00,0.0025
2113.00,0.0025
2110.00,0.0024
2107.00,0.0023
2104.00,0.0022
2101.00,0.0023
2098.00,0.0020
2095.00,0.0017
2092.00,0.0020
2089.00,0.0022
2086.00,0.0023
2083.00,0.0025
2080.00,0.0025
2077.00,0.0027
2074.00,0.0027
2071.00,0.0025
2068.00,0.0024
2065.00,0.0022
2062.00,0.0020
2059.00,0.0021
2056.00,0.0021
2053.00,0.0025
2050.00,0.0028
2047.00,0.0019
2044.00,0.0022
2041.00,0.0022
2038.00,0.0025
2035.00,0.0023
2032.00,0.0016
2029.00,0.0014
2026.00,0.0015
2023.00,0.0016
2020.00,0.0015
2017.00,0.0016
2014.00,0.0014
2011.00,0.0016
2008.00,0.0013
2005.00,0.0010
2002.00,0.0012
1999.00,0.0015
1996.00,0.0016
1993.00,0.0021
1990.00,0.0022
1987.00,0.0023
1984.00,0.0026
1981.00,0.0030
1978.00,0.0019
1975.00,0.0013
1972.00,0.0014
1969.00,0.0018
1966.00,0.0015
1963.00,0.0014
1960.00,0.0012
1957.00,0.0013
1954.00,0.0014
1951.00,0.0014
1948.00,0.0013
1945.00,0.0014
1942.00,0.0015
1939.00,0.0016
1936.00,0.0017
1933.00,0.0017
1930.00,0.0018
1927.00,0.0018
1924.00,0.0018
1921.00,0.0019
1918.00,0.0020
1915.00,0.0021
1912.00,0.0024
1909.00,0.0029
1906.00,0.0029
1903.00,0.0025
1900.00,0.0023
1897.00,0.0025
1894.00,0.0027
1891.00,0.0026
1888.00,0.0024
1885.00,0.0023
1882.00,0.0023
1879.00,0.0023
1876.00,0.0022
1873.00,0.0022
1870.00,0.0023
1867.00,0.0023
1864.00,0.0023
1861.00,0.0024
1858.00,0.0024
1855.00,0.0024
1852.00,0.0024
1849.00,0.0027
1846.00,0.0027
1843.00,0.0025
1840.00,0.0025
1837.00,0.0024
1834.00,0.0023
1831.00,0.0024
1828.00,0.0023
1825.00,0.0024
1822.00,0.0024
1819.00,0.0023
1816.00,0.0022
1813.00,0.0023
1810.00,0.0024
1807.00,0.0025
1804.00,0.0025
1801.00,0.0026
1798.00,0.0027
1795.00,0.0028
1792.00,0.0027
1789.00,0.0027
1786.00,0.0027
1783.00,0.0027
1780.00,0.0028
1777.00,0.0029
1774.00,0.0030
1771.00,0.0030
1768.00,0.0031
1765.00,0.0029
1762.00,0.0031
1759.00,0.0032
1756.00,0.0031
1753.00,0.0031
1750.00,0.0031
1747.00,0.0032
1744.00,0.0033
1741.00,0.0032
1738.00,0.0031
1735.00,0.0033
1732.00,0.0035
1729.00,0.0037
1726.00,0.0039
1723.00,0.0041
1720.00,0.0042
1717.00,0.0043
1714.00,0.0046
1711.00,0.0050
1708.00,0.0052
1705.00,0.0056
1702.00,0.0059
1699.00,0.0069
1696.00,0.0083
1693.00,0.0099
1690.00,0.0116
1687.00,0.0130
1684.00,0.0149
1681.00,0.0166
1678.00,0.0178
1675.00,0.0192
1672.00,0.0205
1669.00,0.0220
1666.00,0.0231
1663.00,0.0242
1660.00,0.0254
1657.00,0.0258
1654.00,0.0261
1651.00,0.0269
1648.00,0.0270
1645.00,0.0270
1642.00,0.0267
1639.00,0.0262
1636.00,0.0253
1633.00,0.0260
1630.00,0.0294
1627.00,0.0370
1624.00,0.0439
1621.00,0.0470
1618.00,0.0438
1615.00,0.0373
1612.00,0.0368
1609.00,0.0360
1606.00,0.0309
1603.00,0.0250
1600.00,0.0204
1597.00,0.0181
1594.00,0.0183
1591.00,0.0218
1588.00,0.0280
1585.00,0.0329
1582.00,0.0337
1579.00,0.0313
1576.00,0.0268
1573.00,0.0232
1570.00,0.0212
1567.00,0.0193
1564.00,0.0162
1561.00,0.0133
1558.00,0.0104
1555.00,0.0097
1552.00,0.0093
1549.00,0.0088
1546.00,0.0085
1543.00,0.0079
1540.00,0.0074
1537.00,0.0074
1534.00,0.0074
1531.00,0.0072
1528.00,0.0072
1525.00,0.0073
1522.00,0.0077
1519.00,0.0085
1516.00,0.0097
1513.00,0.0108
1510.00,0.0117
1507.00,0.0120
1504.00,0.0128
1501.00,0.0152
1498.00,0.0212
1495.00,0.0250
1492.00,0.0214
1489.00,0.0163
1486.00,0.0129
1483.00,0.0112
1480.00,0.0105
1477.00,0.0107
1474.00,0.0119
1471.00,0.0162
1468.00,0.0229
1465.00,0.0276
1462.00,0.0279
1459.00,0.0278
1456.00,0.0257
1453.00,0.0239
1450.00,0.0241
1447.00,0.0261
1444.00,0.0294
1441.00,0.0329
1438.00,0.0351
1435.00,0.0373
1432.00,0.0397
1429.00,0.0413
1426.00,0.0413
1423.00,0.0402
1420.00,0.0379
1417.00,0.0336
1414.00,0.0299
1411.00,0.0284
1408.00,0.0300
1405.00,0.0347
1402.00,0.0393
1399.00,0.0403
1396.00,0.0362
1393.00,0.0298
1390.00,0.0265
1387.00,0.0281
1384.00,0.0269
1381.00,0.0260
1378.00,0.0265
1375.00,0.0244
1372.00,0.0211
1369.00,0.0224
1366.00,0.0272
1363.00,0.0297
1360.00,0.0337
1357.00,0.0306
1354.00,0.0261
1351.00,0.0249
1348.00,0.0253
1345.00,0.0248
1342.00,0.0227
1339.00,0.0201
1336.00,0.0188
1333.00,0.0199
1330.00,0.0214
1327.00,0.0216
1324.00,0.0211
1321.00,0.0209
1318.00,0.0204
1315.00,0.0191
1312.00,0.0184
1309.00,0.0195
1306.00,0.0231
1303.00,0.0294
1300.00,0.0337
1297.00,0.0337
1294.00,0.0352
1291.00,0.0363
1288.00,0.0378
1285.00,0.0409
1282.00,0.0414
1279.00,0.0373
1276.00,0.0329
1273.00,0.0304
1270.00,0.0283
1267.00,0.0261
1264.00,0.0238
1261.00,0.0214
1258.00,0.0194
1255.00,0.0182
1252.00,0.0180
1249.00,0.0196
1246.00,0.0229
1243.00,0.0260
1240.00,0.0280
1237.00,0.0318
1234.00,0.0357
1231.00,0.0346
1228.00,0.0302
1225.00,0.0268
1222.00,0.0250
1219.00,0.0255
1216.00,0.0275
1213.00,0.0278
1210.00,0.0245
1207.00,0.0212
1204.00,0.0210
1201.00,0.0247
1198.00,0.0306
1195.00,0.0361
1192.00,0.0354
1189.00,0.0296
1186.00,0.0232
1183.00,0.0188
1180.00,0.0166
1177.00,0.0156
1174.00,0.0152
1171.00,0.0151
1168.00,0.0150
1165.00,0.0153
1162.00,0.0170
1159.00,0.0226
1156.00,0.0321
1153.00,0.0332
1150.00,0.0234
1147.00,0.0165
1144.00,0.0143
1141.00,0.0139
1138.00,0.0151
1135.00,0.0192
1132.00,0.0292
1129.00,0.0394
1126.00,0.0393
1123.00,0.0320
1120.00,0.0238
1117.00,0.0201
1114.00,0.0192
1111.00,0.0178
1108.00,0.0166
1105.00,0.0180
1102.00,0.0239
1099.00,0.0282
1096.00,0.0234
1093.00,0.0169
1090.00,0.0136
1087.00,0.0123
1084.00,0.0118
1081.00,0.0117
1078.00,0.0120
1075.00,0.0124
1072.00,0.0131
1069.00,0.0144
1066.00,0.0162
1063.00,0.0194
1060.00,0.0266
1057.00,0.0389
1054.00,0.0493
1051.00,0.0528
1048.00,0.0521
1045.00,0.0451
1042.00,0.0351
1039.00,0.0286
1036.00,0.0277
1033.00,0.0297
1030.00,0.0373
1027.00,0.0475
1024.00,0.0442
1021.00,0.0329
1018.00,0.0248
1015.00,0.0202
1012.00,0.0179
1009.00,0.0188
1006.00,0.0231
1003.00,0.0262
1000.00,0.0246
997.00,0.0221
994.00,0.0204
991.00,0.0181
988.00,0.0153
985.00,0.0134
982.00,0.0125
979.00,0.0123
976.00,0.0123
973.00,0.0122
970.00,0.0119
967.00,0.0119
964.00,0.0125
961.00,0.0127
958.00,0.0109
955.00,0.0095
952.00,0.0090
949.00,0.0097
946.00,0.0100
943.00,0.0102
940.00,0.0117
937.00,0.0129
934.00,0.0139
931.00,0.0141
928.00,0.0131
925.00,0.0137
922.00,0.0156
919.00,0.0144
916.00,0.0114
913.00,0.0099
910.00,0.0094
907.00,0.0098
904.00,0.0114
901.00,0.0152
898.00,0.0170
895.00,0.0146
892.00,0.0155
889.00,0.0170
886.00,0.0127
883.00,0.0115
880.00,0.0125
877.00,0.0166
874.00,0.0248
871.00,0.0338
868.00,0.0345
865.00,0.0282
862.00,0.0225
859.00,0.0190
856.00,0.0211
853.00,0.0262
850.00,0.0315
847.00,0.0313
844.00,0.0259
841.00,0.0232
838.00,0.0253
835.00,0.0314
832.00,0.0329
829.00,0.0270
826.00,0.0202
823.00,0.0242
820.00,0.0376
817.00,0.0428
814.00,0.0404
811.00,0.0237
808.00,0.0165
805.00,0.0140
802.00,0.0130
799.00,0.0123
796.00,0.0120
793.00,0.0119
790.00,0.0118
787.00,0.0119
784.00,0.0120
781.00,0.0123
778.00,0.0135
775.00,0.0166
772.00,0.0161
769.00,0.0143
766.00,0.0142
763.00,0.0152
760.00,0.0167
757.00,0.0168
754.00,0.0163
751.00,0.0165
748.00,0.0171
745.00,0.0180
742.00,0.0195
739.00,0.0231
736.00,0.0301
733.00,0.0316
730.00,0.0302
727.00,0.0297
724.00,0.0246
721.00,0.0220
718.00,0.0232
715.00,0.0258
712.00,0.0252
709.00,0.0235
706.00,0.0230
703.00,0.0240
700.00,0.0258
697.00,0.0267
694.00,0.0255
691.00,0.0262
688.00,0.0289
685.00,0.0280
682.00,0.0268
679.00,0.0276
676.00,0.0298
673.00,0.0328
670.00,0.0343
667.00,0.0336
664.00,0.0339
661.00,0.0352
658.00,0.0340
655.00,0.0324
652.00,0.0322
649.00,0.0324
646.00,0.0324
643.00,0.0321
640.00,0.0317
637.00,0.0313
634.00,0.0309
631.00,0.0306
628.00,0.0310
625.00,0.0322
622.00,0.0342
619.00,0.0354
616.00,0.0334
613.00,0.0309
610.00,0.0310
607.00,0.0348
604.00,0.0400
601.00,0.0421
598.00,0.0420
595.00,0.0417
592.00,0.0413
589.00,0.0404
586.00,0.0400
583.00,0.0406
580.00,0.0424
577.00,0.0466
574.00,0.0461
571.00,0.0420
568.00,0.0400
565.00,0.0410
562.00,0.0437
559.00,0.0454
556.00,0.0434
553.00,0.0412
550.00,0.0424
547.00,0.0465
544.00,0.0466
541.00,0.0434
538.00,0.0414
535.00,0.0418
532.00,0.0443
529.00,0.0438
526.00,0.0402
523.00,0.0379
520.00,0.0365
517.00,0.0356
514.00,0.0349
511.00,0.0354
508.00,0.0360
505.00,0.0362
502.00,0.0352
499.00,0.0344
496.00,0.0344
493.00,0.0353
490.00,0.0354
487.00,0.0343
484.00,0.0339
481.00,0.0338
478.00,0.0333
475.00,0.0325
472.00,0.0322
469.00,0.0327
466.00,0.0333
463.00,0.0330
460.00,0.0330
457.00,0.0335
454.00,0.0331
451.00,0.0329
448.00,0.0325
445.00,0.0331
442.00,0.0324
439.00,0.0323
436.00,0.0326
433.00,0.0319
430.00,0.0313
427.00,0.0308
424.00,0.0312
421.00,0.0314
418.00,0.0315
415.00,0.0328
412.00,0.0340
409.00,0.0336
406.00,0.0324
403.00,0.0310
400.00,0.0319