File: FTIR/Olivia/2025_08_01_1CBN_3PVP10_drybatchpowder_scan2.csv
Created as New Dataset,Sample 1013 By YargerLab Date Friday, August 01 2025
cm-1,A
4000.00,0.0122
3997.00,0.0121
3994.00,0.0121
3991.00,0.0121
3988.00,0.0122
3985.00,0.0121
3982.00,0.0121
3979.00,0.0122
3976.00,0.0122
3973.00,0.0122
3970.00,0.0122
3967.00,0.0121
3964.00,0.0121
3961.00,0.0121
3958.00,0.0121
3955.00,0.0121
3952.00,0.0121
3949.00,0.0121
3946.00,0.0121
3943.00,0.0121
3940.00,0.0121
3937.00,0.0121
3934.00,0.0121
3931.00,0.0121
3928.00,0.0121
3925.00,0.0122
3922.00,0.0122
3919.00,0.0121
3916.00,0.0121
3913.00,0.0121
3910.00,0.0121
3907.00,0.0121
3904.00,0.0121
3901.00,0.0122
3898.00,0.0122
3895.00,0.0121
3892.00,0.0121
3889.00,0.0121
3886.00,0.0121
3883.00,0.0121
3880.00,0.0121
3877.00,0.0121
3874.00,0.0121
3871.00,0.0121
3868.00,0.0121
3865.00,0.0121
3862.00,0.0121
3859.00,0.0121
3856.00,0.0121
3853.00,0.0121
3850.00,0.0121
3847.00,0.0120
3844.00,0.0121
3841.00,0.0121
3838.00,0.0120
3835.00,0.0120
3832.00,0.0120
3829.00,0.0121
3826.00,0.0121
3823.00,0.0120
3820.00,0.0120
3817.00,0.0121
3814.00,0.0119
3811.00,0.0120
3808.00,0.0120
3805.00,0.0120
3802.00,0.0120
3799.00,0.0120
3796.00,0.0120
3793.00,0.0120
3790.00,0.0120
3787.00,0.0119
3784.00,0.0119
3781.00,0.0119
3778.00,0.0120
3775.00,0.0119
3772.00,0.0120
3769.00,0.0120
3766.00,0.0120
3763.00,0.0119
3760.00,0.0120
3757.00,0.0120
3754.00,0.0120
3751.00,0.0121
3748.00,0.0120
3745.00,0.0121
3742.00,0.0121
3739.00,0.0120
3736.00,0.0120
3733.00,0.0119
3730.00,0.0119
3727.00,0.0119
3724.00,0.0119
3721.00,0.0119
3718.00,0.0119
3715.00,0.0119
3712.00,0.0119
3709.00,0.0119
3706.00,0.0118
3703.00,0.0118
3700.00,0.0118
3697.00,0.0118
3694.00,0.0119
3691.00,0.0120
3688.00,0.0120
3685.00,0.0122
3682.00,0.0122
3679.00,0.0123
3676.00,0.0125
3673.00,0.0125
3670.00,0.0126
3667.00,0.0126
3664.00,0.0127
3661.00,0.0127
3658.00,0.0129
3655.00,0.0131
3652.00,0.0133
3649.00,0.0135
3646.00,0.0136
3643.00,0.0137
3640.00,0.0139
3637.00,0.0141
3634.00,0.0143
3631.00,0.0146
3628.00,0.0149
3625.00,0.0152
3622.00,0.0154
3619.00,0.0156
3616.00,0.0159
3613.00,0.0163
3610.00,0.0167
3607.00,0.0170
3604.00,0.0172
3601.00,0.0176
3598.00,0.0180
3595.00,0.0184
3592.00,0.0188
3589.00,0.0192
3586.00,0.0196
3583.00,0.0200
3580.00,0.0205
3577.00,0.0209
3574.00,0.0214
3571.00,0.0219
3568.00,0.0224
3565.00,0.0230
3562.00,0.0235
3559.00,0.0239
3556.00,0.0245
3553.00,0.0250
3550.00,0.0254
3547.00,0.0259
3544.00,0.0264
3541.00,0.0268
3538.00,0.0272
3535.00,0.0277
3532.00,0.0281
3529.00,0.0285
3526.00,0.0289
3523.00,0.0292
3520.00,0.0296
3517.00,0.0299
3514.00,0.0303
3511.00,0.0306
3508.00,0.0308
3505.00,0.0311
3502.00,0.0315
3499.00,0.0318
3496.00,0.0321
3493.00,0.0324
3490.00,0.0327
3487.00,0.0330
3484.00,0.0333
3481.00,0.0336
3478.00,0.0340
3475.00,0.0343
3472.00,0.0348
3469.00,0.0352
3466.00,0.0355
3463.00,0.0359
3460.00,0.0363
3457.00,0.0366
3454.00,0.0370
3451.00,0.0373
3448.00,0.0377
3445.00,0.0382
3442.00,0.0386
3439.00,0.0391
3436.00,0.0396
3433.00,0.0400
3430.00,0.0405
3427.00,0.0410
3424.00,0.0415
3421.00,0.0421
3418.00,0.0426
3415.00,0.0431
3412.00,0.0436
3409.00,0.0439
3406.00,0.0441
3403.00,0.0443
3400.00,0.0443
3397.00,0.0441
3394.00,0.0440
3391.00,0.0437
3388.00,0.0433
3385.00,0.0428
3382.00,0.0423
3379.00,0.0419
3376.00,0.0414
3373.00,0.0408
3370.00,0.0403
3367.00,0.0398
3364.00,0.0394
3361.00,0.0390
3358.00,0.0386
3355.00,0.0382
3352.00,0.0378
3349.00,0.0375
3346.00,0.0372
3343.00,0.0369
3340.00,0.0366
3337.00,0.0365
3334.00,0.0364
3331.00,0.0364
3328.00,0.0361
3325.00,0.0359
3322.00,0.0361
3319.00,0.0361
3316.00,0.0361
3313.00,0.0360
3310.00,0.0358
3307.00,0.0356
3304.00,0.0359
3301.00,0.0362
3298.00,0.0362
3295.00,0.0362
3292.00,0.0363
3289.00,0.0365
3286.00,0.0367
3283.00,0.0368
3280.00,0.0368
3277.00,0.0367
3274.00,0.0367
3271.00,0.0367
3268.00,0.0369
3265.00,0.0371
3262.00,0.0371
3259.00,0.0370
3256.00,0.0369
3253.00,0.0370
3250.00,0.0369
3247.00,0.0367
3244.00,0.0368
3241.00,0.0367
3238.00,0.0366
3235.00,0.0363
3232.00,0.0360
3229.00,0.0359
3226.00,0.0356
3223.00,0.0353
3220.00,0.0350
3217.00,0.0346
3214.00,0.0343
3211.00,0.0338
3208.00,0.0333
3205.00,0.0329
3202.00,0.0323
3199.00,0.0319
3196.00,0.0314
3193.00,0.0309
3190.00,0.0304
3187.00,0.0299
3184.00,0.0294
3181.00,0.0290
3178.00,0.0285
3175.00,0.0280
3172.00,0.0276
3169.00,0.0271
3166.00,0.0266
3163.00,0.0262
3160.00,0.0257
3157.00,0.0252
3154.00,0.0247
3151.00,0.0244
3148.00,0.0240
3145.00,0.0236
3142.00,0.0232
3139.00,0.0228
3136.00,0.0226
3133.00,0.0222
3130.00,0.0219
3127.00,0.0217
3124.00,0.0214
3121.00,0.0212
3118.00,0.0209
3115.00,0.0207
3112.00,0.0204
3109.00,0.0201
3106.00,0.0199
3103.00,0.0197
3100.00,0.0194
3097.00,0.0193
3094.00,0.0192
3091.00,0.0192
3088.00,0.0191
3085.00,0.0190
3082.00,0.0189
3079.00,0.0188
3076.00,0.0187
3073.00,0.0185
3070.00,0.0184
3067.00,0.0182
3064.00,0.0182
3061.00,0.0182
3058.00,0.0182
3055.00,0.0182
3052.00,0.0181
3049.00,0.0180
3046.00,0.0179
3043.00,0.0178
3040.00,0.0179
3037.00,0.0181
3034.00,0.0183
3031.00,0.0183
3028.00,0.0181
3025.00,0.0179
3022.00,0.0177
3019.00,0.0176
3016.00,0.0177
3013.00,0.0178
3010.00,0.0181
3007.00,0.0188
3004.00,0.0196
3001.00,0.0207
2998.00,0.0222
2995.00,0.0239
2992.00,0.0255
2989.00,0.0269
2986.00,0.0284
2983.00,0.0303
2980.00,0.0328
2977.00,0.0343
2974.00,0.0358
2971.00,0.0388
2968.00,0.0409
2965.00,0.0424
2962.00,0.0443
2959.00,0.0453
2956.00,0.0440
2953.00,0.0419
2950.00,0.0403
2947.00,0.0396
2944.00,0.0400
2941.00,0.0413
2938.00,0.0435
2935.00,0.0473
2932.00,0.0522
2929.00,0.0564
2926.00,0.0580
2923.00,0.0566
2920.00,0.0535
2917.00,0.0499
2914.00,0.0464
2911.00,0.0434
2908.00,0.0411
2905.00,0.0393
2902.00,0.0379
2899.00,0.0367
2896.00,0.0358
2893.00,0.0352
2890.00,0.0346
2887.00,0.0340
2884.00,0.0336
2881.00,0.0336
2878.00,0.0343
2875.00,0.0356
2872.00,0.0363
2869.00,0.0360
2866.00,0.0357
2863.00,0.0371
2860.00,0.0401
2857.00,0.0426
2854.00,0.0426
2851.00,0.0404
2848.00,0.0363
2845.00,0.0320
2842.00,0.0286
2839.00,0.0263
2836.00,0.0247
2833.00,0.0235
2830.00,0.0226
2827.00,0.0217
2824.00,0.0210
2821.00,0.0203
2818.00,0.0199
2815.00,0.0194
2812.00,0.0191
2809.00,0.0188
2806.00,0.0186
2803.00,0.0183
2800.00,0.0181
2797.00,0.0179
2794.00,0.0177
2791.00,0.0175
2788.00,0.0174
2785.00,0.0172
2782.00,0.0171
2779.00,0.0169
2776.00,0.0168
2773.00,0.0167
2770.00,0.0166
2767.00,0.0165
2764.00,0.0165
2761.00,0.0164
2758.00,0.0164
2755.00,0.0165
2752.00,0.0164
2749.00,0.0164
2746.00,0.0164
2743.00,0.0164
2740.00,0.0165
2737.00,0.0166
2734.00,0.0167
2731.00,0.0168
2728.00,0.0168
2725.00,0.0166
2722.00,0.0165
2719.00,0.0165
2716.00,0.0164
2713.00,0.0163
2710.00,0.0162
2707.00,0.0162
2704.00,0.0162
2701.00,0.0161
2698.00,0.0160
2695.00,0.0160
2692.00,0.0159
2689.00,0.0158
2686.00,0.0158
2683.00,0.0157
2680.00,0.0157
2677.00,0.0156
2674.00,0.0157
2671.00,0.0157
2668.00,0.0158
2665.00,0.0159
2662.00,0.0161
2659.00,0.0161
2656.00,0.0162
2653.00,0.0162
2650.00,0.0162
2647.00,0.0162
2644.00,0.0161
2641.00,0.0161
2638.00,0.0160
2635.00,0.0159
2632.00,0.0158
2629.00,0.0157
2626.00,0.0156
2623.00,0.0156
2620.00,0.0155
2617.00,0.0154
2614.00,0.0154
2611.00,0.0154
2608.00,0.0154
2605.00,0.0154
2602.00,0.0154
2599.00,0.0154
2596.00,0.0155
2593.00,0.0154
2590.00,0.0154
2587.00,0.0155
2584.00,0.0154
2581.00,0.0154
2578.00,0.0154
2575.00,0.0153
2572.00,0.0153
2569.00,0.0153
2566.00,0.0153
2563.00,0.0152
2560.00,0.0151
2557.00,0.0150
2554.00,0.0150
2551.00,0.0150
2548.00,0.0149
2545.00,0.0148
2542.00,0.0148
2539.00,0.0148
2536.00,0.0148
2533.00,0.0148
2530.00,0.0148
2527.00,0.0147
2524.00,0.0146
2521.00,0.0146
2518.00,0.0145
2515.00,0.0144
2512.00,0.0145
2509.00,0.0144
2506.00,0.0143
2503.00,0.0143
2500.00,0.0143
2497.00,0.0143
2494.00,0.0143
2491.00,0.0143
2488.00,0.0142
2485.00,0.0141
2482.00,0.0141
2479.00,0.0141
2476.00,0.0141
2473.00,0.0141
2470.00,0.0141
2467.00,0.0141
2464.00,0.0140
2461.00,0.0140
2458.00,0.0142
2455.00,0.0141
2452.00,0.0142
2449.00,0.0142
2446.00,0.0141
2443.00,0.0141
2440.00,0.0140
2437.00,0.0139
2434.00,0.0139
2431.00,0.0139
2428.00,0.0139
2425.00,0.0140
2422.00,0.0139
2419.00,0.0140
2416.00,0.0139
2413.00,0.0139
2410.00,0.0139
2407.00,0.0139
2404.00,0.0139
2401.00,0.0139
2398.00,0.0139
2395.00,0.0139
2392.00,0.0138
2389.00,0.0138
2386.00,0.0138
2383.00,0.0137
2380.00,0.0137
2377.00,0.0138
2374.00,0.0138
2371.00,0.0137
2368.00,0.0137
2365.00,0.0137
2362.00,0.0138
2359.00,0.0139
2356.00,0.0138
2353.00,0.0139
2350.00,0.0139
2347.00,0.0142
2344.00,0.0144
2341.00,0.0142
2338.00,0.0142
2335.00,0.0141
2332.00,0.0142
2329.00,0.0143
2326.00,0.0153
2323.00,0.0153
2320.00,0.0149
2317.00,0.0147
2314.00,0.0146
2311.00,0.0145
2308.00,0.0144
2305.00,0.0144
2302.00,0.0144
2299.00,0.0146
2296.00,0.0147
2293.00,0.0150
2290.00,0.0151
2287.00,0.0152
2284.00,0.0149
2281.00,0.0147
2278.00,0.0146
2275.00,0.0146
2272.00,0.0144
2269.00,0.0141
2266.00,0.0140
2263.00,0.0142
2260.00,0.0142
2257.00,0.0140
2254.00,0.0138
2251.00,0.0139
2248.00,0.0140
2245.00,0.0142
2242.00,0.0142
2239.00,0.0141
2236.00,0.0140
2233.00,0.0141
2230.00,0.0141
2227.00,0.0141
2224.00,0.0142
2221.00,0.0142
2218.00,0.0142
2215.00,0.0141
2212.00,0.0142
2209.00,0.0141
2206.00,0.0141
2203.00,0.0140
2200.00,0.0140
2197.00,0.0140
2194.00,0.0142
2191.00,0.0145
2188.00,0.0146
2185.00,0.0143
2182.00,0.0137
2179.00,0.0139
2176.00,0.0134
2173.00,0.0138
2170.00,0.0145
2167.00,0.0153
2164.00,0.0159
2161.00,0.0142
2158.00,0.0109
2155.00,0.0115
2152.00,0.0120
2149.00,0.0123
2146.00,0.0124
2143.00,0.0126
2140.00,0.0125
2137.00,0.0121
2134.00,0.0119
2131.00,0.0125
2128.00,0.0129
2125.00,0.0132
2122.00,0.0133
2119.00,0.0136
2116.00,0.0138
2113.00,0.0139
2110.00,0.0138
2107.00,0.0136
2104.00,0.0136
2101.00,0.0136
2098.00,0.0134
2095.00,0.0130
2092.00,0.0132
2089.00,0.0135
2086.00,0.0136
2083.00,0.0138
2080.00,0.0138
2077.00,0.0137
2074.00,0.0134
2071.00,0.0136
2068.00,0.0133
2065.00,0.0132
2062.00,0.0131
2059.00,0.0132
2056.00,0.0132
2053.00,0.0137
2050.00,0.0136
2047.00,0.0129
2044.00,0.0131
2041.00,0.0132
2038.00,0.0131
2035.00,0.0126
2032.00,0.0121
2029.00,0.0121
2026.00,0.0124
2023.00,0.0124
2020.00,0.0124
2017.00,0.0120
2014.00,0.0119
2011.00,0.0122
2008.00,0.0116
2005.00,0.0113
2002.00,0.0113
1999.00,0.0118
1996.00,0.0121
1993.00,0.0122
1990.00,0.0125
1987.00,0.0129
1984.00,0.0133
1981.00,0.0137
1978.00,0.0120
1975.00,0.0114
1972.00,0.0115
1969.00,0.0115
1966.00,0.0114
1963.00,0.0115
1960.00,0.0111
1957.00,0.0112
1954.00,0.0114
1951.00,0.0117
1948.00,0.0118
1945.00,0.0113
1942.00,0.0115
1939.00,0.0114
1936.00,0.0115
1933.00,0.0117
1930.00,0.0118
1927.00,0.0118
1924.00,0.0118
1921.00,0.0120
1918.00,0.0119
1915.00,0.0121
1912.00,0.0124
1909.00,0.0129
1906.00,0.0127
1903.00,0.0124
1900.00,0.0123
1897.00,0.0122
1894.00,0.0124
1891.00,0.0123
1888.00,0.0121
1885.00,0.0120
1882.00,0.0121
1879.00,0.0121
1876.00,0.0121
1873.00,0.0120
1870.00,0.0118
1867.00,0.0119
1864.00,0.0120
1861.00,0.0121
1858.00,0.0122
1855.00,0.0122
1852.00,0.0122
1849.00,0.0122
1846.00,0.0121
1843.00,0.0121
1840.00,0.0121
1837.00,0.0122
1834.00,0.0122
1831.00,0.0119
1828.00,0.0118
1825.00,0.0119
1822.00,0.0119
1819.00,0.0118
1816.00,0.0118
1813.00,0.0119
1810.00,0.0120
1807.00,0.0121
1804.00,0.0121
1801.00,0.0119
1798.00,0.0120
1795.00,0.0121
1792.00,0.0120
1789.00,0.0120
1786.00,0.0121
1783.00,0.0122
1780.00,0.0122
1777.00,0.0123
1774.00,0.0123
1771.00,0.0122
1768.00,0.0122
1765.00,0.0125
1762.00,0.0126
1759.00,0.0127
1756.00,0.0127
1753.00,0.0126
1750.00,0.0124
1747.00,0.0126
1744.00,0.0129
1741.00,0.0130
1738.00,0.0131
1735.00,0.0131
1732.00,0.0134
1729.00,0.0143
1726.00,0.0150
1723.00,0.0157
1720.00,0.0158
1717.00,0.0161
1714.00,0.0170
1711.00,0.0185
1708.00,0.0198
1705.00,0.0215
1702.00,0.0235
1699.00,0.0279
1696.00,0.0336
1693.00,0.0413
1690.00,0.0499
1687.00,0.0587
1684.00,0.0699
1681.00,0.0809
1678.00,0.0908
1675.00,0.1012
1672.00,0.1106
1669.00,0.1209
1666.00,0.1302
1663.00,0.1386
1660.00,0.1467
1657.00,0.1525
1654.00,0.1554
1651.00,0.1579
1648.00,0.1578
1645.00,0.1533
1642.00,0.1486
1639.00,0.1412
1636.00,0.1296
1633.00,0.1195
1630.00,0.1152
1627.00,0.1154
1624.00,0.1165
1621.00,0.1137
1618.00,0.1044
1615.00,0.0903
1612.00,0.0856
1609.00,0.0806
1606.00,0.0714
1603.00,0.0617
1600.00,0.0540
1597.00,0.0491
1594.00,0.0472
1591.00,0.0495
1588.00,0.0552
1585.00,0.0595
1582.00,0.0589
1579.00,0.0549
1576.00,0.0488
1573.00,0.0442
1570.00,0.0415
1567.00,0.0391
1564.00,0.0357
1561.00,0.0319
1558.00,0.0281
1555.00,0.0273
1552.00,0.0268
1549.00,0.0263
1546.00,0.0255
1543.00,0.0243
1540.00,0.0233
1537.00,0.0234
1534.00,0.0233
1531.00,0.0229
1528.00,0.0229
1525.00,0.0227
1522.00,0.0228
1519.00,0.0235
1516.00,0.0250
1513.00,0.0266
1510.00,0.0277
1507.00,0.0293
1504.00,0.0337
1501.00,0.0396
1498.00,0.0495
1495.00,0.0568
1492.00,0.0530
1489.00,0.0440
1486.00,0.0372
1483.00,0.0331
1480.00,0.0311
1477.00,0.0315
1474.00,0.0345
1471.00,0.0448
1468.00,0.0594
1465.00,0.0744
1462.00,0.0814
1459.00,0.0802
1456.00,0.0694
1453.00,0.0635
1450.00,0.0635
1447.00,0.0702
1444.00,0.0811
1441.00,0.0924
1438.00,0.0988
1435.00,0.1023
1432.00,0.1045
1429.00,0.1083
1426.00,0.1144
1423.00,0.1186
1420.00,0.1128
1417.00,0.0953
1414.00,0.0800
1411.00,0.0689
1408.00,0.0646
1405.00,0.0660
1402.00,0.0688
1399.00,0.0676
1396.00,0.0616
1393.00,0.0544
1390.00,0.0513
1387.00,0.0540
1384.00,0.0548
1381.00,0.0559
1378.00,0.0582
1375.00,0.0568
1372.00,0.0535
1369.00,0.0540
1366.00,0.0575
1363.00,0.0578
1360.00,0.0605
1357.00,0.0557
1354.00,0.0497
1351.00,0.0474
1348.00,0.0472
1345.00,0.0464
1342.00,0.0441
1339.00,0.0414
1336.00,0.0409
1333.00,0.0431
1330.00,0.0463
1327.00,0.0493
1324.00,0.0522
1321.00,0.0553
1318.00,0.0569
1315.00,0.0553
1312.00,0.0524
1309.00,0.0514
1306.00,0.0543
1303.00,0.0631
1300.00,0.0742
1297.00,0.0857
1294.00,0.1025
1291.00,0.1179
1288.00,0.1273
1285.00,0.1305
1282.00,0.1262
1279.00,0.1188
1276.00,0.1149
1273.00,0.1136
1270.00,0.1089
1267.00,0.1000
1264.00,0.0891
1261.00,0.0784
1258.00,0.0698
1255.00,0.0636
1252.00,0.0598
1249.00,0.0592
1246.00,0.0616
1243.00,0.0649
1240.00,0.0678
1237.00,0.0730
1234.00,0.0787
1231.00,0.0786
1228.00,0.0744
1225.00,0.0706
1222.00,0.0688
1219.00,0.0693
1216.00,0.0711
1213.00,0.0704
1210.00,0.0649
1207.00,0.0594
1204.00,0.0574
1201.00,0.0597
1198.00,0.0650
1195.00,0.0704
1192.00,0.0689
1189.00,0.0619
1186.00,0.0547
1183.00,0.0501
1180.00,0.0482
1177.00,0.0480
1174.00,0.0488
1171.00,0.0495
1168.00,0.0495
1165.00,0.0490
1162.00,0.0496
1159.00,0.0545
1156.00,0.0644
1153.00,0.0646
1150.00,0.0525
1147.00,0.0440
1144.00,0.0408
1141.00,0.0396
1138.00,0.0400
1135.00,0.0440
1132.00,0.0555
1129.00,0.0673
1126.00,0.0664
1123.00,0.0576
1120.00,0.0489
1117.00,0.0452
1114.00,0.0443
1111.00,0.0429
1108.00,0.0415
1105.00,0.0429
1102.00,0.0495
1099.00,0.0548
1096.00,0.0498
1093.00,0.0427
1090.00,0.0392
1087.00,0.0375
1084.00,0.0368
1081.00,0.0369
1078.00,0.0375
1075.00,0.0380
1072.00,0.0385
1069.00,0.0393
1066.00,0.0406
1063.00,0.0441
1060.00,0.0523
1057.00,0.0671
1054.00,0.0796
1051.00,0.0824
1048.00,0.0801
1045.00,0.0707
1042.00,0.0592
1039.00,0.0519
1036.00,0.0510
1033.00,0.0534
1030.00,0.0625
1027.00,0.0756
1024.00,0.0730
1021.00,0.0616
1018.00,0.0536
1015.00,0.0478
1012.00,0.0435
1009.00,0.0434
1006.00,0.0482
1003.00,0.0527
1000.00,0.0510
997.00,0.0473
994.00,0.0443
991.00,0.0412
988.00,0.0378
985.00,0.0358
982.00,0.0345
979.00,0.0338
976.00,0.0335
973.00,0.0331
970.00,0.0326
967.00,0.0323
964.00,0.0328
961.00,0.0331
958.00,0.0314
955.00,0.0298
952.00,0.0291
949.00,0.0295
946.00,0.0298
943.00,0.0304
940.00,0.0327
937.00,0.0353
934.00,0.0373
931.00,0.0371
928.00,0.0353
925.00,0.0353
922.00,0.0367
919.00,0.0352
916.00,0.0322
913.00,0.0307
910.00,0.0301
907.00,0.0305
904.00,0.0324
901.00,0.0368
898.00,0.0392
895.00,0.0367
892.00,0.0371
889.00,0.0383
886.00,0.0333
883.00,0.0313
880.00,0.0320
877.00,0.0358
874.00,0.0446
871.00,0.0548
868.00,0.0560
865.00,0.0500
862.00,0.0446
859.00,0.0419
856.00,0.0454
853.00,0.0523
850.00,0.0596
847.00,0.0609
844.00,0.0557
841.00,0.0524
838.00,0.0537
835.00,0.0592
832.00,0.0599
829.00,0.0526
826.00,0.0444
823.00,0.0474
820.00,0.0612
817.00,0.0662
814.00,0.0641
811.00,0.0470
808.00,0.0399
805.00,0.0373
802.00,0.0363
799.00,0.0358
796.00,0.0356
793.00,0.0356
790.00,0.0359
787.00,0.0361
784.00,0.0366
781.00,0.0374
778.00,0.0387
775.00,0.0421
772.00,0.0424
769.00,0.0414
766.00,0.0420
763.00,0.0436
760.00,0.0463
757.00,0.0479
754.00,0.0486
751.00,0.0501
748.00,0.0520
745.00,0.0543
742.00,0.0570
739.00,0.0617
736.00,0.0703
733.00,0.0726
730.00,0.0702
727.00,0.0683
724.00,0.0619
721.00,0.0584
718.00,0.0589
715.00,0.0615
712.00,0.0611
709.00,0.0595
706.00,0.0592
703.00,0.0605
700.00,0.0629
697.00,0.0647
694.00,0.0643
691.00,0.0655
688.00,0.0694
685.00,0.0697
682.00,0.0697
679.00,0.0713
676.00,0.0747
673.00,0.0793
670.00,0.0824
667.00,0.0833
664.00,0.0860
661.00,0.0899
658.00,0.0911
655.00,0.0921
652.00,0.0942
649.00,0.0956
646.00,0.0958
643.00,0.0947
640.00,0.0928
637.00,0.0909
634.00,0.0891
631.00,0.0880
628.00,0.0875
625.00,0.0881
622.00,0.0898
619.00,0.0911
616.00,0.0894
613.00,0.0870
610.00,0.0871
607.00,0.0911
604.00,0.0966
601.00,0.0994
598.00,0.1004
595.00,0.1011
592.00,0.1020
589.00,0.1028
586.00,0.1041
583.00,0.1067
580.00,0.1111
577.00,0.1175
574.00,0.1184
571.00,0.1140
568.00,0.1110
565.00,0.1108
562.00,0.1128
559.00,0.1137
556.00,0.1108
553.00,0.1077
550.00,0.1086
547.00,0.1118
544.00,0.1118
541.00,0.1082
538.00,0.1056
535.00,0.1061
532.00,0.1091
529.00,0.1095
526.00,0.1057
523.00,0.1026
520.00,0.1009
517.00,0.0997
514.00,0.0990
511.00,0.0990
508.00,0.0999
505.00,0.1006
502.00,0.0990
499.00,0.0984
496.00,0.0988
493.00,0.1003
490.00,0.1007
487.00,0.1000
484.00,0.0991
481.00,0.0990
478.00,0.0981
475.00,0.0972
472.00,0.0978
469.00,0.0978
466.00,0.0972
463.00,0.0966
460.00,0.0963
457.00,0.0959
454.00,0.0950
451.00,0.0932
448.00,0.0927
445.00,0.0909
442.00,0.0893
439.00,0.0890
436.00,0.0876
433.00,0.0864
430.00,0.0853
427.00,0.0837
424.00,0.0831
421.00,0.0823
418.00,0.0793
415.00,0.0802
412.00,0.0827
409.00,0.0866
406.00,0.0840
403.00,0.0779
400.00,0.0780