File: FTIR/Olivia/2025_08_06_1CBN_3PVP10_MP_Powder_Scan3.csv
Created as New Dataset,Sample 1090 By YargerLab Date Wednesday, August 06 2025
cm-1,A
4000.00,0.0079
3997.00,0.0080
3994.00,0.0080
3991.00,0.0079
3988.00,0.0079
3985.00,0.0080
3982.00,0.0080
3979.00,0.0080
3976.00,0.0080
3973.00,0.0080
3970.00,0.0080
3967.00,0.0080
3964.00,0.0080
3961.00,0.0080
3958.00,0.0080
3955.00,0.0080
3952.00,0.0080
3949.00,0.0079
3946.00,0.0079
3943.00,0.0079
3940.00,0.0079
3937.00,0.0079
3934.00,0.0079
3931.00,0.0079
3928.00,0.0079
3925.00,0.0079
3922.00,0.0080
3919.00,0.0079
3916.00,0.0079
3913.00,0.0079
3910.00,0.0079
3907.00,0.0079
3904.00,0.0079
3901.00,0.0079
3898.00,0.0079
3895.00,0.0079
3892.00,0.0078
3889.00,0.0079
3886.00,0.0079
3883.00,0.0079
3880.00,0.0079
3877.00,0.0079
3874.00,0.0078
3871.00,0.0079
3868.00,0.0079
3865.00,0.0079
3862.00,0.0078
3859.00,0.0078
3856.00,0.0079
3853.00,0.0079
3850.00,0.0079
3847.00,0.0079
3844.00,0.0078
3841.00,0.0078
3838.00,0.0079
3835.00,0.0079
3832.00,0.0078
3829.00,0.0078
3826.00,0.0078
3823.00,0.0079
3820.00,0.0078
3817.00,0.0078
3814.00,0.0078
3811.00,0.0078
3808.00,0.0078
3805.00,0.0078
3802.00,0.0078
3799.00,0.0078
3796.00,0.0078
3793.00,0.0078
3790.00,0.0078
3787.00,0.0078
3784.00,0.0078
3781.00,0.0078
3778.00,0.0078
3775.00,0.0078
3772.00,0.0078
3769.00,0.0078
3766.00,0.0078
3763.00,0.0078
3760.00,0.0078
3757.00,0.0078
3754.00,0.0078
3751.00,0.0077
3748.00,0.0078
3745.00,0.0079
3742.00,0.0078
3739.00,0.0077
3736.00,0.0077
3733.00,0.0076
3730.00,0.0076
3727.00,0.0075
3724.00,0.0076
3721.00,0.0077
3718.00,0.0077
3715.00,0.0077
3712.00,0.0076
3709.00,0.0075
3706.00,0.0075
3703.00,0.0076
3700.00,0.0076
3697.00,0.0076
3694.00,0.0076
3691.00,0.0077
3688.00,0.0078
3685.00,0.0079
3682.00,0.0079
3679.00,0.0079
3676.00,0.0080
3673.00,0.0081
3670.00,0.0081
3667.00,0.0082
3664.00,0.0083
3661.00,0.0084
3658.00,0.0084
3655.00,0.0085
3652.00,0.0085
3649.00,0.0087
3646.00,0.0090
3643.00,0.0091
3640.00,0.0092
3637.00,0.0093
3634.00,0.0095
3631.00,0.0096
3628.00,0.0099
3625.00,0.0101
3622.00,0.0102
3619.00,0.0106
3616.00,0.0108
3613.00,0.0110
3610.00,0.0113
3607.00,0.0116
3604.00,0.0118
3601.00,0.0121
3598.00,0.0124
3595.00,0.0128
3592.00,0.0131
3589.00,0.0133
3586.00,0.0140
3583.00,0.0143
3580.00,0.0146
3577.00,0.0149
3574.00,0.0153
3571.00,0.0157
3568.00,0.0161
3565.00,0.0168
3562.00,0.0172
3559.00,0.0175
3556.00,0.0178
3553.00,0.0183
3550.00,0.0187
3547.00,0.0191
3544.00,0.0195
3541.00,0.0198
3538.00,0.0202
3535.00,0.0206
3532.00,0.0209
3529.00,0.0213
3526.00,0.0216
3523.00,0.0220
3520.00,0.0222
3517.00,0.0224
3514.00,0.0227
3511.00,0.0229
3508.00,0.0232
3505.00,0.0234
3502.00,0.0237
3499.00,0.0240
3496.00,0.0243
3493.00,0.0245
3490.00,0.0248
3487.00,0.0252
3484.00,0.0255
3481.00,0.0259
3478.00,0.0262
3475.00,0.0265
3472.00,0.0269
3469.00,0.0274
3466.00,0.0277
3463.00,0.0281
3460.00,0.0286
3457.00,0.0290
3454.00,0.0294
3451.00,0.0299
3448.00,0.0303
3445.00,0.0308
3442.00,0.0312
3439.00,0.0317
3436.00,0.0323
3433.00,0.0328
3430.00,0.0334
3427.00,0.0340
3424.00,0.0346
3421.00,0.0354
3418.00,0.0361
3415.00,0.0366
3412.00,0.0372
3409.00,0.0377
3406.00,0.0380
3403.00,0.0383
3400.00,0.0384
3397.00,0.0383
3394.00,0.0381
3391.00,0.0378
3388.00,0.0374
3385.00,0.0368
3382.00,0.0363
3379.00,0.0358
3376.00,0.0352
3373.00,0.0345
3370.00,0.0338
3367.00,0.0334
3364.00,0.0330
3361.00,0.0325
3358.00,0.0321
3355.00,0.0317
3352.00,0.0312
3349.00,0.0310
3346.00,0.0307
3343.00,0.0303
3340.00,0.0300
3337.00,0.0299
3334.00,0.0299
3331.00,0.0298
3328.00,0.0296
3325.00,0.0295
3322.00,0.0296
3319.00,0.0297
3316.00,0.0297
3313.00,0.0296
3310.00,0.0294
3307.00,0.0293
3304.00,0.0296
3301.00,0.0300
3298.00,0.0300
3295.00,0.0300
3292.00,0.0302
3289.00,0.0306
3286.00,0.0308
3283.00,0.0309
3280.00,0.0311
3277.00,0.0311
3274.00,0.0311
3271.00,0.0312
3268.00,0.0314
3265.00,0.0317
3262.00,0.0318
3259.00,0.0318
3256.00,0.0319
3253.00,0.0321
3250.00,0.0322
3247.00,0.0321
3244.00,0.0323
3241.00,0.0323
3238.00,0.0322
3235.00,0.0320
3232.00,0.0320
3229.00,0.0320
3226.00,0.0318
3223.00,0.0316
3220.00,0.0313
3217.00,0.0310
3214.00,0.0307
3211.00,0.0303
3208.00,0.0299
3205.00,0.0294
3202.00,0.0289
3199.00,0.0284
3196.00,0.0280
3193.00,0.0274
3190.00,0.0268
3187.00,0.0263
3184.00,0.0259
3181.00,0.0254
3178.00,0.0249
3175.00,0.0245
3172.00,0.0239
3169.00,0.0234
3166.00,0.0229
3163.00,0.0224
3160.00,0.0218
3157.00,0.0213
3154.00,0.0207
3151.00,0.0203
3148.00,0.0199
3145.00,0.0195
3142.00,0.0190
3139.00,0.0186
3136.00,0.0183
3133.00,0.0179
3130.00,0.0176
3127.00,0.0174
3124.00,0.0172
3121.00,0.0169
3118.00,0.0166
3115.00,0.0163
3112.00,0.0160
3109.00,0.0157
3106.00,0.0154
3103.00,0.0151
3100.00,0.0149
3097.00,0.0148
3094.00,0.0148
3091.00,0.0148
3088.00,0.0148
3085.00,0.0147
3082.00,0.0147
3079.00,0.0145
3076.00,0.0144
3073.00,0.0143
3070.00,0.0141
3067.00,0.0140
3064.00,0.0140
3061.00,0.0140
3058.00,0.0141
3055.00,0.0141
3052.00,0.0141
3049.00,0.0140
3046.00,0.0139
3043.00,0.0139
3040.00,0.0141
3037.00,0.0143
3034.00,0.0146
3031.00,0.0146
3028.00,0.0144
3025.00,0.0141
3022.00,0.0139
3019.00,0.0138
3016.00,0.0138
3013.00,0.0140
3010.00,0.0144
3007.00,0.0152
3004.00,0.0162
3001.00,0.0175
2998.00,0.0193
2995.00,0.0214
2992.00,0.0232
2989.00,0.0249
2986.00,0.0268
2983.00,0.0293
2980.00,0.0324
2977.00,0.0344
2974.00,0.0364
2971.00,0.0399
2968.00,0.0424
2965.00,0.0441
2962.00,0.0462
2959.00,0.0467
2956.00,0.0450
2953.00,0.0423
2950.00,0.0403
2947.00,0.0398
2944.00,0.0408
2941.00,0.0430
2938.00,0.0464
2935.00,0.0516
2932.00,0.0579
2929.00,0.0631
2926.00,0.0646
2923.00,0.0621
2920.00,0.0578
2917.00,0.0531
2914.00,0.0487
2911.00,0.0450
2908.00,0.0420
2905.00,0.0396
2902.00,0.0376
2899.00,0.0361
2896.00,0.0349
2893.00,0.0340
2890.00,0.0331
2887.00,0.0323
2884.00,0.0319
2881.00,0.0320
2878.00,0.0333
2875.00,0.0351
2872.00,0.0361
2869.00,0.0358
2866.00,0.0357
2863.00,0.0379
2860.00,0.0420
2857.00,0.0451
2854.00,0.0449
2851.00,0.0420
2848.00,0.0367
2845.00,0.0312
2842.00,0.0269
2839.00,0.0238
2836.00,0.0218
2833.00,0.0203
2830.00,0.0191
2827.00,0.0180
2824.00,0.0171
2821.00,0.0163
2818.00,0.0157
2815.00,0.0152
2812.00,0.0148
2809.00,0.0144
2806.00,0.0142
2803.00,0.0140
2800.00,0.0137
2797.00,0.0135
2794.00,0.0133
2791.00,0.0130
2788.00,0.0128
2785.00,0.0127
2782.00,0.0125
2779.00,0.0124
2776.00,0.0122
2773.00,0.0121
2770.00,0.0120
2767.00,0.0120
2764.00,0.0119
2761.00,0.0119
2758.00,0.0118
2755.00,0.0119
2752.00,0.0119
2749.00,0.0119
2746.00,0.0119
2743.00,0.0120
2740.00,0.0121
2737.00,0.0122
2734.00,0.0123
2731.00,0.0125
2728.00,0.0125
2725.00,0.0123
2722.00,0.0122
2719.00,0.0120
2716.00,0.0120
2713.00,0.0119
2710.00,0.0118
2707.00,0.0118
2704.00,0.0118
2701.00,0.0117
2698.00,0.0116
2695.00,0.0115
2692.00,0.0114
2689.00,0.0113
2686.00,0.0112
2683.00,0.0112
2680.00,0.0111
2677.00,0.0111
2674.00,0.0111
2671.00,0.0112
2668.00,0.0113
2665.00,0.0115
2662.00,0.0117
2659.00,0.0118
2656.00,0.0118
2653.00,0.0119
2650.00,0.0118
2647.00,0.0118
2644.00,0.0117
2641.00,0.0117
2638.00,0.0116
2635.00,0.0116
2632.00,0.0115
2629.00,0.0113
2626.00,0.0111
2623.00,0.0111
2620.00,0.0110
2617.00,0.0109
2614.00,0.0109
2611.00,0.0109
2608.00,0.0109
2605.00,0.0109
2602.00,0.0110
2599.00,0.0110
2596.00,0.0110
2593.00,0.0111
2590.00,0.0111
2587.00,0.0111
2584.00,0.0111
2581.00,0.0111
2578.00,0.0110
2575.00,0.0109
2572.00,0.0109
2569.00,0.0109
2566.00,0.0108
2563.00,0.0108
2560.00,0.0106
2557.00,0.0105
2554.00,0.0104
2551.00,0.0104
2548.00,0.0103
2545.00,0.0104
2542.00,0.0104
2539.00,0.0104
2536.00,0.0104
2533.00,0.0104
2530.00,0.0103
2527.00,0.0102
2524.00,0.0101
2521.00,0.0100
2518.00,0.0100
2515.00,0.0100
2512.00,0.0099
2509.00,0.0098
2506.00,0.0097
2503.00,0.0096
2500.00,0.0096
2497.00,0.0096
2494.00,0.0095
2491.00,0.0096
2488.00,0.0095
2485.00,0.0095
2482.00,0.0094
2479.00,0.0094
2476.00,0.0094
2473.00,0.0093
2470.00,0.0092
2467.00,0.0093
2464.00,0.0094
2461.00,0.0094
2458.00,0.0094
2455.00,0.0095
2452.00,0.0095
2449.00,0.0094
2446.00,0.0093
2443.00,0.0093
2440.00,0.0092
2437.00,0.0091
2434.00,0.0091
2431.00,0.0092
2428.00,0.0092
2425.00,0.0091
2422.00,0.0090
2419.00,0.0090
2416.00,0.0090
2413.00,0.0091
2410.00,0.0091
2407.00,0.0089
2404.00,0.0090
2401.00,0.0091
2398.00,0.0090
2395.00,0.0090
2392.00,0.0090
2389.00,0.0088
2386.00,0.0086
2383.00,0.0085
2380.00,0.0083
2377.00,0.0084
2374.00,0.0085
2371.00,0.0084
2368.00,0.0083
2365.00,0.0084
2362.00,0.0084
2359.00,0.0085
2356.00,0.0086
2353.00,0.0086
2350.00,0.0086
2347.00,0.0086
2344.00,0.0086
2341.00,0.0088
2338.00,0.0091
2335.00,0.0090
2332.00,0.0090
2329.00,0.0094
2326.00,0.0105
2323.00,0.0102
2320.00,0.0096
2317.00,0.0095
2314.00,0.0093
2311.00,0.0091
2308.00,0.0090
2305.00,0.0091
2302.00,0.0092
2299.00,0.0093
2296.00,0.0096
2293.00,0.0099
2290.00,0.0101
2287.00,0.0102
2284.00,0.0100
2281.00,0.0097
2278.00,0.0096
2275.00,0.0095
2272.00,0.0095
2269.00,0.0093
2266.00,0.0091
2263.00,0.0092
2260.00,0.0092
2257.00,0.0089
2254.00,0.0086
2251.00,0.0087
2248.00,0.0090
2245.00,0.0091
2242.00,0.0087
2239.00,0.0091
2236.00,0.0091
2233.00,0.0089
2230.00,0.0091
2227.00,0.0091
2224.00,0.0090
2221.00,0.0087
2218.00,0.0085
2215.00,0.0087
2212.00,0.0087
2209.00,0.0090
2206.00,0.0090
2203.00,0.0089
2200.00,0.0091
2197.00,0.0091
2194.00,0.0090
2191.00,0.0092
2188.00,0.0098
2185.00,0.0093
2182.00,0.0085
2179.00,0.0090
2176.00,0.0086
2173.00,0.0089
2170.00,0.0095
2167.00,0.0098
2164.00,0.0106
2161.00,0.0081
2158.00,0.0052
2155.00,0.0058
2152.00,0.0068
2149.00,0.0066
2146.00,0.0066
2143.00,0.0069
2140.00,0.0072
2137.00,0.0067
2134.00,0.0064
2131.00,0.0070
2128.00,0.0075
2125.00,0.0078
2122.00,0.0079
2119.00,0.0080
2116.00,0.0084
2113.00,0.0084
2110.00,0.0085
2107.00,0.0085
2104.00,0.0083
2101.00,0.0083
2098.00,0.0080
2095.00,0.0078
2092.00,0.0081
2089.00,0.0082
2086.00,0.0084
2083.00,0.0085
2080.00,0.0086
2077.00,0.0084
2074.00,0.0084
2071.00,0.0086
2068.00,0.0084
2065.00,0.0081
2062.00,0.0078
2059.00,0.0079
2056.00,0.0078
2053.00,0.0087
2050.00,0.0087
2047.00,0.0077
2044.00,0.0078
2041.00,0.0078
2038.00,0.0079
2035.00,0.0077
2032.00,0.0074
2029.00,0.0073
2026.00,0.0070
2023.00,0.0070
2020.00,0.0071
2017.00,0.0064
2014.00,0.0062
2011.00,0.0068
2008.00,0.0060
2005.00,0.0060
2002.00,0.0067
1999.00,0.0069
1996.00,0.0074
1993.00,0.0079
1990.00,0.0075
1987.00,0.0077
1984.00,0.0082
1981.00,0.0085
1978.00,0.0067
1975.00,0.0063
1972.00,0.0061
1969.00,0.0061
1966.00,0.0065
1963.00,0.0065
1960.00,0.0063
1957.00,0.0062
1954.00,0.0066
1951.00,0.0068
1948.00,0.0065
1945.00,0.0065
1942.00,0.0069
1939.00,0.0068
1936.00,0.0067
1933.00,0.0069
1930.00,0.0070
1927.00,0.0072
1924.00,0.0073
1921.00,0.0074
1918.00,0.0071
1915.00,0.0073
1912.00,0.0080
1909.00,0.0087
1906.00,0.0085
1903.00,0.0079
1900.00,0.0076
1897.00,0.0078
1894.00,0.0081
1891.00,0.0080
1888.00,0.0076
1885.00,0.0075
1882.00,0.0076
1879.00,0.0076
1876.00,0.0075
1873.00,0.0075
1870.00,0.0076
1867.00,0.0077
1864.00,0.0076
1861.00,0.0076
1858.00,0.0076
1855.00,0.0077
1852.00,0.0078
1849.00,0.0081
1846.00,0.0083
1843.00,0.0080
1840.00,0.0079
1837.00,0.0079
1834.00,0.0078
1831.00,0.0078
1828.00,0.0077
1825.00,0.0077
1822.00,0.0078
1819.00,0.0076
1816.00,0.0075
1813.00,0.0077
1810.00,0.0079
1807.00,0.0079
1804.00,0.0079
1801.00,0.0082
1798.00,0.0082
1795.00,0.0084
1792.00,0.0081
1789.00,0.0081
1786.00,0.0082
1783.00,0.0083
1780.00,0.0086
1777.00,0.0087
1774.00,0.0088
1771.00,0.0087
1768.00,0.0088
1765.00,0.0088
1762.00,0.0090
1759.00,0.0091
1756.00,0.0091
1753.00,0.0088
1750.00,0.0090
1747.00,0.0092
1744.00,0.0094
1741.00,0.0091
1738.00,0.0093
1735.00,0.0095
1732.00,0.0103
1729.00,0.0113
1726.00,0.0119
1723.00,0.0129
1720.00,0.0131
1717.00,0.0141
1714.00,0.0156
1711.00,0.0172
1708.00,0.0189
1705.00,0.0216
1702.00,0.0239
1699.00,0.0303
1696.00,0.0383
1693.00,0.0470
1690.00,0.0563
1687.00,0.0651
1684.00,0.0776
1681.00,0.0888
1678.00,0.0966
1675.00,0.1059
1672.00,0.1138
1669.00,0.1233
1666.00,0.1300
1663.00,0.1358
1660.00,0.1423
1657.00,0.1437
1654.00,0.1434
1651.00,0.1483
1648.00,0.1425
1645.00,0.1381
1642.00,0.1295
1639.00,0.1190
1636.00,0.1084
1633.00,0.1017
1630.00,0.1000
1627.00,0.1068
1624.00,0.1129
1621.00,0.1134
1618.00,0.1028
1615.00,0.0883
1612.00,0.0840
1609.00,0.0793
1606.00,0.0683
1603.00,0.0566
1600.00,0.0479
1597.00,0.0430
1594.00,0.0427
1591.00,0.0479
1588.00,0.0573
1585.00,0.0638
1582.00,0.0631
1579.00,0.0580
1576.00,0.0500
1573.00,0.0439
1570.00,0.0405
1567.00,0.0373
1564.00,0.0327
1561.00,0.0279
1558.00,0.0232
1555.00,0.0222
1552.00,0.0216
1549.00,0.0212
1546.00,0.0203
1543.00,0.0195
1540.00,0.0186
1537.00,0.0182
1534.00,0.0182
1531.00,0.0180
1528.00,0.0182
1525.00,0.0185
1522.00,0.0189
1519.00,0.0201
1516.00,0.0224
1513.00,0.0242
1510.00,0.0261
1507.00,0.0286
1504.00,0.0318
1501.00,0.0383
1498.00,0.0503
1495.00,0.0582
1492.00,0.0526
1489.00,0.0429
1486.00,0.0349
1483.00,0.0302
1480.00,0.0282
1477.00,0.0287
1474.00,0.0324
1471.00,0.0440
1468.00,0.0596
1465.00,0.0745
1462.00,0.0805
1459.00,0.0792
1456.00,0.0709
1453.00,0.0644
1450.00,0.0637
1447.00,0.0699
1444.00,0.0803
1441.00,0.0919
1438.00,0.0996
1435.00,0.1078
1432.00,0.1123
1429.00,0.1177
1426.00,0.1224
1423.00,0.1255
1420.00,0.1190
1417.00,0.1029
1414.00,0.0860
1411.00,0.0744
1408.00,0.0709
1405.00,0.0744
1402.00,0.0790
1399.00,0.0778
1396.00,0.0699
1393.00,0.0594
1390.00,0.0547
1387.00,0.0582
1384.00,0.0584
1381.00,0.0592
1378.00,0.0616
1375.00,0.0595
1372.00,0.0548
1369.00,0.0560
1366.00,0.0618
1363.00,0.0641
1360.00,0.0682
1357.00,0.0613
1354.00,0.0532
1351.00,0.0503
1348.00,0.0501
1345.00,0.0488
1342.00,0.0456
1339.00,0.0423
1336.00,0.0411
1333.00,0.0434
1330.00,0.0467
1327.00,0.0491
1324.00,0.0513
1321.00,0.0541
1318.00,0.0557
1315.00,0.0541
1312.00,0.0519
1309.00,0.0520
1306.00,0.0570
1303.00,0.0679
1300.00,0.0788
1297.00,0.0874
1294.00,0.1016
1291.00,0.1157
1288.00,0.1268
1285.00,0.1339
1282.00,0.1312
1279.00,0.1211
1276.00,0.1142
1273.00,0.1120
1270.00,0.1081
1267.00,0.1002
1264.00,0.0894
1261.00,0.0781
1258.00,0.0685
1255.00,0.0617
1252.00,0.0580
1249.00,0.0583
1246.00,0.0625
1243.00,0.0673
1240.00,0.0713
1237.00,0.0783
1234.00,0.0851
1231.00,0.0843
1228.00,0.0781
1225.00,0.0726
1222.00,0.0697
1219.00,0.0699
1216.00,0.0720
1213.00,0.0711
1210.00,0.0643
1207.00,0.0576
1204.00,0.0562
1201.00,0.0608
1198.00,0.0692
1195.00,0.0769
1192.00,0.0745
1189.00,0.0647
1186.00,0.0546
1183.00,0.0479
1180.00,0.0448
1177.00,0.0440
1174.00,0.0443
1171.00,0.0450
1168.00,0.0453
1165.00,0.0455
1162.00,0.0476
1159.00,0.0559
1156.00,0.0698
1153.00,0.0698
1150.00,0.0529
1147.00,0.0411
1144.00,0.0367
1141.00,0.0354
1138.00,0.0365
1135.00,0.0431
1132.00,0.0594
1129.00,0.0756
1126.00,0.0740
1123.00,0.0613
1120.00,0.0488
1117.00,0.0433
1114.00,0.0422
1111.00,0.0401
1108.00,0.0382
1105.00,0.0407
1102.00,0.0502
1099.00,0.0568
1096.00,0.0493
1093.00,0.0391
1090.00,0.0340
1087.00,0.0319
1084.00,0.0311
1081.00,0.0310
1078.00,0.0320
1075.00,0.0329
1072.00,0.0340
1069.00,0.0357
1066.00,0.0385
1063.00,0.0442
1060.00,0.0566
1057.00,0.0771
1054.00,0.0937
1051.00,0.0979
1048.00,0.0943
1045.00,0.0810
1042.00,0.0650
1039.00,0.0552
1036.00,0.0541
1033.00,0.0575
1030.00,0.0704
1027.00,0.0875
1024.00,0.0824
1021.00,0.0656
1018.00,0.0538
1015.00,0.0460
1012.00,0.0412
1009.00,0.0418
1006.00,0.0485
1003.00,0.0537
1000.00,0.0512
997.00,0.0466
994.00,0.0430
991.00,0.0387
988.00,0.0342
985.00,0.0312
982.00,0.0294
979.00,0.0287
976.00,0.0286
973.00,0.0282
970.00,0.0276
967.00,0.0274
964.00,0.0281
961.00,0.0286
958.00,0.0260
955.00,0.0239
952.00,0.0230
949.00,0.0238
946.00,0.0242
943.00,0.0251
940.00,0.0279
937.00,0.0311
934.00,0.0338
931.00,0.0338
928.00,0.0317
925.00,0.0321
922.00,0.0340
919.00,0.0317
916.00,0.0273
913.00,0.0251
910.00,0.0244
907.00,0.0250
904.00,0.0281
901.00,0.0343
898.00,0.0370
895.00,0.0332
892.00,0.0339
889.00,0.0356
886.00,0.0288
883.00,0.0265
880.00,0.0279
877.00,0.0341
874.00,0.0468
871.00,0.0606
868.00,0.0611
865.00,0.0524
862.00,0.0445
859.00,0.0404
856.00,0.0450
853.00,0.0540
850.00,0.0637
847.00,0.0644
844.00,0.0566
841.00,0.0521
838.00,0.0546
835.00,0.0627
832.00,0.0633
829.00,0.0533
826.00,0.0424
823.00,0.0472
820.00,0.0668
817.00,0.0747
814.00,0.0706
811.00,0.0462
808.00,0.0352
805.00,0.0307
802.00,0.0287
799.00,0.0278
796.00,0.0275
793.00,0.0274
790.00,0.0274
787.00,0.0274
784.00,0.0279
781.00,0.0286
778.00,0.0305
775.00,0.0354
772.00,0.0350
769.00,0.0329
766.00,0.0332
763.00,0.0352
760.00,0.0383
757.00,0.0395
754.00,0.0398
751.00,0.0410
748.00,0.0426
745.00,0.0450
742.00,0.0482
739.00,0.0546
736.00,0.0660
733.00,0.0684
730.00,0.0658
727.00,0.0632
724.00,0.0541
721.00,0.0493
718.00,0.0505
715.00,0.0542
712.00,0.0532
709.00,0.0505
706.00,0.0500
703.00,0.0520
700.00,0.0549
697.00,0.0568
694.00,0.0558
691.00,0.0577
688.00,0.0626
685.00,0.0618
682.00,0.0609
679.00,0.0629
676.00,0.0672
673.00,0.0730
670.00,0.0767
667.00,0.0784
664.00,0.0797
661.00,0.0836
658.00,0.0840
655.00,0.0836
652.00,0.0849
649.00,0.0856
646.00,0.0850
643.00,0.0835
640.00,0.0815
637.00,0.0793
634.00,0.0776
631.00,0.0763
628.00,0.0758
625.00,0.0770
622.00,0.0800
619.00,0.0816
616.00,0.0784
613.00,0.0751
610.00,0.0753
607.00,0.0816
604.00,0.0899
601.00,0.0938
598.00,0.0943
595.00,0.0944
592.00,0.0946
589.00,0.0946
586.00,0.0953
583.00,0.0982
580.00,0.1033
577.00,0.1117
574.00,0.1115
571.00,0.1051
568.00,0.1008
565.00,0.1008
562.00,0.1039
559.00,0.1058
556.00,0.1013
553.00,0.0976
550.00,0.0994
547.00,0.1046
544.00,0.1040
541.00,0.0986
538.00,0.0952
535.00,0.0958
532.00,0.1008
529.00,0.1008
526.00,0.0947
523.00,0.0897
520.00,0.0872
517.00,0.0856
514.00,0.0847
511.00,0.0847
508.00,0.0862
505.00,0.0875
502.00,0.0857
499.00,0.0841
496.00,0.0846
493.00,0.0871
490.00,0.0870
487.00,0.0853
484.00,0.0842
481.00,0.0840
478.00,0.0836
475.00,0.0820
472.00,0.0820
469.00,0.0821
466.00,0.0817
463.00,0.0815
460.00,0.0809
457.00,0.0804
454.00,0.0799
451.00,0.0775
448.00,0.0763
445.00,0.0763
442.00,0.0751
439.00,0.0749
436.00,0.0742
433.00,0.0730
430.00,0.0714
427.00,0.0691
424.00,0.0697
421.00,0.0687
418.00,0.0672
415.00,0.0664
412.00,0.0708
409.00,0.0722
406.00,0.0691
403.00,0.0678
400.00,0.0692