File: FTIR/Olivia/2025_06_06_Standard_post_Polystyrene_scan2.csv
Created as New Dataset,Sample 630 By YargerLab Date Friday, June 06 2025
cm-1,A
4000.00,0.0020
3997.00,0.0020
3994.00,0.0019
3991.00,0.0018
3988.00,0.0018
3985.00,0.0019
3982.00,0.0019
3979.00,0.0018
3976.00,0.0018
3973.00,0.0019
3970.00,0.0019
3967.00,0.0018
3964.00,0.0018
3961.00,0.0018
3958.00,0.0018
3955.00,0.0019
3952.00,0.0019
3949.00,0.0019
3946.00,0.0019
3943.00,0.0018
3940.00,0.0018
3937.00,0.0018
3934.00,0.0019
3931.00,0.0018
3928.00,0.0019
3925.00,0.0019
3922.00,0.0019
3919.00,0.0018
3916.00,0.0018
3913.00,0.0018
3910.00,0.0018
3907.00,0.0019
3904.00,0.0019
3901.00,0.0019
3898.00,0.0018
3895.00,0.0018
3892.00,0.0019
3889.00,0.0020
3886.00,0.0019
3883.00,0.0019
3880.00,0.0018
3877.00,0.0019
3874.00,0.0019
3871.00,0.0019
3868.00,0.0019
3865.00,0.0019
3862.00,0.0019
3859.00,0.0019
3856.00,0.0020
3853.00,0.0019
3850.00,0.0019
3847.00,0.0019
3844.00,0.0019
3841.00,0.0019
3838.00,0.0019
3835.00,0.0020
3832.00,0.0019
3829.00,0.0019
3826.00,0.0019
3823.00,0.0019
3820.00,0.0019
3817.00,0.0019
3814.00,0.0020
3811.00,0.0020
3808.00,0.0019
3805.00,0.0020
3802.00,0.0020
3799.00,0.0020
3796.00,0.0019
3793.00,0.0019
3790.00,0.0019
3787.00,0.0018
3784.00,0.0019
3781.00,0.0019
3778.00,0.0018
3775.00,0.0019
3772.00,0.0019
3769.00,0.0020
3766.00,0.0020
3763.00,0.0020
3760.00,0.0019
3757.00,0.0019
3754.00,0.0019
3751.00,0.0019
3748.00,0.0020
3745.00,0.0019
3742.00,0.0020
3739.00,0.0020
3736.00,0.0019
3733.00,0.0019
3730.00,0.0018
3727.00,0.0018
3724.00,0.0018
3721.00,0.0018
3718.00,0.0018
3715.00,0.0018
3712.00,0.0019
3709.00,0.0018
3706.00,0.0018
3703.00,0.0018
3700.00,0.0018
3697.00,0.0018
3694.00,0.0018
3691.00,0.0018
3688.00,0.0018
3685.00,0.0017
3682.00,0.0016
3679.00,0.0017
3676.00,0.0017
3673.00,0.0017
3670.00,0.0016
3667.00,0.0015
3664.00,0.0015
3661.00,0.0014
3658.00,0.0015
3655.00,0.0015
3652.00,0.0017
3649.00,0.0018
3646.00,0.0018
3643.00,0.0017
3640.00,0.0016
3637.00,0.0016
3634.00,0.0017
3631.00,0.0018
3628.00,0.0017
3625.00,0.0017
3622.00,0.0018
3619.00,0.0018
3616.00,0.0018
3613.00,0.0017
3610.00,0.0017
3607.00,0.0017
3604.00,0.0017
3601.00,0.0018
3598.00,0.0018
3595.00,0.0018
3592.00,0.0017
3589.00,0.0019
3586.00,0.0019
3583.00,0.0018
3580.00,0.0018
3577.00,0.0018
3574.00,0.0018
3571.00,0.0018
3568.00,0.0019
3565.00,0.0018
3562.00,0.0018
3559.00,0.0019
3556.00,0.0019
3553.00,0.0019
3550.00,0.0019
3547.00,0.0020
3544.00,0.0020
3541.00,0.0020
3538.00,0.0020
3535.00,0.0020
3532.00,0.0021
3529.00,0.0021
3526.00,0.0022
3523.00,0.0022
3520.00,0.0022
3517.00,0.0022
3514.00,0.0022
3511.00,0.0022
3508.00,0.0022
3505.00,0.0023
3502.00,0.0023
3499.00,0.0023
3496.00,0.0023
3493.00,0.0024
3490.00,0.0023
3487.00,0.0024
3484.00,0.0024
3481.00,0.0024
3478.00,0.0024
3475.00,0.0024
3472.00,0.0025
3469.00,0.0025
3466.00,0.0025
3463.00,0.0025
3460.00,0.0025
3457.00,0.0025
3454.00,0.0025
3451.00,0.0026
3448.00,0.0026
3445.00,0.0026
3442.00,0.0026
3439.00,0.0026
3436.00,0.0025
3433.00,0.0025
3430.00,0.0025
3427.00,0.0026
3424.00,0.0026
3421.00,0.0026
3418.00,0.0026
3415.00,0.0025
3412.00,0.0026
3409.00,0.0026
3406.00,0.0026
3403.00,0.0026
3400.00,0.0027
3397.00,0.0027
3394.00,0.0027
3391.00,0.0027
3388.00,0.0027
3385.00,0.0027
3382.00,0.0028
3379.00,0.0028
3376.00,0.0028
3373.00,0.0028
3370.00,0.0028
3367.00,0.0029
3364.00,0.0029
3361.00,0.0029
3358.00,0.0030
3355.00,0.0030
3352.00,0.0030
3349.00,0.0030
3346.00,0.0030
3343.00,0.0030
3340.00,0.0030
3337.00,0.0030
3334.00,0.0030
3331.00,0.0030
3328.00,0.0030
3325.00,0.0030
3322.00,0.0029
3319.00,0.0029
3316.00,0.0029
3313.00,0.0029
3310.00,0.0029
3307.00,0.0028
3304.00,0.0028
3301.00,0.0028
3298.00,0.0028
3295.00,0.0027
3292.00,0.0027
3289.00,0.0027
3286.00,0.0026
3283.00,0.0026
3280.00,0.0027
3277.00,0.0026
3274.00,0.0026
3271.00,0.0026
3268.00,0.0026
3265.00,0.0026
3262.00,0.0026
3259.00,0.0025
3256.00,0.0025
3253.00,0.0025
3250.00,0.0025
3247.00,0.0025
3244.00,0.0025
3241.00,0.0024
3238.00,0.0024
3235.00,0.0024
3232.00,0.0025
3229.00,0.0024
3226.00,0.0024
3223.00,0.0024
3220.00,0.0024
3217.00,0.0024
3214.00,0.0024
3211.00,0.0025
3208.00,0.0025
3205.00,0.0025
3202.00,0.0026
3199.00,0.0025
3196.00,0.0024
3193.00,0.0024
3190.00,0.0023
3187.00,0.0023
3184.00,0.0023
3181.00,0.0023
3178.00,0.0023
3175.00,0.0023
3172.00,0.0023
3169.00,0.0024
3166.00,0.0025
3163.00,0.0025
3160.00,0.0025
3157.00,0.0024
3154.00,0.0023
3151.00,0.0023
3148.00,0.0023
3145.00,0.0022
3142.00,0.0023
3139.00,0.0023
3136.00,0.0023
3133.00,0.0023
3130.00,0.0023
3127.00,0.0024
3124.00,0.0025
3121.00,0.0026
3118.00,0.0028
3115.00,0.0032
3112.00,0.0037
3109.00,0.0045
3106.00,0.0054
3103.00,0.0057
3100.00,0.0056
3097.00,0.0054
3094.00,0.0057
3091.00,0.0071
3088.00,0.0095
3085.00,0.0123
3082.00,0.0134
3079.00,0.0120
3076.00,0.0104
3073.00,0.0099
3070.00,0.0108
3067.00,0.0129
3064.00,0.0160
3061.00,0.0183
3058.00,0.0178
3055.00,0.0150
3052.00,0.0122
3049.00,0.0103
3046.00,0.0094
3043.00,0.0098
3040.00,0.0112
3037.00,0.0139
3034.00,0.0186
3031.00,0.0255
3028.00,0.0327
3025.00,0.0352
3022.00,0.0298
3019.00,0.0210
3016.00,0.0142
3013.00,0.0103
3010.00,0.0087
3007.00,0.0085
3004.00,0.0091
3001.00,0.0091
2998.00,0.0076
2995.00,0.0055
2992.00,0.0042
2989.00,0.0036
2986.00,0.0031
2983.00,0.0023
2980.00,0.0021
2977.00,0.0027
2974.00,0.0030
2971.00,0.0033
2968.00,0.0041
2965.00,0.0049
2962.00,0.0059
2959.00,0.0070
2956.00,0.0083
2953.00,0.0099
2950.00,0.0118
2947.00,0.0142
2944.00,0.0170
2941.00,0.0204
2938.00,0.0243
2935.00,0.0287
2932.00,0.0334
2929.00,0.0376
2926.00,0.0406
2923.00,0.0420
2920.00,0.0417
2917.00,0.0400
2914.00,0.0374
2911.00,0.0343
2908.00,0.0310
2905.00,0.0277
2902.00,0.0244
2899.00,0.0212
2896.00,0.0186
2893.00,0.0166
2890.00,0.0150
2887.00,0.0138
2884.00,0.0128
2881.00,0.0119
2878.00,0.0111
2875.00,0.0105
2872.00,0.0100
2869.00,0.0100
2866.00,0.0105
2863.00,0.0115
2860.00,0.0132
2857.00,0.0153
2854.00,0.0171
2851.00,0.0183
2848.00,0.0182
2845.00,0.0166
2842.00,0.0138
2839.00,0.0106
2836.00,0.0080
2833.00,0.0064
2830.00,0.0055
2827.00,0.0050
2824.00,0.0047
2821.00,0.0045
2818.00,0.0043
2815.00,0.0042
2812.00,0.0041
2809.00,0.0041
2806.00,0.0040
2803.00,0.0039
2800.00,0.0038
2797.00,0.0036
2794.00,0.0036
2791.00,0.0035
2788.00,0.0034
2785.00,0.0035
2782.00,0.0034
2779.00,0.0034
2776.00,0.0033
2773.00,0.0032
2770.00,0.0032
2767.00,0.0031
2764.00,0.0031
2761.00,0.0030
2758.00,0.0030
2755.00,0.0030
2752.00,0.0030
2749.00,0.0029
2746.00,0.0029
2743.00,0.0029
2740.00,0.0029
2737.00,0.0030
2734.00,0.0030
2731.00,0.0030
2728.00,0.0030
2725.00,0.0030
2722.00,0.0030
2719.00,0.0030
2716.00,0.0030
2713.00,0.0030
2710.00,0.0030
2707.00,0.0030
2704.00,0.0030
2701.00,0.0030
2698.00,0.0029
2695.00,0.0029
2692.00,0.0029
2689.00,0.0030
2686.00,0.0030
2683.00,0.0029
2680.00,0.0029
2677.00,0.0029
2674.00,0.0029
2671.00,0.0029
2668.00,0.0029
2665.00,0.0030
2662.00,0.0032
2659.00,0.0033
2656.00,0.0034
2653.00,0.0034
2650.00,0.0035
2647.00,0.0034
2644.00,0.0034
2641.00,0.0035
2638.00,0.0034
2635.00,0.0035
2632.00,0.0035
2629.00,0.0035
2626.00,0.0034
2623.00,0.0033
2620.00,0.0032
2617.00,0.0032
2614.00,0.0031
2611.00,0.0031
2608.00,0.0032
2605.00,0.0032
2602.00,0.0032
2599.00,0.0031
2596.00,0.0030
2593.00,0.0029
2590.00,0.0029
2587.00,0.0028
2584.00,0.0029
2581.00,0.0029
2578.00,0.0028
2575.00,0.0027
2572.00,0.0027
2569.00,0.0026
2566.00,0.0025
2563.00,0.0025
2560.00,0.0026
2557.00,0.0026
2554.00,0.0025
2551.00,0.0025
2548.00,0.0024
2545.00,0.0025
2542.00,0.0025
2539.00,0.0025
2536.00,0.0025
2533.00,0.0025
2530.00,0.0025
2527.00,0.0024
2524.00,0.0024
2521.00,0.0024
2518.00,0.0024
2515.00,0.0024
2512.00,0.0023
2509.00,0.0023
2506.00,0.0024
2503.00,0.0023
2500.00,0.0024
2497.00,0.0024
2494.00,0.0024
2491.00,0.0024
2488.00,0.0023
2485.00,0.0023
2482.00,0.0023
2479.00,0.0022
2476.00,0.0022
2473.00,0.0021
2470.00,0.0021
2467.00,0.0021
2464.00,0.0021
2461.00,0.0021
2458.00,0.0022
2455.00,0.0022
2452.00,0.0022
2449.00,0.0022
2446.00,0.0022
2443.00,0.0021
2440.00,0.0020
2437.00,0.0020
2434.00,0.0019
2431.00,0.0019
2428.00,0.0019
2425.00,0.0019
2422.00,0.0018
2419.00,0.0018
2416.00,0.0019
2413.00,0.0019
2410.00,0.0018
2407.00,0.0016
2404.00,0.0016
2401.00,0.0016
2398.00,0.0016
2395.00,0.0016
2392.00,0.0016
2389.00,0.0016
2386.00,0.0016
2383.00,0.0016
2380.00,0.0017
2377.00,0.0017
2374.00,0.0017
2371.00,0.0016
2368.00,0.0016
2365.00,0.0018
2362.00,0.0019
2359.00,0.0019
2356.00,0.0019
2353.00,0.0017
2350.00,0.0018
2347.00,0.0023
2344.00,0.0023
2341.00,0.0024
2338.00,0.0025
2335.00,0.0026
2332.00,0.0025
2329.00,0.0026
2326.00,0.0037
2323.00,0.0035
2320.00,0.0029
2317.00,0.0029
2314.00,0.0029
2311.00,0.0028
2308.00,0.0027
2305.00,0.0026
2302.00,0.0026
2299.00,0.0026
2296.00,0.0028
2293.00,0.0030
2290.00,0.0031
2287.00,0.0032
2284.00,0.0030
2281.00,0.0027
2278.00,0.0027
2275.00,0.0027
2272.00,0.0025
2269.00,0.0024
2266.00,0.0023
2263.00,0.0022
2260.00,0.0024
2257.00,0.0022
2254.00,0.0022
2251.00,0.0023
2248.00,0.0024
2245.00,0.0022
2242.00,0.0022
2239.00,0.0022
2236.00,0.0021
2233.00,0.0022
2230.00,0.0021
2227.00,0.0019
2224.00,0.0019
2221.00,0.0018
2218.00,0.0018
2215.00,0.0017
2212.00,0.0016
2209.00,0.0016
2206.00,0.0018
2203.00,0.0019
2200.00,0.0017
2197.00,0.0020
2194.00,0.0019
2191.00,0.0021
2188.00,0.0023
2185.00,0.0021
2182.00,0.0014
2179.00,0.0015
2176.00,0.0012
2173.00,0.0017
2170.00,0.0026
2167.00,0.0026
2164.00,0.0027
2161.00,0.0012
2158.00,-0.0019
2155.00,-0.0014
2152.00,-0.0008
2149.00,-0.0005
2146.00,-0.0004
2143.00,-0.0004
2140.00,-0.0005
2137.00,-0.0006
2134.00,-0.0010
2131.00,-0.0004
2128.00,0.0001
2125.00,0.0004
2122.00,0.0008
2119.00,0.0011
2116.00,0.0014
2113.00,0.0015
2110.00,0.0014
2107.00,0.0014
2104.00,0.0013
2101.00,0.0013
2098.00,0.0012
2095.00,0.0008
2092.00,0.0011
2089.00,0.0014
2086.00,0.0014
2083.00,0.0015
2080.00,0.0016
2077.00,0.0015
2074.00,0.0015
2071.00,0.0013
2068.00,0.0012
2065.00,0.0012
2062.00,0.0009
2059.00,0.0011
2056.00,0.0012
2053.00,0.0019
2050.00,0.0021
2047.00,0.0012
2044.00,0.0011
2041.00,0.0009
2038.00,0.0012
2035.00,0.0010
2032.00,0.0007
2029.00,0.0007
2026.00,0.0005
2023.00,0.0006
2020.00,0.0002
2017.00,0.0001
2014.00,0.0003
2011.00,0.0005
2008.00,0.0001
2005.00,-0.0002
2002.00,0.0002
1999.00,0.0008
1996.00,0.0012
1993.00,0.0014
1990.00,0.0018
1987.00,0.0021
1984.00,0.0023
1981.00,0.0028
1978.00,0.0015
1975.00,0.0009
1972.00,0.0008
1969.00,0.0015
1966.00,0.0019
1963.00,0.0023
1960.00,0.0021
1957.00,0.0028
1954.00,0.0035
1951.00,0.0040
1948.00,0.0045
1945.00,0.0050
1942.00,0.0050
1939.00,0.0046
1936.00,0.0038
1933.00,0.0031
1930.00,0.0025
1927.00,0.0021
1924.00,0.0018
1921.00,0.0018
1918.00,0.0017
1915.00,0.0014
1912.00,0.0014
1909.00,0.0015
1906.00,0.0016
1903.00,0.0016
1900.00,0.0020
1897.00,0.0023
1894.00,0.0026
1891.00,0.0030
1888.00,0.0033
1885.00,0.0038
1882.00,0.0041
1879.00,0.0044
1876.00,0.0046
1873.00,0.0048
1870.00,0.0049
1867.00,0.0047
1864.00,0.0043
1861.00,0.0037
1858.00,0.0030
1855.00,0.0025
1852.00,0.0022
1849.00,0.0020
1846.00,0.0017
1843.00,0.0016
1840.00,0.0017
1837.00,0.0018
1834.00,0.0019
1831.00,0.0021
1828.00,0.0024
1825.00,0.0027
1822.00,0.0031
1819.00,0.0033
1816.00,0.0037
1813.00,0.0043
1810.00,0.0048
1807.00,0.0054
1804.00,0.0057
1801.00,0.0057
1798.00,0.0054
1795.00,0.0048
1792.00,0.0040
1789.00,0.0034
1786.00,0.0032
1783.00,0.0031
1780.00,0.0031
1777.00,0.0032
1774.00,0.0033
1771.00,0.0033
1768.00,0.0033
1765.00,0.0036
1762.00,0.0040
1759.00,0.0044
1756.00,0.0050
1753.00,0.0056
1750.00,0.0061
1747.00,0.0065
1744.00,0.0067
1741.00,0.0068
1738.00,0.0067
1735.00,0.0064
1732.00,0.0059
1729.00,0.0057
1726.00,0.0057
1723.00,0.0056
1720.00,0.0056
1717.00,0.0056
1714.00,0.0061
1711.00,0.0069
1708.00,0.0075
1705.00,0.0078
1702.00,0.0078
1699.00,0.0075
1696.00,0.0068
1693.00,0.0068
1690.00,0.0068
1687.00,0.0068
1684.00,0.0070
1681.00,0.0069
1678.00,0.0068
1675.00,0.0068
1672.00,0.0066
1669.00,0.0064
1666.00,0.0063
1663.00,0.0061
1660.00,0.0059
1657.00,0.0057
1654.00,0.0056
1651.00,0.0054
1648.00,0.0050
1645.00,0.0047
1642.00,0.0046
1639.00,0.0045
1636.00,0.0043
1633.00,0.0046
1630.00,0.0048
1627.00,0.0051
1624.00,0.0054
1621.00,0.0056
1618.00,0.0059
1615.00,0.0067
1612.00,0.0081
1609.00,0.0122
1606.00,0.0212
1603.00,0.0325
1600.00,0.0341
1597.00,0.0241
1594.00,0.0156
1591.00,0.0116
1588.00,0.0107
1585.00,0.0138
1582.00,0.0141
1579.00,0.0096
1576.00,0.0065
1573.00,0.0052
1570.00,0.0044
1567.00,0.0040
1564.00,0.0039
1561.00,0.0038
1558.00,0.0039
1555.00,0.0042
1552.00,0.0045
1549.00,0.0050
1546.00,0.0057
1543.00,0.0060
1540.00,0.0066
1537.00,0.0075
1534.00,0.0076
1531.00,0.0071
1528.00,0.0062
1525.00,0.0052
1522.00,0.0046
1519.00,0.0043
1516.00,0.0044
1513.00,0.0049
1510.00,0.0053
1507.00,0.0061
1504.00,0.0092
1501.00,0.0135
1498.00,0.0284
1495.00,0.0697
1492.00,0.0871
1489.00,0.0521
1486.00,0.0280
1483.00,0.0177
1480.00,0.0126
1477.00,0.0103
1474.00,0.0090
1471.00,0.0089
1468.00,0.0094
1465.00,0.0103
1462.00,0.0125
1459.00,0.0186
1456.00,0.0512
1453.00,0.0846
1450.00,0.0817
1447.00,0.0617
1444.00,0.0484
1441.00,0.0377
1438.00,0.0298
1435.00,0.0219
1432.00,0.0166
1429.00,0.0126
1426.00,0.0104
1423.00,0.0090
1420.00,0.0084
1417.00,0.0076
1414.00,0.0074
1411.00,0.0071
1408.00,0.0069
1405.00,0.0066
1402.00,0.0066
1399.00,0.0065
1396.00,0.0068
1393.00,0.0079
1390.00,0.0095
1387.00,0.0114
1384.00,0.0135
1381.00,0.0150
1378.00,0.0164
1375.00,0.0177
1372.00,0.0184
1369.00,0.0185
1366.00,0.0184
1363.00,0.0181
1360.00,0.0177
1357.00,0.0172
1354.00,0.0167
1351.00,0.0165
1348.00,0.0161
1345.00,0.0154
1342.00,0.0144
1339.00,0.0136
1336.00,0.0140
1333.00,0.0152
1330.00,0.0164
1327.00,0.0165
1324.00,0.0159
1321.00,0.0155
1318.00,0.0158
1315.00,0.0166
1312.00,0.0173
1309.00,0.0170
1306.00,0.0161
1303.00,0.0149
1300.00,0.0140
1297.00,0.0133
1294.00,0.0129
1291.00,0.0127
1288.00,0.0125
1285.00,0.0125
1282.00,0.0125
1279.00,0.0121
1276.00,0.0112
1273.00,0.0102
1270.00,0.0093
1267.00,0.0087
1264.00,0.0084
1261.00,0.0081
1258.00,0.0080
1255.00,0.0079
1252.00,0.0081
1249.00,0.0085
1246.00,0.0088
1243.00,0.0090
1240.00,0.0091
1237.00,0.0091
1234.00,0.0092
1231.00,0.0097
1228.00,0.0105
1225.00,0.0111
1222.00,0.0116
1219.00,0.0118
1216.00,0.0121
1213.00,0.0121
1210.00,0.0120
1207.00,0.0121
1204.00,0.0126
1201.00,0.0133
1198.00,0.0139
1195.00,0.0143
1192.00,0.0145
1189.00,0.0149
1186.00,0.0161
1183.00,0.0183
1180.00,0.0182
1177.00,0.0147
1174.00,0.0117
1171.00,0.0105
1168.00,0.0101
1165.00,0.0102
1162.00,0.0111
1159.00,0.0137
1156.00,0.0173
1153.00,0.0172
1150.00,0.0133
1147.00,0.0104
1144.00,0.0091
1141.00,0.0082
1138.00,0.0078
1135.00,0.0077
1132.00,0.0077
1129.00,0.0079
1126.00,0.0085
1123.00,0.0093
1120.00,0.0103
1117.00,0.0112
1114.00,0.0118
1111.00,0.0117
1108.00,0.0115
1105.00,0.0116
1102.00,0.0119
1099.00,0.0120
1096.00,0.0120
1093.00,0.0122
1090.00,0.0125
1087.00,0.0131
1084.00,0.0144
1081.00,0.0160
1078.00,0.0177
1075.00,0.0203
1072.00,0.0235
1069.00,0.0251
1066.00,0.0240
1063.00,0.0211
1060.00,0.0186
1057.00,0.0168
1054.00,0.0154
1051.00,0.0144
1048.00,0.0136
1045.00,0.0131
1042.00,0.0132
1039.00,0.0144
1036.00,0.0195
1033.00,0.0305
1030.00,0.0419
1027.00,0.0440
1024.00,0.0359
1021.00,0.0284
1018.00,0.0237
1015.00,0.0204
1012.00,0.0183
1009.00,0.0173
1006.00,0.0179
1003.00,0.0187
1000.00,0.0162
997.00,0.0137
994.00,0.0131
991.00,0.0132
988.00,0.0139
985.00,0.0152
982.00,0.0164
979.00,0.0165
976.00,0.0155
973.00,0.0147
970.00,0.0153
967.00,0.0169
964.00,0.0177
961.00,0.0163
958.00,0.0138
955.00,0.0123
952.00,0.0120
949.00,0.0124
946.00,0.0132
943.00,0.0137
940.00,0.0131
937.00,0.0119
934.00,0.0107
931.00,0.0099
928.00,0.0097
925.00,0.0101
922.00,0.0108
919.00,0.0122
916.00,0.0150
913.00,0.0199
910.00,0.0257
907.00,0.0293
904.00,0.0275
901.00,0.0215
898.00,0.0155
895.00,0.0119
892.00,0.0102
889.00,0.0093
886.00,0.0086
883.00,0.0080
880.00,0.0076
877.00,0.0074
874.00,0.0072
871.00,0.0069
868.00,0.0068
865.00,0.0069
862.00,0.0070
859.00,0.0070
856.00,0.0072
853.00,0.0079
850.00,0.0096
847.00,0.0122
844.00,0.0143
841.00,0.0149
838.00,0.0135
835.00,0.0107
832.00,0.0083
829.00,0.0072
826.00,0.0066
823.00,0.0064
820.00,0.0063
817.00,0.0064
814.00,0.0065
811.00,0.0066
808.00,0.0069
805.00,0.0072
802.00,0.0077
799.00,0.0084
796.00,0.0097
793.00,0.0115
790.00,0.0138
787.00,0.0166
784.00,0.0200
781.00,0.0246
778.00,0.0314
775.00,0.0410
772.00,0.0535
769.00,0.0685
766.00,0.0838
763.00,0.0987
760.00,0.1141
757.00,0.1258
754.00,0.1284
751.00,0.1269
748.00,0.1258
745.00,0.1143
742.00,0.0894
739.00,0.0652
736.00,0.0463
733.00,0.0307
730.00,0.0206
727.00,0.0160
724.00,0.0143
721.00,0.0142
718.00,0.0153
715.00,0.0186
712.00,0.0278
709.00,0.0509
706.00,0.0979
703.00,0.1729
700.00,0.2753
697.00,0.3873
694.00,0.4029
691.00,0.2717
688.00,0.1647
685.00,0.1129
682.00,0.0856
679.00,0.0691
676.00,0.0591
673.00,0.0525
670.00,0.0473
667.00,0.0416
664.00,0.0371
661.00,0.0326
658.00,0.0285
655.00,0.0251
652.00,0.0225
649.00,0.0205
646.00,0.0190
643.00,0.0181
640.00,0.0182
637.00,0.0194
634.00,0.0210
631.00,0.0223
628.00,0.0235
625.00,0.0244
622.00,0.0258
619.00,0.0252
616.00,0.0225
613.00,0.0213
610.00,0.0207
607.00,0.0200
604.00,0.0202
601.00,0.0205
598.00,0.0208
595.00,0.0216
592.00,0.0228
589.00,0.0241
586.00,0.0254
583.00,0.0268
580.00,0.0295
577.00,0.0336
574.00,0.0384
571.00,0.0434
568.00,0.0486
565.00,0.0535
562.00,0.0584
559.00,0.0633
556.00,0.0683
553.00,0.0739
550.00,0.0808
547.00,0.0903
544.00,0.1024
541.00,0.1142
538.00,0.1189
535.00,0.1109
532.00,0.0944
529.00,0.0766
526.00,0.0619
523.00,0.0511
520.00,0.0436
517.00,0.0391
514.00,0.0355
511.00,0.0320
508.00,0.0291
505.00,0.0266
502.00,0.0246
499.00,0.0225
496.00,0.0206
493.00,0.0194
490.00,0.0184
487.00,0.0175
484.00,0.0170
481.00,0.0165
478.00,0.0160
475.00,0.0152
472.00,0.0147
469.00,0.0151
466.00,0.0143
463.00,0.0133
460.00,0.0138
457.00,0.0141
454.00,0.0127
451.00,0.0123
448.00,0.0128
445.00,0.0130
442.00,0.0120
439.00,0.0117
436.00,0.0118
433.00,0.0119
430.00,0.0120
427.00,0.0110
424.00,0.0107
421.00,0.0107
418.00,0.0091
415.00,0.0091
412.00,0.0101
409.00,0.0118
406.00,0.0120
403.00,0.0117
400.00,0.0080