File: FTIR/Olivia/2025_08_01_Polystyrene_Std_scan1.csv
Created as New Dataset,Sample 1009 By YargerLab Date Thursday, July 31 2025
cm-1,A
4000.00,0.0010
3997.00,0.0010
3994.00,0.0010
3991.00,0.0010
3988.00,0.0010
3985.00,0.0010
3982.00,0.0010
3979.00,0.0010
3976.00,0.0010
3973.00,0.0010
3970.00,0.0011
3967.00,0.0010
3964.00,0.0010
3961.00,0.0010
3958.00,0.0011
3955.00,0.0010
3952.00,0.0010
3949.00,0.0010
3946.00,0.0010
3943.00,0.0010
3940.00,0.0010
3937.00,0.0010
3934.00,0.0010
3931.00,0.0010
3928.00,0.0010
3925.00,0.0009
3922.00,0.0010
3919.00,0.0010
3916.00,0.0010
3913.00,0.0010
3910.00,0.0010
3907.00,0.0010
3904.00,0.0010
3901.00,0.0010
3898.00,0.0010
3895.00,0.0010
3892.00,0.0009
3889.00,0.0009
3886.00,0.0010
3883.00,0.0009
3880.00,0.0009
3877.00,0.0009
3874.00,0.0010
3871.00,0.0009
3868.00,0.0009
3865.00,0.0009
3862.00,0.0009
3859.00,0.0010
3856.00,0.0009
3853.00,0.0009
3850.00,0.0008
3847.00,0.0010
3844.00,0.0011
3841.00,0.0010
3838.00,0.0009
3835.00,0.0009
3832.00,0.0009
3829.00,0.0010
3826.00,0.0010
3823.00,0.0010
3820.00,0.0010
3817.00,0.0008
3814.00,0.0009
3811.00,0.0010
3808.00,0.0009
3805.00,0.0010
3802.00,0.0010
3799.00,0.0009
3796.00,0.0010
3793.00,0.0010
3790.00,0.0011
3787.00,0.0010
3784.00,0.0011
3781.00,0.0010
3778.00,0.0011
3775.00,0.0011
3772.00,0.0010
3769.00,0.0010
3766.00,0.0010
3763.00,0.0011
3760.00,0.0010
3757.00,0.0010
3754.00,0.0009
3751.00,0.0010
3748.00,0.0010
3745.00,0.0008
3742.00,0.0009
3739.00,0.0009
3736.00,0.0009
3733.00,0.0007
3730.00,0.0009
3727.00,0.0009
3724.00,0.0010
3721.00,0.0010
3718.00,0.0010
3715.00,0.0009
3712.00,0.0009
3709.00,0.0009
3706.00,0.0009
3703.00,0.0010
3700.00,0.0010
3697.00,0.0010
3694.00,0.0009
3691.00,0.0009
3688.00,0.0008
3685.00,0.0009
3682.00,0.0009
3679.00,0.0009
3676.00,0.0008
3673.00,0.0008
3670.00,0.0009
3667.00,0.0009
3664.00,0.0010
3661.00,0.0010
3658.00,0.0009
3655.00,0.0010
3652.00,0.0009
3649.00,0.0009
3646.00,0.0008
3643.00,0.0009
3640.00,0.0010
3637.00,0.0010
3634.00,0.0010
3631.00,0.0008
3628.00,0.0008
3625.00,0.0009
3622.00,0.0009
3619.00,0.0010
3616.00,0.0009
3613.00,0.0010
3610.00,0.0009
3607.00,0.0009
3604.00,0.0009
3601.00,0.0010
3598.00,0.0010
3595.00,0.0010
3592.00,0.0010
3589.00,0.0010
3586.00,0.0009
3583.00,0.0010
3580.00,0.0011
3577.00,0.0010
3574.00,0.0010
3571.00,0.0011
3568.00,0.0011
3565.00,0.0010
3562.00,0.0010
3559.00,0.0011
3556.00,0.0011
3553.00,0.0011
3550.00,0.0011
3547.00,0.0011
3544.00,0.0012
3541.00,0.0012
3538.00,0.0011
3535.00,0.0012
3532.00,0.0012
3529.00,0.0012
3526.00,0.0012
3523.00,0.0012
3520.00,0.0013
3517.00,0.0013
3514.00,0.0013
3511.00,0.0013
3508.00,0.0013
3505.00,0.0013
3502.00,0.0013
3499.00,0.0013
3496.00,0.0013
3493.00,0.0013
3490.00,0.0013
3487.00,0.0014
3484.00,0.0013
3481.00,0.0013
3478.00,0.0013
3475.00,0.0013
3472.00,0.0014
3469.00,0.0015
3466.00,0.0014
3463.00,0.0014
3460.00,0.0013
3457.00,0.0013
3454.00,0.0014
3451.00,0.0014
3448.00,0.0014
3445.00,0.0014
3442.00,0.0014
3439.00,0.0014
3436.00,0.0014
3433.00,0.0015
3430.00,0.0014
3427.00,0.0014
3424.00,0.0013
3421.00,0.0014
3418.00,0.0013
3415.00,0.0014
3412.00,0.0014
3409.00,0.0014
3406.00,0.0014
3403.00,0.0014
3400.00,0.0014
3397.00,0.0013
3394.00,0.0014
3391.00,0.0014
3388.00,0.0014
3385.00,0.0014
3382.00,0.0014
3379.00,0.0015
3376.00,0.0015
3373.00,0.0014
3370.00,0.0014
3367.00,0.0014
3364.00,0.0014
3361.00,0.0014
3358.00,0.0014
3355.00,0.0014
3352.00,0.0014
3349.00,0.0014
3346.00,0.0014
3343.00,0.0014
3340.00,0.0014
3337.00,0.0014
3334.00,0.0014
3331.00,0.0014
3328.00,0.0015
3325.00,0.0015
3322.00,0.0015
3319.00,0.0014
3316.00,0.0014
3313.00,0.0014
3310.00,0.0014
3307.00,0.0014
3304.00,0.0014
3301.00,0.0015
3298.00,0.0014
3295.00,0.0014
3292.00,0.0014
3289.00,0.0014
3286.00,0.0014
3283.00,0.0014
3280.00,0.0014
3277.00,0.0013
3274.00,0.0014
3271.00,0.0014
3268.00,0.0014
3265.00,0.0014
3262.00,0.0014
3259.00,0.0014
3256.00,0.0014
3253.00,0.0013
3250.00,0.0014
3247.00,0.0013
3244.00,0.0013
3241.00,0.0013
3238.00,0.0013
3235.00,0.0013
3232.00,0.0013
3229.00,0.0013
3226.00,0.0013
3223.00,0.0012
3220.00,0.0012
3217.00,0.0013
3214.00,0.0013
3211.00,0.0013
3208.00,0.0014
3205.00,0.0014
3202.00,0.0013
3199.00,0.0013
3196.00,0.0013
3193.00,0.0013
3190.00,0.0013
3187.00,0.0012
3184.00,0.0012
3181.00,0.0012
3178.00,0.0013
3175.00,0.0012
3172.00,0.0012
3169.00,0.0012
3166.00,0.0013
3163.00,0.0013
3160.00,0.0013
3157.00,0.0013
3154.00,0.0013
3151.00,0.0012
3148.00,0.0012
3145.00,0.0012
3142.00,0.0012
3139.00,0.0012
3136.00,0.0012
3133.00,0.0012
3130.00,0.0012
3127.00,0.0013
3124.00,0.0012
3121.00,0.0013
3118.00,0.0013
3115.00,0.0014
3112.00,0.0015
3109.00,0.0017
3106.00,0.0019
3103.00,0.0021
3100.00,0.0020
3097.00,0.0020
3094.00,0.0020
3091.00,0.0023
3088.00,0.0030
3085.00,0.0038
3082.00,0.0042
3079.00,0.0039
3076.00,0.0034
3073.00,0.0032
3070.00,0.0033
3067.00,0.0039
3064.00,0.0046
3061.00,0.0053
3058.00,0.0054
3055.00,0.0048
3052.00,0.0040
3049.00,0.0034
3046.00,0.0031
3043.00,0.0032
3040.00,0.0035
3037.00,0.0041
3034.00,0.0052
3031.00,0.0069
3028.00,0.0088
3025.00,0.0099
3022.00,0.0090
3019.00,0.0067
3016.00,0.0047
3013.00,0.0035
3010.00,0.0030
3007.00,0.0029
3004.00,0.0032
3001.00,0.0033
2998.00,0.0031
2995.00,0.0026
2992.00,0.0022
2989.00,0.0021
2986.00,0.0020
2983.00,0.0021
2980.00,0.0021
2977.00,0.0022
2974.00,0.0022
2971.00,0.0023
2968.00,0.0024
2965.00,0.0026
2962.00,0.0028
2959.00,0.0030
2956.00,0.0033
2953.00,0.0036
2950.00,0.0041
2947.00,0.0046
2944.00,0.0054
2941.00,0.0062
2938.00,0.0071
2935.00,0.0083
2932.00,0.0095
2929.00,0.0107
2926.00,0.0116
2923.00,0.0121
2920.00,0.0122
2917.00,0.0119
2914.00,0.0113
2911.00,0.0105
2908.00,0.0096
2905.00,0.0087
2902.00,0.0078
2899.00,0.0069
2896.00,0.0062
2893.00,0.0056
2890.00,0.0052
2887.00,0.0048
2884.00,0.0045
2881.00,0.0042
2878.00,0.0040
2875.00,0.0038
2872.00,0.0037
2869.00,0.0036
2866.00,0.0037
2863.00,0.0039
2860.00,0.0043
2857.00,0.0048
2854.00,0.0053
2851.00,0.0057
2848.00,0.0058
2845.00,0.0054
2842.00,0.0047
2839.00,0.0037
2836.00,0.0029
2833.00,0.0024
2830.00,0.0021
2827.00,0.0019
2824.00,0.0018
2821.00,0.0017
2818.00,0.0018
2815.00,0.0017
2812.00,0.0017
2809.00,0.0017
2806.00,0.0016
2803.00,0.0015
2800.00,0.0015
2797.00,0.0015
2794.00,0.0015
2791.00,0.0015
2788.00,0.0015
2785.00,0.0014
2782.00,0.0014
2779.00,0.0014
2776.00,0.0014
2773.00,0.0014
2770.00,0.0014
2767.00,0.0014
2764.00,0.0013
2761.00,0.0013
2758.00,0.0013
2755.00,0.0013
2752.00,0.0013
2749.00,0.0013
2746.00,0.0013
2743.00,0.0013
2740.00,0.0013
2737.00,0.0013
2734.00,0.0013
2731.00,0.0014
2728.00,0.0013
2725.00,0.0013
2722.00,0.0013
2719.00,0.0013
2716.00,0.0013
2713.00,0.0013
2710.00,0.0013
2707.00,0.0013
2704.00,0.0013
2701.00,0.0013
2698.00,0.0013
2695.00,0.0013
2692.00,0.0013
2689.00,0.0013
2686.00,0.0013
2683.00,0.0013
2680.00,0.0013
2677.00,0.0013
2674.00,0.0013
2671.00,0.0013
2668.00,0.0014
2665.00,0.0014
2662.00,0.0016
2659.00,0.0017
2656.00,0.0017
2653.00,0.0018
2650.00,0.0018
2647.00,0.0018
2644.00,0.0018
2641.00,0.0018
2638.00,0.0018
2635.00,0.0018
2632.00,0.0018
2629.00,0.0018
2626.00,0.0017
2623.00,0.0017
2620.00,0.0016
2617.00,0.0016
2614.00,0.0016
2611.00,0.0015
2608.00,0.0015
2605.00,0.0016
2602.00,0.0016
2599.00,0.0015
2596.00,0.0015
2593.00,0.0014
2590.00,0.0014
2587.00,0.0014
2584.00,0.0015
2581.00,0.0014
2578.00,0.0014
2575.00,0.0013
2572.00,0.0013
2569.00,0.0014
2566.00,0.0014
2563.00,0.0013
2560.00,0.0012
2557.00,0.0012
2554.00,0.0013
2551.00,0.0012
2548.00,0.0012
2545.00,0.0012
2542.00,0.0012
2539.00,0.0012
2536.00,0.0011
2533.00,0.0011
2530.00,0.0011
2527.00,0.0012
2524.00,0.0012
2521.00,0.0011
2518.00,0.0011
2515.00,0.0011
2512.00,0.0011
2509.00,0.0011
2506.00,0.0011
2503.00,0.0010
2500.00,0.0011
2497.00,0.0011
2494.00,0.0011
2491.00,0.0011
2488.00,0.0010
2485.00,0.0011
2482.00,0.0010
2479.00,0.0011
2476.00,0.0011
2473.00,0.0010
2470.00,0.0010
2467.00,0.0011
2464.00,0.0011
2461.00,0.0010
2458.00,0.0011
2455.00,0.0011
2452.00,0.0011
2449.00,0.0010
2446.00,0.0011
2443.00,0.0011
2440.00,0.0010
2437.00,0.0010
2434.00,0.0009
2431.00,0.0010
2428.00,0.0009
2425.00,0.0008
2422.00,0.0008
2419.00,0.0008
2416.00,0.0008
2413.00,0.0008
2410.00,0.0008
2407.00,0.0007
2404.00,0.0007
2401.00,0.0007
2398.00,0.0007
2395.00,0.0007
2392.00,0.0007
2389.00,0.0007
2386.00,0.0006
2383.00,0.0005
2380.00,0.0005
2377.00,0.0005
2374.00,0.0006
2371.00,0.0005
2368.00,0.0005
2365.00,0.0005
2362.00,0.0006
2359.00,0.0007
2356.00,0.0008
2353.00,0.0007
2350.00,0.0007
2347.00,0.0009
2344.00,0.0010
2341.00,0.0011
2338.00,0.0011
2335.00,0.0011
2332.00,0.0011
2329.00,0.0013
2326.00,0.0021
2323.00,0.0021
2320.00,0.0017
2317.00,0.0016
2314.00,0.0015
2311.00,0.0014
2308.00,0.0014
2305.00,0.0014
2302.00,0.0014
2299.00,0.0014
2296.00,0.0016
2293.00,0.0018
2290.00,0.0019
2287.00,0.0020
2284.00,0.0018
2281.00,0.0017
2278.00,0.0016
2275.00,0.0015
2272.00,0.0014
2269.00,0.0015
2266.00,0.0013
2263.00,0.0012
2260.00,0.0014
2257.00,0.0013
2254.00,0.0010
2251.00,0.0010
2248.00,0.0011
2245.00,0.0012
2242.00,0.0011
2239.00,0.0012
2236.00,0.0012
2233.00,0.0011
2230.00,0.0011
2227.00,0.0011
2224.00,0.0012
2221.00,0.0011
2218.00,0.0011
2215.00,0.0012
2212.00,0.0011
2209.00,0.0012
2206.00,0.0011
2203.00,0.0010
2200.00,0.0012
2197.00,0.0012
2194.00,0.0010
2191.00,0.0011
2188.00,0.0012
2185.00,0.0011
2182.00,0.0008
2179.00,0.0007
2176.00,0.0005
2173.00,0.0008
2170.00,0.0016
2167.00,0.0023
2164.00,0.0025
2161.00,0.0011
2158.00,-0.0017
2155.00,-0.0015
2152.00,-0.0010
2149.00,-0.0007
2146.00,-0.0005
2143.00,-0.0004
2140.00,-0.0006
2137.00,-0.0009
2134.00,-0.0011
2131.00,-0.0006
2128.00,-0.0003
2125.00,0.0001
2122.00,0.0003
2119.00,0.0004
2116.00,0.0007
2113.00,0.0009
2110.00,0.0008
2107.00,0.0007
2104.00,0.0007
2101.00,0.0007
2098.00,0.0004
2095.00,0.0002
2092.00,0.0004
2089.00,0.0006
2086.00,0.0007
2083.00,0.0009
2080.00,0.0010
2077.00,0.0009
2074.00,0.0010
2071.00,0.0008
2068.00,0.0007
2065.00,0.0006
2062.00,0.0008
2059.00,0.0009
2056.00,0.0008
2053.00,0.0014
2050.00,0.0015
2047.00,0.0011
2044.00,0.0007
2041.00,0.0009
2038.00,0.0012
2035.00,0.0008
2032.00,0.0005
2029.00,0.0003
2026.00,0.0000
2023.00,0.0001
2020.00,0.0003
2017.00,0.0000
2014.00,0.0001
2011.00,0.0003
2008.00,-0.0001
2005.00,-0.0004
2002.00,-0.0000
1999.00,0.0003
1996.00,0.0004
1993.00,0.0007
1990.00,0.0010
1987.00,0.0014
1984.00,0.0014
1981.00,0.0018
1978.00,0.0006
1975.00,-0.0004
1972.00,-0.0002
1969.00,0.0001
1966.00,0.0005
1963.00,0.0005
1960.00,0.0005
1957.00,0.0005
1954.00,0.0007
1951.00,0.0010
1948.00,0.0012
1945.00,0.0013
1942.00,0.0014
1939.00,0.0013
1936.00,0.0010
1933.00,0.0007
1930.00,0.0006
1927.00,0.0005
1924.00,0.0004
1921.00,0.0004
1918.00,0.0006
1915.00,0.0006
1912.00,0.0005
1909.00,0.0005
1906.00,0.0005
1903.00,0.0006
1900.00,0.0006
1897.00,0.0008
1894.00,0.0009
1891.00,0.0010
1888.00,0.0012
1885.00,0.0013
1882.00,0.0013
1879.00,0.0014
1876.00,0.0015
1873.00,0.0016
1870.00,0.0016
1867.00,0.0015
1864.00,0.0013
1861.00,0.0012
1858.00,0.0011
1855.00,0.0010
1852.00,0.0009
1849.00,0.0007
1846.00,0.0008
1843.00,0.0007
1840.00,0.0007
1837.00,0.0007
1834.00,0.0007
1831.00,0.0008
1828.00,0.0010
1825.00,0.0011
1822.00,0.0012
1819.00,0.0011
1816.00,0.0012
1813.00,0.0015
1810.00,0.0017
1807.00,0.0019
1804.00,0.0020
1801.00,0.0021
1798.00,0.0020
1795.00,0.0018
1792.00,0.0017
1789.00,0.0014
1786.00,0.0013
1783.00,0.0013
1780.00,0.0013
1777.00,0.0013
1774.00,0.0014
1771.00,0.0014
1768.00,0.0015
1765.00,0.0015
1762.00,0.0016
1759.00,0.0018
1756.00,0.0019
1753.00,0.0021
1750.00,0.0023
1747.00,0.0024
1744.00,0.0025
1741.00,0.0026
1738.00,0.0026
1735.00,0.0026
1732.00,0.0024
1729.00,0.0023
1726.00,0.0022
1723.00,0.0022
1720.00,0.0022
1717.00,0.0022
1714.00,0.0020
1711.00,0.0020
1708.00,0.0020
1705.00,0.0020
1702.00,0.0021
1699.00,0.0022
1696.00,0.0022
1693.00,0.0024
1690.00,0.0027
1687.00,0.0029
1684.00,0.0031
1681.00,0.0032
1678.00,0.0035
1675.00,0.0036
1672.00,0.0037
1669.00,0.0037
1666.00,0.0037
1663.00,0.0038
1660.00,0.0037
1657.00,0.0036
1654.00,0.0036
1651.00,0.0032
1648.00,0.0031
1645.00,0.0028
1642.00,0.0027
1639.00,0.0026
1636.00,0.0024
1633.00,0.0023
1630.00,0.0023
1627.00,0.0023
1624.00,0.0024
1621.00,0.0025
1618.00,0.0026
1615.00,0.0027
1612.00,0.0031
1609.00,0.0042
1606.00,0.0067
1603.00,0.0101
1600.00,0.0110
1597.00,0.0082
1594.00,0.0056
1591.00,0.0043
1588.00,0.0040
1585.00,0.0048
1582.00,0.0051
1579.00,0.0039
1576.00,0.0028
1573.00,0.0023
1570.00,0.0021
1567.00,0.0019
1564.00,0.0019
1561.00,0.0019
1558.00,0.0019
1555.00,0.0021
1552.00,0.0022
1549.00,0.0024
1546.00,0.0025
1543.00,0.0026
1540.00,0.0025
1537.00,0.0024
1534.00,0.0023
1531.00,0.0022
1528.00,0.0021
1525.00,0.0021
1522.00,0.0020
1519.00,0.0021
1516.00,0.0022
1513.00,0.0023
1510.00,0.0025
1507.00,0.0026
1504.00,0.0032
1501.00,0.0045
1498.00,0.0087
1495.00,0.0205
1492.00,0.0279
1489.00,0.0177
1486.00,0.0095
1483.00,0.0063
1480.00,0.0047
1477.00,0.0041
1474.00,0.0039
1471.00,0.0039
1468.00,0.0042
1465.00,0.0047
1462.00,0.0054
1459.00,0.0073
1456.00,0.0158
1453.00,0.0263
1450.00,0.0271
1447.00,0.0209
1444.00,0.0168
1441.00,0.0134
1438.00,0.0112
1435.00,0.0082
1432.00,0.0066
1429.00,0.0054
1426.00,0.0047
1423.00,0.0044
1420.00,0.0042
1417.00,0.0038
1414.00,0.0036
1411.00,0.0035
1408.00,0.0034
1405.00,0.0035
1402.00,0.0034
1399.00,0.0035
1396.00,0.0036
1393.00,0.0038
1390.00,0.0043
1387.00,0.0048
1384.00,0.0054
1381.00,0.0060
1378.00,0.0065
1375.00,0.0070
1372.00,0.0071
1369.00,0.0071
1366.00,0.0070
1363.00,0.0069
1360.00,0.0065
1357.00,0.0063
1354.00,0.0061
1351.00,0.0060
1348.00,0.0060
1345.00,0.0058
1342.00,0.0056
1339.00,0.0054
1336.00,0.0054
1333.00,0.0058
1330.00,0.0061
1327.00,0.0063
1324.00,0.0061
1321.00,0.0059
1318.00,0.0059
1315.00,0.0061
1312.00,0.0062
1309.00,0.0060
1306.00,0.0058
1303.00,0.0056
1300.00,0.0055
1297.00,0.0055
1294.00,0.0056
1291.00,0.0057
1288.00,0.0055
1285.00,0.0053
1282.00,0.0052
1279.00,0.0051
1276.00,0.0048
1273.00,0.0045
1270.00,0.0043
1267.00,0.0041
1264.00,0.0039
1261.00,0.0038
1258.00,0.0038
1255.00,0.0038
1252.00,0.0038
1249.00,0.0039
1246.00,0.0040
1243.00,0.0040
1240.00,0.0040
1237.00,0.0040
1234.00,0.0040
1231.00,0.0039
1228.00,0.0040
1225.00,0.0040
1222.00,0.0040
1219.00,0.0040
1216.00,0.0040
1213.00,0.0041
1210.00,0.0042
1207.00,0.0044
1204.00,0.0048
1201.00,0.0052
1198.00,0.0055
1195.00,0.0057
1192.00,0.0057
1189.00,0.0058
1186.00,0.0062
1183.00,0.0071
1180.00,0.0073
1177.00,0.0062
1174.00,0.0052
1171.00,0.0048
1168.00,0.0047
1165.00,0.0048
1162.00,0.0051
1159.00,0.0060
1156.00,0.0073
1153.00,0.0073
1150.00,0.0059
1147.00,0.0048
1144.00,0.0042
1141.00,0.0038
1138.00,0.0036
1135.00,0.0036
1132.00,0.0036
1129.00,0.0036
1126.00,0.0037
1123.00,0.0037
1120.00,0.0040
1117.00,0.0043
1114.00,0.0045
1111.00,0.0046
1108.00,0.0047
1105.00,0.0047
1102.00,0.0048
1099.00,0.0048
1096.00,0.0051
1093.00,0.0053
1090.00,0.0054
1087.00,0.0057
1084.00,0.0062
1081.00,0.0069
1078.00,0.0076
1075.00,0.0084
1072.00,0.0096
1069.00,0.0101
1066.00,0.0098
1063.00,0.0089
1060.00,0.0079
1057.00,0.0073
1054.00,0.0067
1051.00,0.0063
1048.00,0.0060
1045.00,0.0057
1042.00,0.0056
1039.00,0.0061
1036.00,0.0078
1033.00,0.0116
1030.00,0.0157
1027.00,0.0167
1024.00,0.0139
1021.00,0.0112
1018.00,0.0095
1015.00,0.0084
1012.00,0.0077
1009.00,0.0073
1006.00,0.0075
1003.00,0.0079
1000.00,0.0071
997.00,0.0062
994.00,0.0059
991.00,0.0060
988.00,0.0062
985.00,0.0066
982.00,0.0071
979.00,0.0073
976.00,0.0070
973.00,0.0067
970.00,0.0070
967.00,0.0076
964.00,0.0079
961.00,0.0075
958.00,0.0066
955.00,0.0061
952.00,0.0059
949.00,0.0060
946.00,0.0063
943.00,0.0064
940.00,0.0063
937.00,0.0058
934.00,0.0054
931.00,0.0050
928.00,0.0048
925.00,0.0049
922.00,0.0052
919.00,0.0057
916.00,0.0067
913.00,0.0085
910.00,0.0108
907.00,0.0122
904.00,0.0117
901.00,0.0095
898.00,0.0071
895.00,0.0057
892.00,0.0050
889.00,0.0046
886.00,0.0044
883.00,0.0043
880.00,0.0042
877.00,0.0041
874.00,0.0040
871.00,0.0039
868.00,0.0037
865.00,0.0037
862.00,0.0038
859.00,0.0038
856.00,0.0039
853.00,0.0042
850.00,0.0049
847.00,0.0059
844.00,0.0067
841.00,0.0069
838.00,0.0064
835.00,0.0052
832.00,0.0043
829.00,0.0039
826.00,0.0036
823.00,0.0036
820.00,0.0036
817.00,0.0037
814.00,0.0038
811.00,0.0038
808.00,0.0038
805.00,0.0039
802.00,0.0040
799.00,0.0043
796.00,0.0048
793.00,0.0054
790.00,0.0064
787.00,0.0075
784.00,0.0089
781.00,0.0105
778.00,0.0131
775.00,0.0168
772.00,0.0216
769.00,0.0274
766.00,0.0333
763.00,0.0391
760.00,0.0453
757.00,0.0503
754.00,0.0519
751.00,0.0516
748.00,0.0512
745.00,0.0470
742.00,0.0377
739.00,0.0281
736.00,0.0206
733.00,0.0141
730.00,0.0099
727.00,0.0079
724.00,0.0071
721.00,0.0070
718.00,0.0072
715.00,0.0084
712.00,0.0119
709.00,0.0213
706.00,0.0409
703.00,0.0721
700.00,0.1110
697.00,0.1490
694.00,0.1615
691.00,0.1238
688.00,0.0811
685.00,0.0570
682.00,0.0439
679.00,0.0354
676.00,0.0301
673.00,0.0266
670.00,0.0245
667.00,0.0219
664.00,0.0194
661.00,0.0172
658.00,0.0154
655.00,0.0138
652.00,0.0124
649.00,0.0112
646.00,0.0103
643.00,0.0098
640.00,0.0098
637.00,0.0101
634.00,0.0109
631.00,0.0115
628.00,0.0120
625.00,0.0124
622.00,0.0128
619.00,0.0128
616.00,0.0119
613.00,0.0110
610.00,0.0105
607.00,0.0103
604.00,0.0103
601.00,0.0106
598.00,0.0108
595.00,0.0111
592.00,0.0115
589.00,0.0121
586.00,0.0127
583.00,0.0136
580.00,0.0149
577.00,0.0167
574.00,0.0188
571.00,0.0211
568.00,0.0231
565.00,0.0254
562.00,0.0278
559.00,0.0301
556.00,0.0323
553.00,0.0348
550.00,0.0381
547.00,0.0427
544.00,0.0484
541.00,0.0539
538.00,0.0571
535.00,0.0548
532.00,0.0478
529.00,0.0391
526.00,0.0321
523.00,0.0267
520.00,0.0235
517.00,0.0214
514.00,0.0194
511.00,0.0179
508.00,0.0165
505.00,0.0150
502.00,0.0139
499.00,0.0129
496.00,0.0119
493.00,0.0114
490.00,0.0112
487.00,0.0109
484.00,0.0106
481.00,0.0105
478.00,0.0101
475.00,0.0102
472.00,0.0098
469.00,0.0096
466.00,0.0093
463.00,0.0097
460.00,0.0098
457.00,0.0092
454.00,0.0087
451.00,0.0089
448.00,0.0090
445.00,0.0086
442.00,0.0088
439.00,0.0092
436.00,0.0091
433.00,0.0081
430.00,0.0072
427.00,0.0073
424.00,0.0073
421.00,0.0085
418.00,0.0096
415.00,0.0095
412.00,0.0086
409.00,0.0091
406.00,0.0085
403.00,0.0098
400.00,0.0078