File: FTIR/Olivia/2025_07_10_Polystyrene_Std_OAG_scan2.csv
Created as New Dataset,Sample 808 By YargerLab Date Thursday, July 10 2025
cm-1,A
4000.00,0.0012
3997.00,0.0013
3994.00,0.0012
3991.00,0.0012
3988.00,0.0012
3985.00,0.0012
3982.00,0.0012
3979.00,0.0012
3976.00,0.0012
3973.00,0.0012
3970.00,0.0012
3967.00,0.0012
3964.00,0.0012
3961.00,0.0012
3958.00,0.0012
3955.00,0.0012
3952.00,0.0012
3949.00,0.0012
3946.00,0.0012
3943.00,0.0012
3940.00,0.0012
3937.00,0.0012
3934.00,0.0012
3931.00,0.0012
3928.00,0.0012
3925.00,0.0012
3922.00,0.0012
3919.00,0.0013
3916.00,0.0012
3913.00,0.0012
3910.00,0.0012
3907.00,0.0012
3904.00,0.0012
3901.00,0.0012
3898.00,0.0012
3895.00,0.0012
3892.00,0.0012
3889.00,0.0012
3886.00,0.0011
3883.00,0.0012
3880.00,0.0012
3877.00,0.0012
3874.00,0.0012
3871.00,0.0012
3868.00,0.0013
3865.00,0.0012
3862.00,0.0012
3859.00,0.0012
3856.00,0.0013
3853.00,0.0012
3850.00,0.0012
3847.00,0.0012
3844.00,0.0012
3841.00,0.0013
3838.00,0.0013
3835.00,0.0013
3832.00,0.0012
3829.00,0.0012
3826.00,0.0012
3823.00,0.0013
3820.00,0.0014
3817.00,0.0013
3814.00,0.0013
3811.00,0.0012
3808.00,0.0013
3805.00,0.0013
3802.00,0.0013
3799.00,0.0013
3796.00,0.0012
3793.00,0.0012
3790.00,0.0012
3787.00,0.0012
3784.00,0.0013
3781.00,0.0013
3778.00,0.0012
3775.00,0.0013
3772.00,0.0014
3769.00,0.0013
3766.00,0.0013
3763.00,0.0013
3760.00,0.0013
3757.00,0.0012
3754.00,0.0014
3751.00,0.0014
3748.00,0.0014
3745.00,0.0013
3742.00,0.0014
3739.00,0.0014
3736.00,0.0014
3733.00,0.0013
3730.00,0.0013
3727.00,0.0013
3724.00,0.0012
3721.00,0.0012
3718.00,0.0012
3715.00,0.0012
3712.00,0.0013
3709.00,0.0013
3706.00,0.0012
3703.00,0.0012
3700.00,0.0012
3697.00,0.0012
3694.00,0.0012
3691.00,0.0012
3688.00,0.0011
3685.00,0.0011
3682.00,0.0011
3679.00,0.0013
3676.00,0.0013
3673.00,0.0013
3670.00,0.0011
3667.00,0.0012
3664.00,0.0012
3661.00,0.0012
3658.00,0.0013
3655.00,0.0013
3652.00,0.0013
3649.00,0.0014
3646.00,0.0014
3643.00,0.0013
3640.00,0.0013
3637.00,0.0013
3634.00,0.0013
3631.00,0.0014
3628.00,0.0014
3625.00,0.0013
3622.00,0.0013
3619.00,0.0014
3616.00,0.0015
3613.00,0.0014
3610.00,0.0014
3607.00,0.0014
3604.00,0.0014
3601.00,0.0014
3598.00,0.0013
3595.00,0.0014
3592.00,0.0015
3589.00,0.0015
3586.00,0.0015
3583.00,0.0015
3580.00,0.0015
3577.00,0.0015
3574.00,0.0015
3571.00,0.0016
3568.00,0.0015
3565.00,0.0016
3562.00,0.0016
3559.00,0.0016
3556.00,0.0017
3553.00,0.0017
3550.00,0.0018
3547.00,0.0018
3544.00,0.0018
3541.00,0.0018
3538.00,0.0018
3535.00,0.0018
3532.00,0.0019
3529.00,0.0020
3526.00,0.0019
3523.00,0.0019
3520.00,0.0019
3517.00,0.0020
3514.00,0.0021
3511.00,0.0020
3508.00,0.0020
3505.00,0.0021
3502.00,0.0021
3499.00,0.0021
3496.00,0.0021
3493.00,0.0022
3490.00,0.0022
3487.00,0.0022
3484.00,0.0022
3481.00,0.0023
3478.00,0.0023
3475.00,0.0023
3472.00,0.0024
3469.00,0.0024
3466.00,0.0024
3463.00,0.0024
3460.00,0.0024
3457.00,0.0024
3454.00,0.0024
3451.00,0.0025
3448.00,0.0025
3445.00,0.0025
3442.00,0.0025
3439.00,0.0025
3436.00,0.0025
3433.00,0.0026
3430.00,0.0025
3427.00,0.0025
3424.00,0.0025
3421.00,0.0025
3418.00,0.0025
3415.00,0.0026
3412.00,0.0025
3409.00,0.0025
3406.00,0.0025
3403.00,0.0026
3400.00,0.0026
3397.00,0.0025
3394.00,0.0025
3391.00,0.0026
3388.00,0.0026
3385.00,0.0025
3382.00,0.0025
3379.00,0.0026
3376.00,0.0026
3373.00,0.0025
3370.00,0.0025
3367.00,0.0025
3364.00,0.0025
3361.00,0.0025
3358.00,0.0025
3355.00,0.0025
3352.00,0.0025
3349.00,0.0025
3346.00,0.0025
3343.00,0.0025
3340.00,0.0025
3337.00,0.0025
3334.00,0.0025
3331.00,0.0025
3328.00,0.0025
3325.00,0.0025
3322.00,0.0024
3319.00,0.0024
3316.00,0.0024
3313.00,0.0024
3310.00,0.0024
3307.00,0.0024
3304.00,0.0024
3301.00,0.0024
3298.00,0.0024
3295.00,0.0024
3292.00,0.0024
3289.00,0.0024
3286.00,0.0023
3283.00,0.0024
3280.00,0.0024
3277.00,0.0023
3274.00,0.0024
3271.00,0.0024
3268.00,0.0023
3265.00,0.0023
3262.00,0.0022
3259.00,0.0022
3256.00,0.0022
3253.00,0.0022
3250.00,0.0022
3247.00,0.0022
3244.00,0.0022
3241.00,0.0022
3238.00,0.0022
3235.00,0.0022
3232.00,0.0021
3229.00,0.0021
3226.00,0.0020
3223.00,0.0021
3220.00,0.0021
3217.00,0.0021
3214.00,0.0021
3211.00,0.0021
3208.00,0.0021
3205.00,0.0021
3202.00,0.0021
3199.00,0.0022
3196.00,0.0021
3193.00,0.0020
3190.00,0.0020
3187.00,0.0019
3184.00,0.0019
3181.00,0.0020
3178.00,0.0020
3175.00,0.0020
3172.00,0.0019
3169.00,0.0019
3166.00,0.0020
3163.00,0.0020
3160.00,0.0020
3157.00,0.0020
3154.00,0.0019
3151.00,0.0018
3148.00,0.0018
3145.00,0.0018
3142.00,0.0018
3139.00,0.0018
3136.00,0.0018
3133.00,0.0018
3130.00,0.0018
3127.00,0.0018
3124.00,0.0019
3121.00,0.0019
3118.00,0.0020
3115.00,0.0022
3112.00,0.0025
3109.00,0.0030
3106.00,0.0035
3103.00,0.0037
3100.00,0.0036
3097.00,0.0035
3094.00,0.0038
3091.00,0.0045
3088.00,0.0059
3085.00,0.0076
3082.00,0.0085
3079.00,0.0078
3076.00,0.0067
3073.00,0.0063
3070.00,0.0067
3067.00,0.0080
3064.00,0.0098
3061.00,0.0112
3058.00,0.0112
3055.00,0.0096
3052.00,0.0079
3049.00,0.0067
3046.00,0.0062
3043.00,0.0063
3040.00,0.0071
3037.00,0.0087
3034.00,0.0114
3031.00,0.0155
3028.00,0.0199
3025.00,0.0219
3022.00,0.0192
3019.00,0.0141
3016.00,0.0104
3013.00,0.0075
3010.00,0.0061
3007.00,0.0060
3004.00,0.0066
3001.00,0.0069
2998.00,0.0062
2995.00,0.0051
2992.00,0.0043
2989.00,0.0039
2986.00,0.0037
2983.00,0.0035
2980.00,0.0036
2977.00,0.0045
2974.00,0.0048
2971.00,0.0042
2968.00,0.0043
2965.00,0.0047
2962.00,0.0052
2959.00,0.0057
2956.00,0.0064
2953.00,0.0072
2950.00,0.0082
2947.00,0.0094
2944.00,0.0109
2941.00,0.0128
2938.00,0.0150
2935.00,0.0176
2932.00,0.0204
2929.00,0.0229
2926.00,0.0248
2923.00,0.0258
2920.00,0.0259
2917.00,0.0251
2914.00,0.0237
2911.00,0.0219
2908.00,0.0200
2905.00,0.0181
2902.00,0.0161
2899.00,0.0142
2896.00,0.0125
2893.00,0.0112
2890.00,0.0103
2887.00,0.0095
2884.00,0.0088
2881.00,0.0082
2878.00,0.0077
2875.00,0.0073
2872.00,0.0069
2869.00,0.0068
2866.00,0.0070
2863.00,0.0075
2860.00,0.0085
2857.00,0.0096
2854.00,0.0107
2851.00,0.0115
2848.00,0.0116
2845.00,0.0108
2842.00,0.0091
2839.00,0.0071
2836.00,0.0054
2833.00,0.0042
2830.00,0.0036
2827.00,0.0033
2824.00,0.0031
2821.00,0.0029
2818.00,0.0028
2815.00,0.0028
2812.00,0.0027
2809.00,0.0027
2806.00,0.0027
2803.00,0.0026
2800.00,0.0025
2797.00,0.0024
2794.00,0.0024
2791.00,0.0023
2788.00,0.0023
2785.00,0.0023
2782.00,0.0022
2779.00,0.0022
2776.00,0.0022
2773.00,0.0021
2770.00,0.0020
2767.00,0.0020
2764.00,0.0020
2761.00,0.0021
2758.00,0.0020
2755.00,0.0019
2752.00,0.0020
2749.00,0.0020
2746.00,0.0019
2743.00,0.0019
2740.00,0.0019
2737.00,0.0020
2734.00,0.0020
2731.00,0.0020
2728.00,0.0020
2725.00,0.0020
2722.00,0.0020
2719.00,0.0020
2716.00,0.0020
2713.00,0.0020
2710.00,0.0020
2707.00,0.0020
2704.00,0.0020
2701.00,0.0019
2698.00,0.0019
2695.00,0.0020
2692.00,0.0020
2689.00,0.0020
2686.00,0.0020
2683.00,0.0019
2680.00,0.0019
2677.00,0.0019
2674.00,0.0020
2671.00,0.0020
2668.00,0.0020
2665.00,0.0021
2662.00,0.0022
2659.00,0.0023
2656.00,0.0024
2653.00,0.0024
2650.00,0.0024
2647.00,0.0024
2644.00,0.0024
2641.00,0.0024
2638.00,0.0024
2635.00,0.0024
2632.00,0.0025
2629.00,0.0024
2626.00,0.0024
2623.00,0.0023
2620.00,0.0022
2617.00,0.0022
2614.00,0.0021
2611.00,0.0022
2608.00,0.0022
2605.00,0.0022
2602.00,0.0021
2599.00,0.0021
2596.00,0.0020
2593.00,0.0020
2590.00,0.0019
2587.00,0.0019
2584.00,0.0020
2581.00,0.0020
2578.00,0.0019
2575.00,0.0018
2572.00,0.0018
2569.00,0.0017
2566.00,0.0017
2563.00,0.0017
2560.00,0.0017
2557.00,0.0017
2554.00,0.0017
2551.00,0.0016
2548.00,0.0016
2545.00,0.0017
2542.00,0.0017
2539.00,0.0016
2536.00,0.0016
2533.00,0.0016
2530.00,0.0016
2527.00,0.0016
2524.00,0.0016
2521.00,0.0015
2518.00,0.0015
2515.00,0.0016
2512.00,0.0016
2509.00,0.0015
2506.00,0.0015
2503.00,0.0015
2500.00,0.0015
2497.00,0.0015
2494.00,0.0015
2491.00,0.0015
2488.00,0.0014
2485.00,0.0014
2482.00,0.0014
2479.00,0.0014
2476.00,0.0014
2473.00,0.0014
2470.00,0.0013
2467.00,0.0014
2464.00,0.0014
2461.00,0.0013
2458.00,0.0015
2455.00,0.0015
2452.00,0.0015
2449.00,0.0015
2446.00,0.0014
2443.00,0.0014
2440.00,0.0013
2437.00,0.0013
2434.00,0.0013
2431.00,0.0013
2428.00,0.0012
2425.00,0.0011
2422.00,0.0011
2419.00,0.0011
2416.00,0.0011
2413.00,0.0011
2410.00,0.0011
2407.00,0.0010
2404.00,0.0010
2401.00,0.0010
2398.00,0.0010
2395.00,0.0009
2392.00,0.0009
2389.00,0.0009
2386.00,0.0009
2383.00,0.0009
2380.00,0.0009
2377.00,0.0010
2374.00,0.0010
2371.00,0.0009
2368.00,0.0007
2365.00,0.0009
2362.00,0.0011
2359.00,0.0011
2356.00,0.0011
2353.00,0.0011
2350.00,0.0010
2347.00,0.0015
2344.00,0.0017
2341.00,0.0015
2338.00,0.0016
2335.00,0.0017
2332.00,0.0015
2329.00,0.0016
2326.00,0.0026
2323.00,0.0024
2320.00,0.0021
2317.00,0.0019
2314.00,0.0019
2311.00,0.0019
2308.00,0.0018
2305.00,0.0018
2302.00,0.0018
2299.00,0.0018
2296.00,0.0021
2293.00,0.0023
2290.00,0.0024
2287.00,0.0025
2284.00,0.0023
2281.00,0.0021
2278.00,0.0020
2275.00,0.0019
2272.00,0.0019
2269.00,0.0019
2266.00,0.0017
2263.00,0.0017
2260.00,0.0019
2257.00,0.0016
2254.00,0.0014
2251.00,0.0015
2248.00,0.0014
2245.00,0.0015
2242.00,0.0013
2239.00,0.0015
2236.00,0.0015
2233.00,0.0015
2230.00,0.0014
2227.00,0.0013
2224.00,0.0014
2221.00,0.0014
2218.00,0.0013
2215.00,0.0011
2212.00,0.0013
2209.00,0.0015
2206.00,0.0014
2203.00,0.0012
2200.00,0.0016
2197.00,0.0016
2194.00,0.0016
2191.00,0.0016
2188.00,0.0015
2185.00,0.0015
2182.00,0.0008
2179.00,0.0010
2176.00,0.0006
2173.00,0.0008
2170.00,0.0018
2167.00,0.0023
2164.00,0.0028
2161.00,0.0013
2158.00,-0.0018
2155.00,-0.0017
2152.00,-0.0007
2149.00,-0.0007
2146.00,-0.0007
2143.00,-0.0005
2140.00,-0.0003
2137.00,-0.0006
2134.00,-0.0013
2131.00,-0.0009
2128.00,-0.0003
2125.00,0.0001
2122.00,0.0002
2119.00,0.0004
2116.00,0.0009
2113.00,0.0009
2110.00,0.0010
2107.00,0.0010
2104.00,0.0009
2101.00,0.0010
2098.00,0.0008
2095.00,0.0006
2092.00,0.0006
2089.00,0.0007
2086.00,0.0009
2083.00,0.0011
2080.00,0.0011
2077.00,0.0011
2074.00,0.0009
2071.00,0.0008
2068.00,0.0009
2065.00,0.0008
2062.00,0.0007
2059.00,0.0008
2056.00,0.0010
2053.00,0.0017
2050.00,0.0018
2047.00,0.0009
2044.00,0.0008
2041.00,0.0009
2038.00,0.0010
2035.00,0.0011
2032.00,0.0004
2029.00,0.0002
2026.00,0.0003
2023.00,0.0002
2020.00,-0.0000
2017.00,-0.0001
2014.00,0.0004
2011.00,0.0003
2008.00,-0.0004
2005.00,-0.0005
2002.00,0.0001
1999.00,0.0008
1996.00,0.0009
1993.00,0.0011
1990.00,0.0010
1987.00,0.0012
1984.00,0.0018
1981.00,0.0025
1978.00,0.0011
1975.00,0.0001
1972.00,0.0004
1969.00,0.0008
1966.00,0.0011
1963.00,0.0013
1960.00,0.0012
1957.00,0.0016
1954.00,0.0020
1951.00,0.0025
1948.00,0.0028
1945.00,0.0031
1942.00,0.0031
1939.00,0.0028
1936.00,0.0024
1933.00,0.0016
1930.00,0.0013
1927.00,0.0012
1924.00,0.0010
1921.00,0.0009
1918.00,0.0008
1915.00,0.0007
1912.00,0.0007
1909.00,0.0007
1906.00,0.0008
1903.00,0.0010
1900.00,0.0010
1897.00,0.0012
1894.00,0.0016
1891.00,0.0019
1888.00,0.0021
1885.00,0.0024
1882.00,0.0025
1879.00,0.0027
1876.00,0.0029
1873.00,0.0030
1870.00,0.0031
1867.00,0.0031
1864.00,0.0028
1861.00,0.0023
1858.00,0.0019
1855.00,0.0016
1852.00,0.0013
1849.00,0.0011
1846.00,0.0011
1843.00,0.0011
1840.00,0.0011
1837.00,0.0012
1834.00,0.0012
1831.00,0.0013
1828.00,0.0015
1825.00,0.0017
1822.00,0.0020
1819.00,0.0020
1816.00,0.0022
1813.00,0.0027
1810.00,0.0030
1807.00,0.0034
1804.00,0.0037
1801.00,0.0036
1798.00,0.0034
1795.00,0.0031
1792.00,0.0026
1789.00,0.0022
1786.00,0.0020
1783.00,0.0019
1780.00,0.0019
1777.00,0.0019
1774.00,0.0019
1771.00,0.0020
1768.00,0.0020
1765.00,0.0021
1762.00,0.0023
1759.00,0.0026
1756.00,0.0029
1753.00,0.0032
1750.00,0.0035
1747.00,0.0038
1744.00,0.0041
1741.00,0.0041
1738.00,0.0041
1735.00,0.0041
1732.00,0.0038
1729.00,0.0036
1726.00,0.0034
1723.00,0.0033
1720.00,0.0032
1717.00,0.0030
1714.00,0.0029
1711.00,0.0029
1708.00,0.0029
1705.00,0.0029
1702.00,0.0028
1699.00,0.0027
1696.00,0.0027
1693.00,0.0027
1690.00,0.0027
1687.00,0.0028
1684.00,0.0030
1681.00,0.0031
1678.00,0.0032
1675.00,0.0033
1672.00,0.0033
1669.00,0.0034
1666.00,0.0034
1663.00,0.0033
1660.00,0.0032
1657.00,0.0031
1654.00,0.0031
1651.00,0.0030
1648.00,0.0029
1645.00,0.0028
1642.00,0.0028
1639.00,0.0029
1636.00,0.0028
1633.00,0.0029
1630.00,0.0030
1627.00,0.0031
1624.00,0.0032
1621.00,0.0033
1618.00,0.0035
1615.00,0.0040
1612.00,0.0050
1609.00,0.0075
1606.00,0.0131
1603.00,0.0204
1600.00,0.0219
1597.00,0.0158
1594.00,0.0103
1591.00,0.0076
1588.00,0.0070
1585.00,0.0090
1582.00,0.0095
1579.00,0.0066
1576.00,0.0044
1573.00,0.0037
1570.00,0.0032
1567.00,0.0028
1564.00,0.0027
1561.00,0.0027
1558.00,0.0028
1555.00,0.0029
1552.00,0.0032
1549.00,0.0035
1546.00,0.0038
1543.00,0.0039
1540.00,0.0038
1537.00,0.0037
1534.00,0.0033
1531.00,0.0030
1528.00,0.0028
1525.00,0.0026
1522.00,0.0026
1519.00,0.0027
1516.00,0.0028
1513.00,0.0031
1510.00,0.0033
1507.00,0.0037
1504.00,0.0052
1501.00,0.0078
1498.00,0.0168
1495.00,0.0427
1492.00,0.0558
1489.00,0.0336
1486.00,0.0175
1483.00,0.0110
1480.00,0.0078
1477.00,0.0065
1474.00,0.0060
1471.00,0.0059
1468.00,0.0063
1465.00,0.0070
1462.00,0.0085
1459.00,0.0125
1456.00,0.0324
1453.00,0.0539
1450.00,0.0537
1447.00,0.0407
1444.00,0.0321
1441.00,0.0251
1438.00,0.0200
1435.00,0.0144
1432.00,0.0114
1429.00,0.0091
1426.00,0.0080
1423.00,0.0073
1420.00,0.0069
1417.00,0.0065
1414.00,0.0068
1411.00,0.0067
1408.00,0.0063
1405.00,0.0063
1402.00,0.0064
1399.00,0.0064
1396.00,0.0065
1393.00,0.0070
1390.00,0.0077
1387.00,0.0087
1384.00,0.0100
1381.00,0.0111
1378.00,0.0122
1375.00,0.0132
1372.00,0.0137
1369.00,0.0136
1366.00,0.0133
1363.00,0.0129
1360.00,0.0124
1357.00,0.0119
1354.00,0.0115
1351.00,0.0114
1348.00,0.0112
1345.00,0.0107
1342.00,0.0102
1339.00,0.0097
1336.00,0.0098
1333.00,0.0105
1330.00,0.0112
1327.00,0.0112
1324.00,0.0107
1321.00,0.0104
1318.00,0.0104
1315.00,0.0107
1312.00,0.0109
1309.00,0.0106
1306.00,0.0101
1303.00,0.0096
1300.00,0.0090
1297.00,0.0087
1294.00,0.0085
1291.00,0.0083
1288.00,0.0080
1285.00,0.0079
1282.00,0.0079
1279.00,0.0077
1276.00,0.0073
1273.00,0.0069
1270.00,0.0065
1267.00,0.0063
1264.00,0.0061
1261.00,0.0060
1258.00,0.0059
1255.00,0.0060
1252.00,0.0061
1249.00,0.0062
1246.00,0.0063
1243.00,0.0062
1240.00,0.0062
1237.00,0.0061
1234.00,0.0060
1231.00,0.0060
1228.00,0.0061
1225.00,0.0061
1222.00,0.0061
1219.00,0.0061
1216.00,0.0062
1213.00,0.0064
1210.00,0.0068
1207.00,0.0073
1204.00,0.0079
1201.00,0.0086
1198.00,0.0092
1195.00,0.0093
1192.00,0.0095
1189.00,0.0098
1186.00,0.0108
1183.00,0.0126
1180.00,0.0128
1177.00,0.0107
1174.00,0.0089
1171.00,0.0085
1168.00,0.0082
1165.00,0.0085
1162.00,0.0092
1159.00,0.0111
1156.00,0.0138
1153.00,0.0141
1150.00,0.0120
1147.00,0.0117
1144.00,0.0137
1141.00,0.0162
1138.00,0.0163
1135.00,0.0148
1132.00,0.0133
1129.00,0.0120
1126.00,0.0107
1123.00,0.0094
1120.00,0.0087
1117.00,0.0087
1114.00,0.0088
1111.00,0.0087
1108.00,0.0084
1105.00,0.0082
1102.00,0.0084
1099.00,0.0085
1096.00,0.0089
1093.00,0.0092
1090.00,0.0096
1087.00,0.0102
1084.00,0.0111
1081.00,0.0124
1078.00,0.0136
1075.00,0.0154
1072.00,0.0177
1069.00,0.0189
1066.00,0.0180
1063.00,0.0161
1060.00,0.0143
1057.00,0.0130
1054.00,0.0122
1051.00,0.0115
1048.00,0.0108
1045.00,0.0104
1042.00,0.0103
1039.00,0.0113
1036.00,0.0147
1033.00,0.0223
1030.00,0.0302
1027.00,0.0318
1024.00,0.0263
1021.00,0.0209
1018.00,0.0176
1015.00,0.0154
1012.00,0.0141
1009.00,0.0134
1006.00,0.0139
1003.00,0.0146
1000.00,0.0129
997.00,0.0111
994.00,0.0106
991.00,0.0107
988.00,0.0112
985.00,0.0121
982.00,0.0129
979.00,0.0131
976.00,0.0125
973.00,0.0119
970.00,0.0125
967.00,0.0139
964.00,0.0146
961.00,0.0138
958.00,0.0122
955.00,0.0113
952.00,0.0111
949.00,0.0113
946.00,0.0118
943.00,0.0121
940.00,0.0116
937.00,0.0107
934.00,0.0096
931.00,0.0089
928.00,0.0085
925.00,0.0086
922.00,0.0089
919.00,0.0097
916.00,0.0114
913.00,0.0148
910.00,0.0189
907.00,0.0217
904.00,0.0205
901.00,0.0162
898.00,0.0120
895.00,0.0094
892.00,0.0082
889.00,0.0074
886.00,0.0068
883.00,0.0063
880.00,0.0061
877.00,0.0059
874.00,0.0058
871.00,0.0058
868.00,0.0057
865.00,0.0055
862.00,0.0053
859.00,0.0054
856.00,0.0056
853.00,0.0062
850.00,0.0074
847.00,0.0092
844.00,0.0108
841.00,0.0112
838.00,0.0102
835.00,0.0080
832.00,0.0063
829.00,0.0055
826.00,0.0054
823.00,0.0053
820.00,0.0053
817.00,0.0054
814.00,0.0055
811.00,0.0056
808.00,0.0057
805.00,0.0058
802.00,0.0062
799.00,0.0067
796.00,0.0076
793.00,0.0089
790.00,0.0105
787.00,0.0126
784.00,0.0150
781.00,0.0181
778.00,0.0230
775.00,0.0298
772.00,0.0387
769.00,0.0495
766.00,0.0605
763.00,0.0714
760.00,0.0827
757.00,0.0915
754.00,0.0938
751.00,0.0928
748.00,0.0917
745.00,0.0837
742.00,0.0662
739.00,0.0488
736.00,0.0351
733.00,0.0235
730.00,0.0160
727.00,0.0128
724.00,0.0116
721.00,0.0113
718.00,0.0120
715.00,0.0144
712.00,0.0210
709.00,0.0380
706.00,0.0730
703.00,0.1294
700.00,0.2035
697.00,0.2793
694.00,0.2954
691.00,0.2109
688.00,0.1319
685.00,0.0911
682.00,0.0695
679.00,0.0563
676.00,0.0480
673.00,0.0427
670.00,0.0387
667.00,0.0341
664.00,0.0309
661.00,0.0274
658.00,0.0240
655.00,0.0211
652.00,0.0189
649.00,0.0173
646.00,0.0161
643.00,0.0154
640.00,0.0153
637.00,0.0161
634.00,0.0172
631.00,0.0183
628.00,0.0193
625.00,0.0199
622.00,0.0211
619.00,0.0209
616.00,0.0191
613.00,0.0181
610.00,0.0169
607.00,0.0165
604.00,0.0166
601.00,0.0168
598.00,0.0174
595.00,0.0181
592.00,0.0186
589.00,0.0196
586.00,0.0205
583.00,0.0221
580.00,0.0242
577.00,0.0273
574.00,0.0312
571.00,0.0353
568.00,0.0388
565.00,0.0422
562.00,0.0462
559.00,0.0500
556.00,0.0539
553.00,0.0584
550.00,0.0639
547.00,0.0713
544.00,0.0805
541.00,0.0901
538.00,0.0948
535.00,0.0895
532.00,0.0767
529.00,0.0627
526.00,0.0508
523.00,0.0422
520.00,0.0365
517.00,0.0326
514.00,0.0301
511.00,0.0273
508.00,0.0248
505.00,0.0226
502.00,0.0207
499.00,0.0193
496.00,0.0186
493.00,0.0175
490.00,0.0170
487.00,0.0163
484.00,0.0157
481.00,0.0151
478.00,0.0147
475.00,0.0143
472.00,0.0136
469.00,0.0135
466.00,0.0132
463.00,0.0132
460.00,0.0128
457.00,0.0134
454.00,0.0130
451.00,0.0126
448.00,0.0119
445.00,0.0116
442.00,0.0113
439.00,0.0116
436.00,0.0111
433.00,0.0111
430.00,0.0108
427.00,0.0108
424.00,0.0104
421.00,0.0115
418.00,0.0106
415.00,0.0104
412.00,0.0104
409.00,0.0122
406.00,0.0112
403.00,0.0125
400.00,0.0111