File: FTIR/Olivia/2025_08_04_1CBN_3PVP29kDa_MortPest_powder_scan1.csv
Created as New Dataset,Sample 1039 By YargerLab Date Monday, August 04 2025
cm-1,A
4000.00,0.0067
3997.00,0.0067
3994.00,0.0068
3991.00,0.0068
3988.00,0.0068
3985.00,0.0067
3982.00,0.0067
3979.00,0.0067
3976.00,0.0068
3973.00,0.0068
3970.00,0.0068
3967.00,0.0068
3964.00,0.0067
3961.00,0.0067
3958.00,0.0067
3955.00,0.0067
3952.00,0.0067
3949.00,0.0067
3946.00,0.0067
3943.00,0.0067
3940.00,0.0067
3937.00,0.0066
3934.00,0.0067
3931.00,0.0067
3928.00,0.0067
3925.00,0.0067
3922.00,0.0067
3919.00,0.0067
3916.00,0.0067
3913.00,0.0067
3910.00,0.0067
3907.00,0.0067
3904.00,0.0067
3901.00,0.0067
3898.00,0.0068
3895.00,0.0067
3892.00,0.0067
3889.00,0.0067
3886.00,0.0067
3883.00,0.0067
3880.00,0.0067
3877.00,0.0067
3874.00,0.0067
3871.00,0.0066
3868.00,0.0067
3865.00,0.0067
3862.00,0.0067
3859.00,0.0067
3856.00,0.0067
3853.00,0.0067
3850.00,0.0067
3847.00,0.0067
3844.00,0.0067
3841.00,0.0067
3838.00,0.0068
3835.00,0.0067
3832.00,0.0067
3829.00,0.0067
3826.00,0.0067
3823.00,0.0067
3820.00,0.0067
3817.00,0.0067
3814.00,0.0066
3811.00,0.0067
3808.00,0.0067
3805.00,0.0067
3802.00,0.0067
3799.00,0.0067
3796.00,0.0067
3793.00,0.0066
3790.00,0.0066
3787.00,0.0066
3784.00,0.0066
3781.00,0.0067
3778.00,0.0067
3775.00,0.0067
3772.00,0.0067
3769.00,0.0067
3766.00,0.0067
3763.00,0.0067
3760.00,0.0067
3757.00,0.0067
3754.00,0.0067
3751.00,0.0068
3748.00,0.0067
3745.00,0.0067
3742.00,0.0067
3739.00,0.0068
3736.00,0.0067
3733.00,0.0067
3730.00,0.0067
3727.00,0.0066
3724.00,0.0066
3721.00,0.0066
3718.00,0.0066
3715.00,0.0066
3712.00,0.0066
3709.00,0.0066
3706.00,0.0066
3703.00,0.0066
3700.00,0.0066
3697.00,0.0066
3694.00,0.0066
3691.00,0.0067
3688.00,0.0068
3685.00,0.0069
3682.00,0.0070
3679.00,0.0071
3676.00,0.0072
3673.00,0.0072
3670.00,0.0073
3667.00,0.0074
3664.00,0.0075
3661.00,0.0076
3658.00,0.0077
3655.00,0.0079
3652.00,0.0081
3649.00,0.0082
3646.00,0.0083
3643.00,0.0085
3640.00,0.0087
3637.00,0.0088
3634.00,0.0090
3631.00,0.0093
3628.00,0.0096
3625.00,0.0098
3622.00,0.0101
3619.00,0.0103
3616.00,0.0107
3613.00,0.0110
3610.00,0.0113
3607.00,0.0115
3604.00,0.0119
3601.00,0.0122
3598.00,0.0126
3595.00,0.0130
3592.00,0.0134
3589.00,0.0138
3586.00,0.0142
3583.00,0.0146
3580.00,0.0151
3577.00,0.0155
3574.00,0.0159
3571.00,0.0165
3568.00,0.0170
3565.00,0.0174
3562.00,0.0179
3559.00,0.0183
3556.00,0.0189
3553.00,0.0194
3550.00,0.0198
3547.00,0.0203
3544.00,0.0207
3541.00,0.0212
3538.00,0.0216
3535.00,0.0220
3532.00,0.0224
3529.00,0.0228
3526.00,0.0232
3523.00,0.0235
3520.00,0.0239
3517.00,0.0242
3514.00,0.0245
3511.00,0.0248
3508.00,0.0250
3505.00,0.0254
3502.00,0.0256
3499.00,0.0259
3496.00,0.0262
3493.00,0.0265
3490.00,0.0268
3487.00,0.0270
3484.00,0.0274
3481.00,0.0278
3478.00,0.0281
3475.00,0.0284
3472.00,0.0287
3469.00,0.0291
3466.00,0.0294
3463.00,0.0297
3460.00,0.0301
3457.00,0.0304
3454.00,0.0308
3451.00,0.0311
3448.00,0.0314
3445.00,0.0318
3442.00,0.0321
3439.00,0.0326
3436.00,0.0330
3433.00,0.0334
3430.00,0.0338
3427.00,0.0342
3424.00,0.0348
3421.00,0.0352
3418.00,0.0356
3415.00,0.0361
3412.00,0.0364
3409.00,0.0367
3406.00,0.0369
3403.00,0.0371
3400.00,0.0370
3397.00,0.0370
3394.00,0.0368
3391.00,0.0365
3388.00,0.0362
3385.00,0.0358
3382.00,0.0354
3379.00,0.0350
3376.00,0.0346
3373.00,0.0341
3370.00,0.0335
3367.00,0.0332
3364.00,0.0328
3361.00,0.0325
3358.00,0.0322
3355.00,0.0319
3352.00,0.0314
3349.00,0.0312
3346.00,0.0310
3343.00,0.0307
3340.00,0.0304
3337.00,0.0303
3334.00,0.0303
3331.00,0.0301
3328.00,0.0299
3325.00,0.0298
3322.00,0.0299
3319.00,0.0299
3316.00,0.0298
3313.00,0.0298
3310.00,0.0296
3307.00,0.0294
3304.00,0.0296
3301.00,0.0301
3298.00,0.0300
3295.00,0.0299
3292.00,0.0300
3289.00,0.0303
3286.00,0.0305
3283.00,0.0306
3280.00,0.0305
3277.00,0.0305
3274.00,0.0304
3271.00,0.0303
3268.00,0.0305
3265.00,0.0307
3262.00,0.0307
3259.00,0.0306
3256.00,0.0305
3253.00,0.0306
3250.00,0.0305
3247.00,0.0304
3244.00,0.0304
3241.00,0.0303
3238.00,0.0301
3235.00,0.0297
3232.00,0.0296
3229.00,0.0295
3226.00,0.0292
3223.00,0.0289
3220.00,0.0286
3217.00,0.0283
3214.00,0.0279
3211.00,0.0275
3208.00,0.0270
3205.00,0.0266
3202.00,0.0261
3199.00,0.0257
3196.00,0.0252
3193.00,0.0247
3190.00,0.0243
3187.00,0.0238
3184.00,0.0233
3181.00,0.0229
3178.00,0.0225
3175.00,0.0220
3172.00,0.0216
3169.00,0.0211
3166.00,0.0207
3163.00,0.0202
3160.00,0.0198
3157.00,0.0194
3154.00,0.0189
3151.00,0.0185
3148.00,0.0182
3145.00,0.0179
3142.00,0.0175
3139.00,0.0172
3136.00,0.0169
3133.00,0.0166
3130.00,0.0163
3127.00,0.0161
3124.00,0.0159
3121.00,0.0157
3118.00,0.0154
3115.00,0.0151
3112.00,0.0149
3109.00,0.0146
3106.00,0.0144
3103.00,0.0142
3100.00,0.0141
3097.00,0.0139
3094.00,0.0138
3091.00,0.0137
3088.00,0.0137
3085.00,0.0137
3082.00,0.0135
3079.00,0.0134
3076.00,0.0133
3073.00,0.0132
3070.00,0.0130
3067.00,0.0129
3064.00,0.0129
3061.00,0.0129
3058.00,0.0128
3055.00,0.0128
3052.00,0.0128
3049.00,0.0127
3046.00,0.0127
3043.00,0.0126
3040.00,0.0127
3037.00,0.0129
3034.00,0.0130
3031.00,0.0130
3028.00,0.0129
3025.00,0.0128
3022.00,0.0126
3019.00,0.0126
3016.00,0.0126
3013.00,0.0129
3010.00,0.0133
3007.00,0.0140
3004.00,0.0149
3001.00,0.0160
2998.00,0.0174
2995.00,0.0191
2992.00,0.0205
2989.00,0.0219
2986.00,0.0233
2983.00,0.0251
2980.00,0.0273
2977.00,0.0286
2974.00,0.0299
2971.00,0.0324
2968.00,0.0342
2965.00,0.0357
2962.00,0.0373
2959.00,0.0381
2956.00,0.0372
2953.00,0.0356
2950.00,0.0344
2947.00,0.0340
2944.00,0.0345
2941.00,0.0356
2938.00,0.0377
2935.00,0.0410
2932.00,0.0451
2929.00,0.0486
2926.00,0.0496
2923.00,0.0480
2920.00,0.0452
2917.00,0.0418
2914.00,0.0386
2911.00,0.0360
2908.00,0.0339
2905.00,0.0323
2902.00,0.0311
2899.00,0.0301
2896.00,0.0294
2893.00,0.0289
2890.00,0.0284
2887.00,0.0280
2884.00,0.0276
2881.00,0.0277
2878.00,0.0283
2875.00,0.0293
2872.00,0.0299
2869.00,0.0295
2866.00,0.0294
2863.00,0.0306
2860.00,0.0332
2857.00,0.0351
2854.00,0.0347
2851.00,0.0325
2848.00,0.0286
2845.00,0.0247
2842.00,0.0217
2839.00,0.0195
2836.00,0.0182
2833.00,0.0172
2830.00,0.0163
2827.00,0.0155
2824.00,0.0148
2821.00,0.0142
2818.00,0.0137
2815.00,0.0133
2812.00,0.0130
2809.00,0.0127
2806.00,0.0125
2803.00,0.0124
2800.00,0.0122
2797.00,0.0120
2794.00,0.0118
2791.00,0.0117
2788.00,0.0115
2785.00,0.0114
2782.00,0.0113
2779.00,0.0112
2776.00,0.0111
2773.00,0.0110
2770.00,0.0109
2767.00,0.0108
2764.00,0.0108
2761.00,0.0107
2758.00,0.0108
2755.00,0.0108
2752.00,0.0107
2749.00,0.0107
2746.00,0.0108
2743.00,0.0108
2740.00,0.0108
2737.00,0.0109
2734.00,0.0110
2731.00,0.0111
2728.00,0.0111
2725.00,0.0110
2722.00,0.0109
2719.00,0.0108
2716.00,0.0107
2713.00,0.0106
2710.00,0.0106
2707.00,0.0106
2704.00,0.0105
2701.00,0.0105
2698.00,0.0104
2695.00,0.0103
2692.00,0.0103
2689.00,0.0102
2686.00,0.0101
2683.00,0.0101
2680.00,0.0101
2677.00,0.0101
2674.00,0.0101
2671.00,0.0101
2668.00,0.0102
2665.00,0.0104
2662.00,0.0106
2659.00,0.0106
2656.00,0.0107
2653.00,0.0107
2650.00,0.0106
2647.00,0.0107
2644.00,0.0106
2641.00,0.0106
2638.00,0.0105
2635.00,0.0104
2632.00,0.0103
2629.00,0.0102
2626.00,0.0101
2623.00,0.0101
2620.00,0.0101
2617.00,0.0100
2614.00,0.0100
2611.00,0.0100
2608.00,0.0099
2605.00,0.0099
2602.00,0.0100
2599.00,0.0100
2596.00,0.0100
2593.00,0.0100
2590.00,0.0100
2587.00,0.0101
2584.00,0.0101
2581.00,0.0101
2578.00,0.0100
2575.00,0.0099
2572.00,0.0099
2569.00,0.0099
2566.00,0.0099
2563.00,0.0098
2560.00,0.0097
2557.00,0.0097
2554.00,0.0096
2551.00,0.0096
2548.00,0.0095
2545.00,0.0095
2542.00,0.0095
2539.00,0.0094
2536.00,0.0094
2533.00,0.0094
2530.00,0.0094
2527.00,0.0093
2524.00,0.0093
2521.00,0.0092
2518.00,0.0092
2515.00,0.0091
2512.00,0.0091
2509.00,0.0091
2506.00,0.0091
2503.00,0.0091
2500.00,0.0091
2497.00,0.0090
2494.00,0.0090
2491.00,0.0090
2488.00,0.0089
2485.00,0.0088
2482.00,0.0088
2479.00,0.0088
2476.00,0.0089
2473.00,0.0088
2470.00,0.0088
2467.00,0.0088
2464.00,0.0089
2461.00,0.0089
2458.00,0.0090
2455.00,0.0089
2452.00,0.0089
2449.00,0.0089
2446.00,0.0088
2443.00,0.0088
2440.00,0.0088
2437.00,0.0087
2434.00,0.0086
2431.00,0.0088
2428.00,0.0088
2425.00,0.0087
2422.00,0.0086
2419.00,0.0086
2416.00,0.0086
2413.00,0.0087
2410.00,0.0087
2407.00,0.0086
2404.00,0.0086
2401.00,0.0087
2398.00,0.0087
2395.00,0.0086
2392.00,0.0086
2389.00,0.0085
2386.00,0.0084
2383.00,0.0082
2380.00,0.0081
2377.00,0.0082
2374.00,0.0083
2371.00,0.0082
2368.00,0.0082
2365.00,0.0082
2362.00,0.0083
2359.00,0.0085
2356.00,0.0085
2353.00,0.0084
2350.00,0.0085
2347.00,0.0087
2344.00,0.0087
2341.00,0.0088
2338.00,0.0089
2335.00,0.0090
2332.00,0.0089
2329.00,0.0091
2326.00,0.0101
2323.00,0.0099
2320.00,0.0095
2317.00,0.0094
2314.00,0.0092
2311.00,0.0091
2308.00,0.0091
2305.00,0.0091
2302.00,0.0092
2299.00,0.0092
2296.00,0.0094
2293.00,0.0096
2290.00,0.0098
2287.00,0.0099
2284.00,0.0098
2281.00,0.0096
2278.00,0.0095
2275.00,0.0095
2272.00,0.0094
2269.00,0.0092
2266.00,0.0090
2263.00,0.0089
2260.00,0.0090
2257.00,0.0088
2254.00,0.0087
2251.00,0.0087
2248.00,0.0089
2245.00,0.0089
2242.00,0.0089
2239.00,0.0089
2236.00,0.0088
2233.00,0.0092
2230.00,0.0091
2227.00,0.0089
2224.00,0.0090
2221.00,0.0089
2218.00,0.0088
2215.00,0.0089
2212.00,0.0089
2209.00,0.0091
2206.00,0.0088
2203.00,0.0088
2200.00,0.0090
2197.00,0.0089
2194.00,0.0091
2191.00,0.0092
2188.00,0.0093
2185.00,0.0093
2182.00,0.0083
2179.00,0.0088
2176.00,0.0085
2173.00,0.0090
2170.00,0.0096
2167.00,0.0098
2164.00,0.0105
2161.00,0.0085
2158.00,0.0050
2155.00,0.0062
2152.00,0.0072
2149.00,0.0074
2146.00,0.0072
2143.00,0.0072
2140.00,0.0073
2137.00,0.0071
2134.00,0.0067
2131.00,0.0071
2128.00,0.0075
2125.00,0.0080
2122.00,0.0083
2119.00,0.0087
2116.00,0.0089
2113.00,0.0088
2110.00,0.0087
2107.00,0.0086
2104.00,0.0086
2101.00,0.0087
2098.00,0.0084
2095.00,0.0079
2092.00,0.0083
2089.00,0.0085
2086.00,0.0086
2083.00,0.0087
2080.00,0.0089
2077.00,0.0088
2074.00,0.0086
2071.00,0.0085
2068.00,0.0084
2065.00,0.0083
2062.00,0.0082
2059.00,0.0083
2056.00,0.0081
2053.00,0.0087
2050.00,0.0088
2047.00,0.0081
2044.00,0.0081
2041.00,0.0081
2038.00,0.0085
2035.00,0.0080
2032.00,0.0074
2029.00,0.0072
2026.00,0.0070
2023.00,0.0075
2020.00,0.0076
2017.00,0.0070
2014.00,0.0069
2011.00,0.0069
2008.00,0.0066
2005.00,0.0059
2002.00,0.0067
1999.00,0.0073
1996.00,0.0073
1993.00,0.0077
1990.00,0.0076
1987.00,0.0076
1984.00,0.0081
1981.00,0.0085
1978.00,0.0069
1975.00,0.0062
1972.00,0.0065
1969.00,0.0065
1966.00,0.0068
1963.00,0.0066
1960.00,0.0062
1957.00,0.0062
1954.00,0.0066
1951.00,0.0068
1948.00,0.0069
1945.00,0.0068
1942.00,0.0070
1939.00,0.0070
1936.00,0.0071
1933.00,0.0070
1930.00,0.0070
1927.00,0.0070
1924.00,0.0072
1921.00,0.0073
1918.00,0.0073
1915.00,0.0074
1912.00,0.0076
1909.00,0.0080
1906.00,0.0078
1903.00,0.0076
1900.00,0.0076
1897.00,0.0076
1894.00,0.0076
1891.00,0.0076
1888.00,0.0075
1885.00,0.0074
1882.00,0.0074
1879.00,0.0075
1876.00,0.0074
1873.00,0.0074
1870.00,0.0075
1867.00,0.0075
1864.00,0.0075
1861.00,0.0076
1858.00,0.0076
1855.00,0.0076
1852.00,0.0077
1849.00,0.0077
1846.00,0.0078
1843.00,0.0077
1840.00,0.0077
1837.00,0.0076
1834.00,0.0075
1831.00,0.0075
1828.00,0.0076
1825.00,0.0077
1822.00,0.0076
1819.00,0.0074
1816.00,0.0073
1813.00,0.0074
1810.00,0.0075
1807.00,0.0076
1804.00,0.0076
1801.00,0.0077
1798.00,0.0078
1795.00,0.0078
1792.00,0.0078
1789.00,0.0078
1786.00,0.0079
1783.00,0.0079
1780.00,0.0080
1777.00,0.0081
1774.00,0.0081
1771.00,0.0083
1768.00,0.0084
1765.00,0.0083
1762.00,0.0085
1759.00,0.0087
1756.00,0.0087
1753.00,0.0086
1750.00,0.0087
1747.00,0.0090
1744.00,0.0093
1741.00,0.0093
1738.00,0.0095
1735.00,0.0097
1732.00,0.0101
1729.00,0.0108
1726.00,0.0114
1723.00,0.0120
1720.00,0.0124
1717.00,0.0131
1714.00,0.0144
1711.00,0.0160
1708.00,0.0177
1705.00,0.0202
1702.00,0.0228
1699.00,0.0278
1696.00,0.0338
1693.00,0.0413
1690.00,0.0495
1687.00,0.0576
1684.00,0.0680
1681.00,0.0782
1678.00,0.0871
1675.00,0.0966
1672.00,0.1052
1669.00,0.1140
1666.00,0.1221
1663.00,0.1297
1660.00,0.1367
1657.00,0.1423
1654.00,0.1461
1651.00,0.1483
1648.00,0.1494
1645.00,0.1461
1642.00,0.1421
1639.00,0.1356
1636.00,0.1260
1633.00,0.1167
1630.00,0.1120
1627.00,0.1108
1624.00,0.1101
1621.00,0.1057
1618.00,0.0964
1615.00,0.0839
1612.00,0.0791
1609.00,0.0738
1606.00,0.0651
1603.00,0.0564
1600.00,0.0496
1597.00,0.0452
1594.00,0.0434
1591.00,0.0450
1588.00,0.0494
1585.00,0.0522
1582.00,0.0510
1579.00,0.0471
1576.00,0.0416
1573.00,0.0377
1570.00,0.0353
1567.00,0.0330
1564.00,0.0300
1561.00,0.0266
1558.00,0.0239
1555.00,0.0232
1552.00,0.0225
1549.00,0.0219
1546.00,0.0212
1543.00,0.0203
1540.00,0.0195
1537.00,0.0195
1534.00,0.0193
1531.00,0.0191
1528.00,0.0190
1525.00,0.0188
1522.00,0.0189
1519.00,0.0196
1516.00,0.0209
1513.00,0.0222
1510.00,0.0233
1507.00,0.0249
1504.00,0.0288
1501.00,0.0343
1498.00,0.0432
1495.00,0.0496
1492.00,0.0468
1489.00,0.0397
1486.00,0.0331
1483.00,0.0288
1480.00,0.0267
1477.00,0.0270
1474.00,0.0301
1471.00,0.0395
1468.00,0.0530
1465.00,0.0671
1462.00,0.0743
1459.00,0.0738
1456.00,0.0643
1453.00,0.0582
1450.00,0.0576
1447.00,0.0636
1444.00,0.0736
1441.00,0.0840
1438.00,0.0907
1435.00,0.0946
1432.00,0.0966
1429.00,0.0999
1426.00,0.1059
1423.00,0.1111
1420.00,0.1077
1417.00,0.0930
1414.00,0.0776
1411.00,0.0657
1408.00,0.0599
1405.00,0.0594
1402.00,0.0603
1399.00,0.0585
1396.00,0.0531
1393.00,0.0470
1390.00,0.0445
1387.00,0.0469
1384.00,0.0477
1381.00,0.0490
1378.00,0.0513
1375.00,0.0509
1372.00,0.0484
1369.00,0.0485
1366.00,0.0507
1363.00,0.0503
1360.00,0.0514
1357.00,0.0469
1354.00,0.0420
1351.00,0.0401
1348.00,0.0398
1345.00,0.0390
1342.00,0.0371
1339.00,0.0351
1336.00,0.0348
1333.00,0.0367
1330.00,0.0395
1327.00,0.0424
1324.00,0.0455
1321.00,0.0488
1318.00,0.0506
1315.00,0.0495
1312.00,0.0471
1309.00,0.0462
1306.00,0.0488
1303.00,0.0561
1300.00,0.0656
1297.00,0.0765
1294.00,0.0923
1291.00,0.1073
1288.00,0.1175
1285.00,0.1215
1282.00,0.1180
1279.00,0.1113
1276.00,0.1081
1273.00,0.1076
1270.00,0.1044
1267.00,0.0971
1264.00,0.0873
1261.00,0.0773
1258.00,0.0689
1255.00,0.0627
1252.00,0.0588
1249.00,0.0574
1246.00,0.0586
1243.00,0.0607
1240.00,0.0627
1237.00,0.0669
1234.00,0.0712
1231.00,0.0711
1228.00,0.0678
1225.00,0.0646
1222.00,0.0627
1219.00,0.0627
1216.00,0.0636
1213.00,0.0623
1210.00,0.0576
1207.00,0.0531
1204.00,0.0515
1201.00,0.0532
1198.00,0.0572
1195.00,0.0607
1192.00,0.0588
1189.00,0.0531
1186.00,0.0475
1183.00,0.0441
1180.00,0.0428
1177.00,0.0429
1174.00,0.0437
1171.00,0.0446
1168.00,0.0447
1165.00,0.0442
1162.00,0.0444
1159.00,0.0480
1156.00,0.0550
1153.00,0.0542
1150.00,0.0443
1147.00,0.0375
1144.00,0.0349
1141.00,0.0336
1138.00,0.0339
1135.00,0.0372
1132.00,0.0462
1129.00,0.0553
1126.00,0.0545
1123.00,0.0477
1120.00,0.0411
1117.00,0.0384
1114.00,0.0378
1111.00,0.0368
1108.00,0.0359
1105.00,0.0373
1102.00,0.0425
1099.00,0.0462
1096.00,0.0422
1093.00,0.0369
1090.00,0.0344
1087.00,0.0335
1084.00,0.0332
1081.00,0.0337
1078.00,0.0345
1075.00,0.0356
1072.00,0.0364
1069.00,0.0373
1066.00,0.0386
1063.00,0.0413
1060.00,0.0478
1057.00,0.0589
1054.00,0.0677
1051.00,0.0696
1048.00,0.0672
1045.00,0.0594
1042.00,0.0504
1039.00,0.0451
1036.00,0.0446
1033.00,0.0464
1030.00,0.0535
1027.00,0.0630
1024.00,0.0605
1021.00,0.0520
1018.00,0.0464
1015.00,0.0421
1012.00,0.0385
1009.00,0.0382
1006.00,0.0419
1003.00,0.0454
1000.00,0.0443
997.00,0.0414
994.00,0.0391
991.00,0.0364
988.00,0.0335
985.00,0.0316
982.00,0.0303
979.00,0.0296
976.00,0.0292
973.00,0.0286
970.00,0.0282
967.00,0.0278
964.00,0.0280
961.00,0.0280
958.00,0.0264
955.00,0.0252
952.00,0.0246
949.00,0.0251
946.00,0.0254
943.00,0.0260
940.00,0.0279
937.00,0.0303
934.00,0.0322
931.00,0.0319
928.00,0.0302
925.00,0.0303
922.00,0.0312
919.00,0.0298
916.00,0.0272
913.00,0.0259
910.00,0.0255
907.00,0.0260
904.00,0.0278
901.00,0.0315
898.00,0.0336
895.00,0.0320
892.00,0.0323
889.00,0.0331
886.00,0.0293
883.00,0.0279
880.00,0.0284
877.00,0.0315
874.00,0.0383
871.00,0.0459
868.00,0.0463
865.00,0.0419
862.00,0.0383
859.00,0.0368
856.00,0.0402
853.00,0.0461
850.00,0.0521
847.00,0.0533
844.00,0.0498
841.00,0.0476
838.00,0.0486
835.00,0.0522
832.00,0.0520
829.00,0.0462
826.00,0.0401
823.00,0.0423
820.00,0.0523
817.00,0.0559
814.00,0.0534
811.00,0.0409
808.00,0.0356
805.00,0.0335
802.00,0.0327
799.00,0.0325
796.00,0.0325
793.00,0.0328
790.00,0.0332
787.00,0.0335
784.00,0.0339
781.00,0.0344
778.00,0.0354
775.00,0.0382
772.00,0.0385
769.00,0.0379
766.00,0.0387
763.00,0.0405
760.00,0.0429
757.00,0.0445
754.00,0.0457
751.00,0.0472
748.00,0.0491
745.00,0.0511
742.00,0.0536
739.00,0.0579
736.00,0.0647
733.00,0.0665
730.00,0.0649
727.00,0.0630
724.00,0.0578
721.00,0.0550
718.00,0.0552
715.00,0.0570
712.00,0.0566
709.00,0.0555
706.00,0.0555
703.00,0.0567
700.00,0.0585
697.00,0.0599
694.00,0.0601
691.00,0.0616
688.00,0.0646
685.00,0.0652
682.00,0.0654
679.00,0.0673
676.00,0.0700
673.00,0.0736
670.00,0.0763
667.00,0.0781
664.00,0.0800
661.00,0.0835
658.00,0.0855
655.00,0.0871
652.00,0.0894
649.00,0.0913
646.00,0.0919
643.00,0.0911
640.00,0.0894
637.00,0.0877
634.00,0.0862
631.00,0.0850
628.00,0.0844
625.00,0.0848
622.00,0.0860
619.00,0.0866
616.00,0.0851
613.00,0.0835
610.00,0.0837
607.00,0.0867
604.00,0.0910
601.00,0.0930
598.00,0.0937
595.00,0.0945
592.00,0.0952
589.00,0.0960
586.00,0.0978
583.00,0.1009
580.00,0.1047
577.00,0.1098
574.00,0.1110
571.00,0.1087
568.00,0.1069
565.00,0.1063
562.00,0.1071
559.00,0.1073
556.00,0.1047
553.00,0.1024
550.00,0.1031
547.00,0.1052
544.00,0.1048
541.00,0.1020
538.00,0.0997
535.00,0.0998
532.00,0.1021
529.00,0.1023
526.00,0.0997
523.00,0.0972
520.00,0.0964
517.00,0.0957
514.00,0.0951
511.00,0.0948
508.00,0.0955
505.00,0.0957
502.00,0.0948
499.00,0.0944
496.00,0.0949
493.00,0.0962
490.00,0.0966
487.00,0.0962
484.00,0.0958
481.00,0.0957
478.00,0.0955
475.00,0.0958
472.00,0.0958
469.00,0.0957
466.00,0.0951
463.00,0.0946
460.00,0.0936
457.00,0.0934
454.00,0.0928
451.00,0.0917
448.00,0.0910
445.00,0.0902
442.00,0.0898
439.00,0.0892
436.00,0.0884
433.00,0.0876
430.00,0.0864
427.00,0.0864
424.00,0.0848
421.00,0.0839
418.00,0.0842
415.00,0.0835
412.00,0.0853
409.00,0.0867
406.00,0.0848
403.00,0.0823
400.00,0.0861