File: FTIR/Olivia/2025_08_04_1CBN_3PVP29kDa_MortPest_powder_scan3.csv
Created as New Dataset,Sample 1041 By YargerLab Date Monday, August 04 2025
cm-1,A
4000.00,0.0060
3997.00,0.0059
3994.00,0.0060
3991.00,0.0059
3988.00,0.0060
3985.00,0.0060
3982.00,0.0060
3979.00,0.0060
3976.00,0.0060
3973.00,0.0060
3970.00,0.0060
3967.00,0.0060
3964.00,0.0060
3961.00,0.0059
3958.00,0.0059
3955.00,0.0060
3952.00,0.0060
3949.00,0.0059
3946.00,0.0060
3943.00,0.0059
3940.00,0.0059
3937.00,0.0059
3934.00,0.0060
3931.00,0.0060
3928.00,0.0060
3925.00,0.0059
3922.00,0.0059
3919.00,0.0060
3916.00,0.0060
3913.00,0.0060
3910.00,0.0059
3907.00,0.0060
3904.00,0.0060
3901.00,0.0060
3898.00,0.0060
3895.00,0.0060
3892.00,0.0059
3889.00,0.0059
3886.00,0.0059
3883.00,0.0060
3880.00,0.0060
3877.00,0.0060
3874.00,0.0060
3871.00,0.0059
3868.00,0.0060
3865.00,0.0060
3862.00,0.0060
3859.00,0.0060
3856.00,0.0059
3853.00,0.0060
3850.00,0.0060
3847.00,0.0060
3844.00,0.0059
3841.00,0.0060
3838.00,0.0060
3835.00,0.0060
3832.00,0.0059
3829.00,0.0059
3826.00,0.0059
3823.00,0.0060
3820.00,0.0060
3817.00,0.0059
3814.00,0.0059
3811.00,0.0059
3808.00,0.0059
3805.00,0.0059
3802.00,0.0059
3799.00,0.0059
3796.00,0.0059
3793.00,0.0059
3790.00,0.0058
3787.00,0.0058
3784.00,0.0058
3781.00,0.0058
3778.00,0.0059
3775.00,0.0059
3772.00,0.0059
3769.00,0.0059
3766.00,0.0059
3763.00,0.0059
3760.00,0.0059
3757.00,0.0059
3754.00,0.0060
3751.00,0.0061
3748.00,0.0060
3745.00,0.0059
3742.00,0.0059
3739.00,0.0060
3736.00,0.0060
3733.00,0.0059
3730.00,0.0058
3727.00,0.0057
3724.00,0.0057
3721.00,0.0057
3718.00,0.0057
3715.00,0.0057
3712.00,0.0057
3709.00,0.0057
3706.00,0.0057
3703.00,0.0056
3700.00,0.0056
3697.00,0.0056
3694.00,0.0056
3691.00,0.0056
3688.00,0.0057
3685.00,0.0058
3682.00,0.0058
3679.00,0.0057
3676.00,0.0057
3673.00,0.0058
3670.00,0.0058
3667.00,0.0058
3664.00,0.0058
3661.00,0.0057
3658.00,0.0057
3655.00,0.0058
3652.00,0.0059
3649.00,0.0059
3646.00,0.0059
3643.00,0.0058
3640.00,0.0058
3637.00,0.0058
3634.00,0.0058
3631.00,0.0059
3628.00,0.0060
3625.00,0.0060
3622.00,0.0060
3619.00,0.0060
3616.00,0.0062
3613.00,0.0063
3610.00,0.0063
3607.00,0.0062
3604.00,0.0063
3601.00,0.0063
3598.00,0.0064
3595.00,0.0065
3592.00,0.0066
3589.00,0.0066
3586.00,0.0066
3583.00,0.0067
3580.00,0.0068
3577.00,0.0069
3574.00,0.0070
3571.00,0.0071
3568.00,0.0073
3565.00,0.0073
3562.00,0.0074
3559.00,0.0075
3556.00,0.0076
3553.00,0.0077
3550.00,0.0079
3547.00,0.0081
3544.00,0.0082
3541.00,0.0083
3538.00,0.0084
3535.00,0.0085
3532.00,0.0087
3529.00,0.0088
3526.00,0.0090
3523.00,0.0091
3520.00,0.0092
3517.00,0.0094
3514.00,0.0095
3511.00,0.0096
3508.00,0.0097
3505.00,0.0098
3502.00,0.0100
3499.00,0.0101
3496.00,0.0103
3493.00,0.0105
3490.00,0.0107
3487.00,0.0108
3484.00,0.0111
3481.00,0.0114
3478.00,0.0117
3475.00,0.0119
3472.00,0.0122
3469.00,0.0125
3466.00,0.0128
3463.00,0.0131
3460.00,0.0134
3457.00,0.0137
3454.00,0.0141
3451.00,0.0145
3448.00,0.0149
3445.00,0.0153
3442.00,0.0157
3439.00,0.0162
3436.00,0.0166
3433.00,0.0172
3430.00,0.0177
3427.00,0.0183
3424.00,0.0190
3421.00,0.0195
3418.00,0.0201
3415.00,0.0208
3412.00,0.0213
3409.00,0.0217
3406.00,0.0220
3403.00,0.0222
3400.00,0.0223
3397.00,0.0222
3394.00,0.0220
3391.00,0.0218
3388.00,0.0215
3385.00,0.0211
3382.00,0.0207
3379.00,0.0204
3376.00,0.0201
3373.00,0.0197
3370.00,0.0194
3367.00,0.0190
3364.00,0.0187
3361.00,0.0184
3358.00,0.0182
3355.00,0.0180
3352.00,0.0178
3349.00,0.0176
3346.00,0.0175
3343.00,0.0174
3340.00,0.0173
3337.00,0.0173
3334.00,0.0173
3331.00,0.0173
3328.00,0.0172
3325.00,0.0173
3322.00,0.0174
3319.00,0.0175
3316.00,0.0176
3313.00,0.0178
3310.00,0.0178
3307.00,0.0179
3304.00,0.0181
3301.00,0.0184
3298.00,0.0185
3295.00,0.0187
3292.00,0.0189
3289.00,0.0192
3286.00,0.0194
3283.00,0.0197
3280.00,0.0199
3277.00,0.0201
3274.00,0.0203
3271.00,0.0205
3268.00,0.0207
3265.00,0.0210
3262.00,0.0212
3259.00,0.0214
3256.00,0.0216
3253.00,0.0218
3250.00,0.0220
3247.00,0.0221
3244.00,0.0223
3241.00,0.0224
3238.00,0.0224
3235.00,0.0224
3232.00,0.0223
3229.00,0.0223
3226.00,0.0222
3223.00,0.0220
3220.00,0.0218
3217.00,0.0216
3214.00,0.0213
3211.00,0.0210
3208.00,0.0207
3205.00,0.0203
3202.00,0.0199
3199.00,0.0195
3196.00,0.0191
3193.00,0.0188
3190.00,0.0183
3187.00,0.0180
3184.00,0.0176
3181.00,0.0173
3178.00,0.0169
3175.00,0.0165
3172.00,0.0161
3169.00,0.0157
3166.00,0.0153
3163.00,0.0149
3160.00,0.0146
3157.00,0.0142
3154.00,0.0138
3151.00,0.0134
3148.00,0.0131
3145.00,0.0128
3142.00,0.0125
3139.00,0.0123
3136.00,0.0121
3133.00,0.0118
3130.00,0.0116
3127.00,0.0114
3124.00,0.0113
3121.00,0.0111
3118.00,0.0108
3115.00,0.0106
3112.00,0.0105
3109.00,0.0102
3106.00,0.0100
3103.00,0.0099
3100.00,0.0097
3097.00,0.0096
3094.00,0.0096
3091.00,0.0097
3088.00,0.0097
3085.00,0.0098
3082.00,0.0097
3079.00,0.0097
3076.00,0.0096
3073.00,0.0095
3070.00,0.0094
3067.00,0.0094
3064.00,0.0094
3061.00,0.0094
3058.00,0.0094
3055.00,0.0095
3052.00,0.0094
3049.00,0.0094
3046.00,0.0093
3043.00,0.0094
3040.00,0.0095
3037.00,0.0098
3034.00,0.0099
3031.00,0.0099
3028.00,0.0098
3025.00,0.0095
3022.00,0.0092
3019.00,0.0090
3016.00,0.0090
3013.00,0.0090
3010.00,0.0092
3007.00,0.0094
3004.00,0.0100
3001.00,0.0107
2998.00,0.0115
2995.00,0.0126
2992.00,0.0137
2989.00,0.0145
2986.00,0.0153
2983.00,0.0169
2980.00,0.0190
2977.00,0.0199
2974.00,0.0208
2971.00,0.0231
2968.00,0.0248
2965.00,0.0256
2962.00,0.0270
2959.00,0.0276
2956.00,0.0261
2953.00,0.0238
2950.00,0.0222
2947.00,0.0219
2944.00,0.0230
2941.00,0.0249
2938.00,0.0278
2935.00,0.0320
2932.00,0.0369
2929.00,0.0407
2926.00,0.0412
2923.00,0.0387
2920.00,0.0349
2917.00,0.0312
2914.00,0.0280
2911.00,0.0257
2908.00,0.0238
2905.00,0.0222
2902.00,0.0209
2899.00,0.0197
2896.00,0.0186
2893.00,0.0179
2890.00,0.0173
2887.00,0.0169
2884.00,0.0166
2881.00,0.0168
2878.00,0.0178
2875.00,0.0194
2872.00,0.0205
2869.00,0.0203
2866.00,0.0203
2863.00,0.0220
2860.00,0.0253
2857.00,0.0280
2854.00,0.0281
2851.00,0.0259
2848.00,0.0221
2845.00,0.0184
2842.00,0.0157
2839.00,0.0138
2836.00,0.0126
2833.00,0.0119
2830.00,0.0112
2827.00,0.0107
2824.00,0.0103
2821.00,0.0099
2818.00,0.0096
2815.00,0.0094
2812.00,0.0092
2809.00,0.0090
2806.00,0.0089
2803.00,0.0088
2800.00,0.0087
2797.00,0.0086
2794.00,0.0085
2791.00,0.0083
2788.00,0.0082
2785.00,0.0081
2782.00,0.0080
2779.00,0.0080
2776.00,0.0079
2773.00,0.0079
2770.00,0.0079
2767.00,0.0078
2764.00,0.0078
2761.00,0.0078
2758.00,0.0078
2755.00,0.0078
2752.00,0.0078
2749.00,0.0078
2746.00,0.0079
2743.00,0.0079
2740.00,0.0080
2737.00,0.0081
2734.00,0.0082
2731.00,0.0084
2728.00,0.0084
2725.00,0.0083
2722.00,0.0081
2719.00,0.0081
2716.00,0.0080
2713.00,0.0080
2710.00,0.0080
2707.00,0.0079
2704.00,0.0079
2701.00,0.0079
2698.00,0.0078
2695.00,0.0077
2692.00,0.0077
2689.00,0.0076
2686.00,0.0076
2683.00,0.0075
2680.00,0.0075
2677.00,0.0075
2674.00,0.0076
2671.00,0.0076
2668.00,0.0076
2665.00,0.0078
2662.00,0.0079
2659.00,0.0080
2656.00,0.0081
2653.00,0.0081
2650.00,0.0081
2647.00,0.0081
2644.00,0.0080
2641.00,0.0080
2638.00,0.0079
2635.00,0.0079
2632.00,0.0077
2629.00,0.0076
2626.00,0.0075
2623.00,0.0075
2620.00,0.0075
2617.00,0.0075
2614.00,0.0075
2611.00,0.0075
2608.00,0.0075
2605.00,0.0074
2602.00,0.0075
2599.00,0.0075
2596.00,0.0075
2593.00,0.0076
2590.00,0.0075
2587.00,0.0075
2584.00,0.0076
2581.00,0.0076
2578.00,0.0074
2575.00,0.0073
2572.00,0.0073
2569.00,0.0073
2566.00,0.0073
2563.00,0.0072
2560.00,0.0072
2557.00,0.0071
2554.00,0.0071
2551.00,0.0071
2548.00,0.0070
2545.00,0.0070
2542.00,0.0070
2539.00,0.0070
2536.00,0.0070
2533.00,0.0070
2530.00,0.0070
2527.00,0.0069
2524.00,0.0069
2521.00,0.0068
2518.00,0.0067
2515.00,0.0067
2512.00,0.0067
2509.00,0.0067
2506.00,0.0067
2503.00,0.0066
2500.00,0.0066
2497.00,0.0066
2494.00,0.0065
2491.00,0.0065
2488.00,0.0064
2485.00,0.0064
2482.00,0.0064
2479.00,0.0064
2476.00,0.0064
2473.00,0.0064
2470.00,0.0063
2467.00,0.0063
2464.00,0.0063
2461.00,0.0064
2458.00,0.0064
2455.00,0.0065
2452.00,0.0064
2449.00,0.0063
2446.00,0.0063
2443.00,0.0063
2440.00,0.0063
2437.00,0.0061
2434.00,0.0061
2431.00,0.0062
2428.00,0.0061
2425.00,0.0061
2422.00,0.0060
2419.00,0.0060
2416.00,0.0060
2413.00,0.0060
2410.00,0.0061
2407.00,0.0060
2404.00,0.0059
2401.00,0.0060
2398.00,0.0060
2395.00,0.0060
2392.00,0.0059
2389.00,0.0058
2386.00,0.0057
2383.00,0.0055
2380.00,0.0053
2377.00,0.0054
2374.00,0.0054
2371.00,0.0054
2368.00,0.0053
2365.00,0.0052
2362.00,0.0053
2359.00,0.0054
2356.00,0.0054
2353.00,0.0054
2350.00,0.0054
2347.00,0.0056
2344.00,0.0055
2341.00,0.0056
2338.00,0.0057
2335.00,0.0057
2332.00,0.0057
2329.00,0.0058
2326.00,0.0067
2323.00,0.0066
2320.00,0.0063
2317.00,0.0061
2314.00,0.0060
2311.00,0.0059
2308.00,0.0059
2305.00,0.0060
2302.00,0.0060
2299.00,0.0061
2296.00,0.0063
2293.00,0.0066
2290.00,0.0068
2287.00,0.0069
2284.00,0.0067
2281.00,0.0065
2278.00,0.0064
2275.00,0.0064
2272.00,0.0064
2269.00,0.0062
2266.00,0.0059
2263.00,0.0059
2260.00,0.0059
2257.00,0.0058
2254.00,0.0057
2251.00,0.0057
2248.00,0.0057
2245.00,0.0059
2242.00,0.0059
2239.00,0.0059
2236.00,0.0058
2233.00,0.0060
2230.00,0.0060
2227.00,0.0060
2224.00,0.0060
2221.00,0.0060
2218.00,0.0059
2215.00,0.0059
2212.00,0.0059
2209.00,0.0060
2206.00,0.0059
2203.00,0.0058
2200.00,0.0059
2197.00,0.0059
2194.00,0.0059
2191.00,0.0059
2188.00,0.0062
2185.00,0.0059
2182.00,0.0050
2179.00,0.0053
2176.00,0.0055
2173.00,0.0059
2170.00,0.0062
2167.00,0.0062
2164.00,0.0067
2161.00,0.0056
2158.00,0.0028
2155.00,0.0035
2152.00,0.0043
2149.00,0.0044
2146.00,0.0042
2143.00,0.0041
2140.00,0.0040
2137.00,0.0039
2134.00,0.0036
2131.00,0.0040
2128.00,0.0044
2125.00,0.0048
2122.00,0.0050
2119.00,0.0052
2116.00,0.0055
2113.00,0.0054
2110.00,0.0053
2107.00,0.0052
2104.00,0.0051
2101.00,0.0051
2098.00,0.0049
2095.00,0.0047
2092.00,0.0049
2089.00,0.0051
2086.00,0.0052
2083.00,0.0053
2080.00,0.0055
2077.00,0.0055
2074.00,0.0054
2071.00,0.0052
2068.00,0.0052
2065.00,0.0051
2062.00,0.0049
2059.00,0.0051
2056.00,0.0050
2053.00,0.0054
2050.00,0.0056
2047.00,0.0050
2044.00,0.0053
2041.00,0.0054
2038.00,0.0054
2035.00,0.0050
2032.00,0.0046
2029.00,0.0046
2026.00,0.0043
2023.00,0.0047
2020.00,0.0047
2017.00,0.0044
2014.00,0.0043
2011.00,0.0043
2008.00,0.0041
2005.00,0.0037
2002.00,0.0041
1999.00,0.0046
1996.00,0.0048
1993.00,0.0051
1990.00,0.0051
1987.00,0.0051
1984.00,0.0055
1981.00,0.0056
1978.00,0.0045
1975.00,0.0040
1972.00,0.0040
1969.00,0.0040
1966.00,0.0042
1963.00,0.0040
1960.00,0.0039
1957.00,0.0039
1954.00,0.0042
1951.00,0.0045
1948.00,0.0046
1945.00,0.0044
1942.00,0.0044
1939.00,0.0044
1936.00,0.0045
1933.00,0.0044
1930.00,0.0045
1927.00,0.0046
1924.00,0.0047
1921.00,0.0048
1918.00,0.0047
1915.00,0.0048
1912.00,0.0051
1909.00,0.0055
1906.00,0.0054
1903.00,0.0052
1900.00,0.0051
1897.00,0.0052
1894.00,0.0053
1891.00,0.0052
1888.00,0.0050
1885.00,0.0050
1882.00,0.0050
1879.00,0.0049
1876.00,0.0049
1873.00,0.0049
1870.00,0.0049
1867.00,0.0049
1864.00,0.0049
1861.00,0.0049
1858.00,0.0050
1855.00,0.0050
1852.00,0.0051
1849.00,0.0051
1846.00,0.0053
1843.00,0.0053
1840.00,0.0051
1837.00,0.0050
1834.00,0.0049
1831.00,0.0049
1828.00,0.0050
1825.00,0.0051
1822.00,0.0050
1819.00,0.0048
1816.00,0.0047
1813.00,0.0049
1810.00,0.0050
1807.00,0.0050
1804.00,0.0050
1801.00,0.0051
1798.00,0.0052
1795.00,0.0052
1792.00,0.0054
1789.00,0.0053
1786.00,0.0053
1783.00,0.0052
1780.00,0.0052
1777.00,0.0053
1774.00,0.0053
1771.00,0.0055
1768.00,0.0055
1765.00,0.0054
1762.00,0.0054
1759.00,0.0055
1756.00,0.0055
1753.00,0.0054
1750.00,0.0053
1747.00,0.0054
1744.00,0.0054
1741.00,0.0054
1738.00,0.0055
1735.00,0.0055
1732.00,0.0057
1729.00,0.0060
1726.00,0.0062
1723.00,0.0064
1720.00,0.0064
1717.00,0.0065
1714.00,0.0071
1711.00,0.0075
1708.00,0.0078
1705.00,0.0083
1702.00,0.0088
1699.00,0.0099
1696.00,0.0107
1693.00,0.0122
1690.00,0.0135
1687.00,0.0146
1684.00,0.0166
1681.00,0.0184
1678.00,0.0200
1675.00,0.0219
1672.00,0.0232
1669.00,0.0248
1666.00,0.0261
1663.00,0.0273
1660.00,0.0283
1657.00,0.0289
1654.00,0.0292
1651.00,0.0291
1648.00,0.0293
1645.00,0.0288
1642.00,0.0285
1639.00,0.0279
1636.00,0.0270
1633.00,0.0277
1630.00,0.0315
1627.00,0.0400
1624.00,0.0476
1621.00,0.0498
1618.00,0.0457
1615.00,0.0384
1612.00,0.0378
1609.00,0.0363
1606.00,0.0307
1603.00,0.0250
1600.00,0.0211
1597.00,0.0194
1594.00,0.0200
1591.00,0.0240
1588.00,0.0309
1585.00,0.0362
1582.00,0.0366
1579.00,0.0335
1576.00,0.0283
1573.00,0.0245
1570.00,0.0227
1567.00,0.0209
1564.00,0.0179
1561.00,0.0152
1558.00,0.0128
1555.00,0.0120
1552.00,0.0115
1549.00,0.0111
1546.00,0.0108
1543.00,0.0102
1540.00,0.0097
1537.00,0.0098
1534.00,0.0098
1531.00,0.0097
1528.00,0.0096
1525.00,0.0097
1522.00,0.0098
1519.00,0.0106
1516.00,0.0118
1513.00,0.0129
1510.00,0.0135
1507.00,0.0137
1504.00,0.0149
1501.00,0.0170
1498.00,0.0225
1495.00,0.0259
1492.00,0.0225
1489.00,0.0177
1486.00,0.0148
1483.00,0.0132
1480.00,0.0126
1477.00,0.0128
1474.00,0.0137
1471.00,0.0177
1468.00,0.0239
1465.00,0.0283
1462.00,0.0288
1459.00,0.0291
1456.00,0.0272
1453.00,0.0256
1450.00,0.0257
1447.00,0.0273
1444.00,0.0304
1441.00,0.0339
1438.00,0.0365
1435.00,0.0386
1432.00,0.0409
1429.00,0.0421
1426.00,0.0420
1423.00,0.0410
1420.00,0.0391
1417.00,0.0352
1414.00,0.0321
1411.00,0.0309
1408.00,0.0329
1405.00,0.0379
1402.00,0.0428
1399.00,0.0433
1396.00,0.0383
1393.00,0.0315
1390.00,0.0282
1387.00,0.0301
1384.00,0.0291
1381.00,0.0281
1378.00,0.0282
1375.00,0.0257
1372.00,0.0228
1369.00,0.0241
1366.00,0.0291
1363.00,0.0318
1360.00,0.0349
1357.00,0.0313
1354.00,0.0272
1351.00,0.0259
1348.00,0.0260
1345.00,0.0254
1342.00,0.0233
1339.00,0.0207
1336.00,0.0196
1333.00,0.0203
1330.00,0.0212
1327.00,0.0214
1324.00,0.0211
1321.00,0.0212
1318.00,0.0211
1315.00,0.0201
1312.00,0.0196
1309.00,0.0206
1306.00,0.0238
1303.00,0.0294
1300.00,0.0330
1297.00,0.0327
1294.00,0.0338
1291.00,0.0351
1288.00,0.0371
1285.00,0.0401
1282.00,0.0401
1279.00,0.0361
1276.00,0.0322
1273.00,0.0303
1270.00,0.0288
1267.00,0.0272
1264.00,0.0253
1261.00,0.0231
1258.00,0.0213
1255.00,0.0202
1252.00,0.0201
1249.00,0.0217
1246.00,0.0249
1243.00,0.0277
1240.00,0.0293
1237.00,0.0322
1234.00,0.0353
1231.00,0.0341
1228.00,0.0303
1225.00,0.0273
1222.00,0.0257
1219.00,0.0262
1216.00,0.0282
1213.00,0.0285
1210.00,0.0254
1207.00,0.0224
1204.00,0.0223
1201.00,0.0257
1198.00,0.0314
1195.00,0.0363
1192.00,0.0349
1189.00,0.0292
1186.00,0.0236
1183.00,0.0199
1180.00,0.0181
1177.00,0.0172
1174.00,0.0169
1171.00,0.0169
1168.00,0.0170
1165.00,0.0175
1162.00,0.0197
1159.00,0.0259
1156.00,0.0358
1153.00,0.0361
1150.00,0.0256
1147.00,0.0186
1144.00,0.0164
1141.00,0.0160
1138.00,0.0170
1135.00,0.0209
1132.00,0.0307
1129.00,0.0407
1126.00,0.0392
1123.00,0.0312
1120.00,0.0239
1117.00,0.0208
1114.00,0.0201
1111.00,0.0190
1108.00,0.0179
1105.00,0.0193
1102.00,0.0247
1099.00,0.0285
1096.00,0.0241
1093.00,0.0181
1090.00,0.0153
1087.00,0.0143
1084.00,0.0139
1081.00,0.0139
1078.00,0.0142
1075.00,0.0147
1072.00,0.0155
1069.00,0.0169
1066.00,0.0187
1063.00,0.0221
1060.00,0.0297
1057.00,0.0426
1054.00,0.0531
1051.00,0.0556
1048.00,0.0534
1045.00,0.0447
1042.00,0.0344
1039.00,0.0282
1036.00,0.0273
1033.00,0.0293
1030.00,0.0374
1027.00,0.0476
1024.00,0.0425
1021.00,0.0310
1018.00,0.0240
1015.00,0.0203
1012.00,0.0184
1009.00,0.0191
1006.00,0.0225
1003.00,0.0251
1000.00,0.0238
997.00,0.0218
994.00,0.0206
991.00,0.0188
988.00,0.0166
985.00,0.0150
982.00,0.0141
979.00,0.0139
976.00,0.0140
973.00,0.0139
970.00,0.0136
967.00,0.0135
964.00,0.0139
961.00,0.0141
958.00,0.0126
955.00,0.0116
952.00,0.0111
949.00,0.0114
946.00,0.0116
943.00,0.0120
940.00,0.0132
937.00,0.0144
934.00,0.0151
931.00,0.0152
928.00,0.0146
925.00,0.0151
922.00,0.0165
919.00,0.0153
916.00,0.0128
913.00,0.0115
910.00,0.0111
907.00,0.0115
904.00,0.0127
901.00,0.0158
898.00,0.0171
895.00,0.0153
892.00,0.0158
889.00,0.0170
886.00,0.0137
883.00,0.0127
880.00,0.0136
877.00,0.0170
874.00,0.0241
871.00,0.0323
868.00,0.0327
865.00,0.0272
862.00,0.0221
859.00,0.0190
856.00,0.0208
853.00,0.0248
850.00,0.0282
847.00,0.0279
844.00,0.0241
841.00,0.0223
838.00,0.0242
835.00,0.0291
832.00,0.0300
829.00,0.0253
826.00,0.0200
823.00,0.0232
820.00,0.0342
817.00,0.0379
814.00,0.0352
811.00,0.0223
808.00,0.0168
805.00,0.0145
802.00,0.0134
799.00,0.0128
796.00,0.0125
793.00,0.0125
790.00,0.0125
787.00,0.0124
784.00,0.0126
781.00,0.0127
778.00,0.0133
775.00,0.0157
772.00,0.0154
769.00,0.0139
766.00,0.0138
763.00,0.0144
760.00,0.0155
757.00,0.0157
754.00,0.0154
751.00,0.0155
748.00,0.0159
745.00,0.0165
742.00,0.0176
739.00,0.0206
736.00,0.0266
733.00,0.0281
730.00,0.0265
727.00,0.0254
724.00,0.0212
721.00,0.0191
718.00,0.0198
715.00,0.0215
712.00,0.0211
709.00,0.0200
706.00,0.0198
703.00,0.0204
700.00,0.0217
697.00,0.0225
694.00,0.0218
691.00,0.0224
688.00,0.0245
685.00,0.0236
682.00,0.0226
679.00,0.0232
676.00,0.0249
673.00,0.0272
670.00,0.0286
667.00,0.0285
664.00,0.0284
661.00,0.0294
658.00,0.0282
655.00,0.0270
652.00,0.0265
649.00,0.0264
646.00,0.0264
643.00,0.0262
640.00,0.0259
637.00,0.0255
634.00,0.0251
631.00,0.0250
628.00,0.0253
625.00,0.0262
622.00,0.0277
619.00,0.0283
616.00,0.0266
613.00,0.0250
610.00,0.0253
607.00,0.0283
604.00,0.0321
601.00,0.0336
598.00,0.0333
595.00,0.0331
592.00,0.0327
589.00,0.0321
586.00,0.0318
583.00,0.0324
580.00,0.0339
577.00,0.0369
574.00,0.0361
571.00,0.0332
568.00,0.0318
565.00,0.0324
562.00,0.0345
559.00,0.0358
556.00,0.0338
553.00,0.0322
550.00,0.0329
547.00,0.0357
544.00,0.0360
541.00,0.0339
538.00,0.0317
535.00,0.0318
532.00,0.0341
529.00,0.0342
526.00,0.0317
523.00,0.0292
520.00,0.0279
517.00,0.0275
514.00,0.0274
511.00,0.0271
508.00,0.0276
505.00,0.0279
502.00,0.0272
499.00,0.0266
496.00,0.0267
493.00,0.0282
490.00,0.0279
487.00,0.0271
484.00,0.0264
481.00,0.0260
478.00,0.0259
475.00,0.0260
472.00,0.0256
469.00,0.0257
466.00,0.0250
463.00,0.0249
460.00,0.0253
457.00,0.0251
454.00,0.0253
451.00,0.0253
448.00,0.0246
445.00,0.0245
442.00,0.0238
439.00,0.0235
436.00,0.0233
433.00,0.0237
430.00,0.0237
427.00,0.0228
424.00,0.0212
421.00,0.0232
418.00,0.0243
415.00,0.0225
412.00,0.0235
409.00,0.0258
406.00,0.0248
403.00,0.0239
400.00,0.0247