File: FTIR/Olivia/2025_08_06_1CBN_3PVP40_MP_Powder_Scan3.csv
Created as New Dataset,Sample 1087 By YargerLab Date Wednesday, August 06 2025
cm-1,A
4000.00,0.0091
3997.00,0.0091
3994.00,0.0091
3991.00,0.0090
3988.00,0.0091
3985.00,0.0091
3982.00,0.0091
3979.00,0.0092
3976.00,0.0092
3973.00,0.0092
3970.00,0.0092
3967.00,0.0091
3964.00,0.0091
3961.00,0.0092
3958.00,0.0091
3955.00,0.0091
3952.00,0.0091
3949.00,0.0090
3946.00,0.0090
3943.00,0.0090
3940.00,0.0090
3937.00,0.0091
3934.00,0.0091
3931.00,0.0090
3928.00,0.0091
3925.00,0.0091
3922.00,0.0091
3919.00,0.0090
3916.00,0.0090
3913.00,0.0090
3910.00,0.0090
3907.00,0.0090
3904.00,0.0090
3901.00,0.0088
3898.00,0.0089
3895.00,0.0089
3892.00,0.0090
3889.00,0.0090
3886.00,0.0089
3883.00,0.0088
3880.00,0.0089
3877.00,0.0089
3874.00,0.0089
3871.00,0.0089
3868.00,0.0089
3865.00,0.0089
3862.00,0.0089
3859.00,0.0089
3856.00,0.0088
3853.00,0.0088
3850.00,0.0088
3847.00,0.0089
3844.00,0.0089
3841.00,0.0089
3838.00,0.0088
3835.00,0.0088
3832.00,0.0088
3829.00,0.0089
3826.00,0.0089
3823.00,0.0090
3820.00,0.0089
3817.00,0.0088
3814.00,0.0088
3811.00,0.0088
3808.00,0.0089
3805.00,0.0088
3802.00,0.0088
3799.00,0.0087
3796.00,0.0088
3793.00,0.0088
3790.00,0.0088
3787.00,0.0089
3784.00,0.0089
3781.00,0.0088
3778.00,0.0089
3775.00,0.0089
3772.00,0.0089
3769.00,0.0089
3766.00,0.0088
3763.00,0.0088
3760.00,0.0089
3757.00,0.0088
3754.00,0.0088
3751.00,0.0088
3748.00,0.0087
3745.00,0.0087
3742.00,0.0086
3739.00,0.0086
3736.00,0.0086
3733.00,0.0086
3730.00,0.0086
3727.00,0.0085
3724.00,0.0086
3721.00,0.0087
3718.00,0.0087
3715.00,0.0086
3712.00,0.0085
3709.00,0.0086
3706.00,0.0086
3703.00,0.0086
3700.00,0.0086
3697.00,0.0086
3694.00,0.0086
3691.00,0.0086
3688.00,0.0087
3685.00,0.0087
3682.00,0.0087
3679.00,0.0088
3676.00,0.0087
3673.00,0.0087
3670.00,0.0087
3667.00,0.0088
3664.00,0.0089
3661.00,0.0089
3658.00,0.0090
3655.00,0.0090
3652.00,0.0090
3649.00,0.0091
3646.00,0.0091
3643.00,0.0093
3640.00,0.0095
3637.00,0.0095
3634.00,0.0096
3631.00,0.0097
3628.00,0.0098
3625.00,0.0099
3622.00,0.0100
3619.00,0.0101
3616.00,0.0103
3613.00,0.0104
3610.00,0.0106
3607.00,0.0108
3604.00,0.0109
3601.00,0.0111
3598.00,0.0113
3595.00,0.0115
3592.00,0.0116
3589.00,0.0118
3586.00,0.0120
3583.00,0.0123
3580.00,0.0125
3577.00,0.0128
3574.00,0.0130
3571.00,0.0133
3568.00,0.0135
3565.00,0.0137
3562.00,0.0140
3559.00,0.0143
3556.00,0.0146
3553.00,0.0148
3550.00,0.0151
3547.00,0.0154
3544.00,0.0157
3541.00,0.0159
3538.00,0.0162
3535.00,0.0165
3532.00,0.0168
3529.00,0.0170
3526.00,0.0172
3523.00,0.0175
3520.00,0.0177
3517.00,0.0179
3514.00,0.0183
3511.00,0.0185
3508.00,0.0187
3505.00,0.0190
3502.00,0.0193
3499.00,0.0196
3496.00,0.0198
3493.00,0.0202
3490.00,0.0205
3487.00,0.0208
3484.00,0.0213
3481.00,0.0218
3478.00,0.0222
3475.00,0.0226
3472.00,0.0231
3469.00,0.0236
3466.00,0.0242
3463.00,0.0247
3460.00,0.0253
3457.00,0.0258
3454.00,0.0264
3451.00,0.0270
3448.00,0.0276
3445.00,0.0283
3442.00,0.0290
3439.00,0.0297
3436.00,0.0305
3433.00,0.0314
3430.00,0.0323
3427.00,0.0333
3424.00,0.0343
3421.00,0.0352
3418.00,0.0362
3415.00,0.0372
3412.00,0.0381
3409.00,0.0388
3406.00,0.0393
3403.00,0.0397
3400.00,0.0398
3397.00,0.0396
3394.00,0.0393
3391.00,0.0389
3388.00,0.0383
3385.00,0.0376
3382.00,0.0369
3379.00,0.0363
3376.00,0.0356
3373.00,0.0348
3370.00,0.0342
3367.00,0.0336
3364.00,0.0330
3361.00,0.0324
3358.00,0.0319
3355.00,0.0316
3352.00,0.0312
3349.00,0.0308
3346.00,0.0306
3343.00,0.0304
3340.00,0.0301
3337.00,0.0300
3334.00,0.0300
3331.00,0.0299
3328.00,0.0299
3325.00,0.0299
3322.00,0.0300
3319.00,0.0302
3316.00,0.0303
3313.00,0.0304
3310.00,0.0305
3307.00,0.0307
3304.00,0.0310
3301.00,0.0314
3298.00,0.0317
3295.00,0.0319
3292.00,0.0322
3289.00,0.0327
3286.00,0.0331
3283.00,0.0334
3280.00,0.0338
3277.00,0.0340
3274.00,0.0343
3271.00,0.0346
3268.00,0.0350
3265.00,0.0354
3262.00,0.0357
3259.00,0.0360
3256.00,0.0364
3253.00,0.0367
3250.00,0.0368
3247.00,0.0370
3244.00,0.0374
3241.00,0.0375
3238.00,0.0375
3235.00,0.0373
3232.00,0.0373
3229.00,0.0373
3226.00,0.0372
3223.00,0.0370
3220.00,0.0366
3217.00,0.0363
3214.00,0.0359
3211.00,0.0355
3208.00,0.0350
3205.00,0.0344
3202.00,0.0337
3199.00,0.0330
3196.00,0.0324
3193.00,0.0317
3190.00,0.0311
3187.00,0.0304
3184.00,0.0297
3181.00,0.0291
3178.00,0.0284
3175.00,0.0278
3172.00,0.0271
3169.00,0.0265
3166.00,0.0257
3163.00,0.0251
3160.00,0.0244
3157.00,0.0239
3154.00,0.0232
3151.00,0.0226
3148.00,0.0221
3145.00,0.0215
3142.00,0.0209
3139.00,0.0205
3136.00,0.0201
3133.00,0.0197
3130.00,0.0193
3127.00,0.0190
3124.00,0.0187
3121.00,0.0184
3118.00,0.0181
3115.00,0.0178
3112.00,0.0175
3109.00,0.0171
3106.00,0.0166
3103.00,0.0163
3100.00,0.0161
3097.00,0.0160
3094.00,0.0159
3091.00,0.0160
3088.00,0.0161
3085.00,0.0161
3082.00,0.0161
3079.00,0.0160
3076.00,0.0157
3073.00,0.0156
3070.00,0.0155
3067.00,0.0154
3064.00,0.0154
3061.00,0.0155
3058.00,0.0156
3055.00,0.0156
3052.00,0.0156
3049.00,0.0154
3046.00,0.0154
3043.00,0.0154
3040.00,0.0156
3037.00,0.0160
3034.00,0.0164
3031.00,0.0164
3028.00,0.0161
3025.00,0.0157
3022.00,0.0153
3019.00,0.0150
3016.00,0.0149
3013.00,0.0150
3010.00,0.0152
3007.00,0.0158
3004.00,0.0166
3001.00,0.0178
2998.00,0.0196
2995.00,0.0217
2992.00,0.0235
2989.00,0.0248
2986.00,0.0264
2983.00,0.0291
2980.00,0.0329
2977.00,0.0348
2974.00,0.0369
2971.00,0.0415
2968.00,0.0444
2965.00,0.0463
2962.00,0.0491
2959.00,0.0500
2956.00,0.0472
2953.00,0.0431
2950.00,0.0404
2947.00,0.0400
2944.00,0.0417
2941.00,0.0449
2938.00,0.0498
2935.00,0.0573
2932.00,0.0665
2929.00,0.0742
2926.00,0.0765
2923.00,0.0732
2920.00,0.0671
2917.00,0.0604
2914.00,0.0543
2911.00,0.0493
2908.00,0.0454
2905.00,0.0424
2902.00,0.0398
2899.00,0.0375
2896.00,0.0357
2893.00,0.0342
2890.00,0.0330
2887.00,0.0320
2884.00,0.0314
2881.00,0.0317
2878.00,0.0335
2875.00,0.0364
2872.00,0.0381
2869.00,0.0377
2866.00,0.0377
2863.00,0.0409
2860.00,0.0475
2857.00,0.0529
2854.00,0.0535
2851.00,0.0502
2848.00,0.0429
2845.00,0.0353
2842.00,0.0296
2839.00,0.0258
2836.00,0.0234
2833.00,0.0217
2830.00,0.0204
2827.00,0.0193
2824.00,0.0184
2821.00,0.0176
2818.00,0.0170
2815.00,0.0166
2812.00,0.0161
2809.00,0.0157
2806.00,0.0155
2803.00,0.0153
2800.00,0.0150
2797.00,0.0147
2794.00,0.0145
2791.00,0.0143
2788.00,0.0141
2785.00,0.0139
2782.00,0.0137
2779.00,0.0135
2776.00,0.0134
2773.00,0.0133
2770.00,0.0132
2767.00,0.0132
2764.00,0.0132
2761.00,0.0131
2758.00,0.0131
2755.00,0.0131
2752.00,0.0131
2749.00,0.0131
2746.00,0.0132
2743.00,0.0133
2740.00,0.0134
2737.00,0.0136
2734.00,0.0138
2731.00,0.0140
2728.00,0.0140
2725.00,0.0138
2722.00,0.0137
2719.00,0.0135
2716.00,0.0134
2713.00,0.0133
2710.00,0.0133
2707.00,0.0132
2704.00,0.0132
2701.00,0.0131
2698.00,0.0131
2695.00,0.0130
2692.00,0.0128
2689.00,0.0127
2686.00,0.0127
2683.00,0.0126
2680.00,0.0125
2677.00,0.0125
2674.00,0.0126
2671.00,0.0126
2668.00,0.0127
2665.00,0.0129
2662.00,0.0131
2659.00,0.0132
2656.00,0.0132
2653.00,0.0133
2650.00,0.0133
2647.00,0.0133
2644.00,0.0132
2641.00,0.0131
2638.00,0.0130
2635.00,0.0128
2632.00,0.0127
2629.00,0.0125
2626.00,0.0124
2623.00,0.0123
2620.00,0.0122
2617.00,0.0122
2614.00,0.0122
2611.00,0.0122
2608.00,0.0122
2605.00,0.0122
2602.00,0.0122
2599.00,0.0123
2596.00,0.0125
2593.00,0.0125
2590.00,0.0125
2587.00,0.0125
2584.00,0.0125
2581.00,0.0124
2578.00,0.0123
2575.00,0.0122
2572.00,0.0122
2569.00,0.0122
2566.00,0.0121
2563.00,0.0121
2560.00,0.0120
2557.00,0.0119
2554.00,0.0117
2551.00,0.0117
2548.00,0.0117
2545.00,0.0116
2542.00,0.0117
2539.00,0.0117
2536.00,0.0117
2533.00,0.0116
2530.00,0.0116
2527.00,0.0115
2524.00,0.0114
2521.00,0.0114
2518.00,0.0112
2515.00,0.0112
2512.00,0.0110
2509.00,0.0110
2506.00,0.0110
2503.00,0.0109
2500.00,0.0108
2497.00,0.0108
2494.00,0.0107
2491.00,0.0107
2488.00,0.0106
2485.00,0.0107
2482.00,0.0107
2479.00,0.0106
2476.00,0.0106
2473.00,0.0105
2470.00,0.0105
2467.00,0.0105
2464.00,0.0105
2461.00,0.0105
2458.00,0.0107
2455.00,0.0107
2452.00,0.0106
2449.00,0.0105
2446.00,0.0104
2443.00,0.0104
2440.00,0.0104
2437.00,0.0103
2434.00,0.0103
2431.00,0.0103
2428.00,0.0103
2425.00,0.0102
2422.00,0.0101
2419.00,0.0101
2416.00,0.0102
2413.00,0.0102
2410.00,0.0102
2407.00,0.0102
2404.00,0.0101
2401.00,0.0099
2398.00,0.0100
2395.00,0.0101
2392.00,0.0100
2389.00,0.0099
2386.00,0.0099
2383.00,0.0098
2380.00,0.0096
2377.00,0.0096
2374.00,0.0097
2371.00,0.0097
2368.00,0.0096
2365.00,0.0096
2362.00,0.0096
2359.00,0.0096
2356.00,0.0097
2353.00,0.0097
2350.00,0.0097
2347.00,0.0097
2344.00,0.0098
2341.00,0.0099
2338.00,0.0101
2335.00,0.0100
2332.00,0.0099
2329.00,0.0102
2326.00,0.0114
2323.00,0.0111
2320.00,0.0106
2317.00,0.0105
2314.00,0.0103
2311.00,0.0103
2308.00,0.0102
2305.00,0.0102
2302.00,0.0103
2299.00,0.0105
2296.00,0.0105
2293.00,0.0108
2290.00,0.0111
2287.00,0.0111
2284.00,0.0109
2281.00,0.0107
2278.00,0.0105
2275.00,0.0104
2272.00,0.0102
2269.00,0.0101
2266.00,0.0099
2263.00,0.0097
2260.00,0.0098
2257.00,0.0096
2254.00,0.0094
2251.00,0.0097
2248.00,0.0098
2245.00,0.0097
2242.00,0.0099
2239.00,0.0099
2236.00,0.0096
2233.00,0.0098
2230.00,0.0098
2227.00,0.0101
2224.00,0.0099
2221.00,0.0096
2218.00,0.0095
2215.00,0.0097
2212.00,0.0099
2209.00,0.0098
2206.00,0.0097
2203.00,0.0098
2200.00,0.0097
2197.00,0.0096
2194.00,0.0097
2191.00,0.0100
2188.00,0.0101
2185.00,0.0100
2182.00,0.0093
2179.00,0.0093
2176.00,0.0090
2173.00,0.0096
2170.00,0.0102
2167.00,0.0104
2164.00,0.0110
2161.00,0.0095
2158.00,0.0064
2155.00,0.0069
2152.00,0.0076
2149.00,0.0077
2146.00,0.0075
2143.00,0.0076
2140.00,0.0078
2137.00,0.0076
2134.00,0.0072
2131.00,0.0077
2128.00,0.0082
2125.00,0.0083
2122.00,0.0087
2119.00,0.0089
2116.00,0.0092
2113.00,0.0091
2110.00,0.0090
2107.00,0.0091
2104.00,0.0092
2101.00,0.0088
2098.00,0.0087
2095.00,0.0083
2092.00,0.0085
2089.00,0.0088
2086.00,0.0091
2083.00,0.0092
2080.00,0.0093
2077.00,0.0093
2074.00,0.0094
2071.00,0.0092
2068.00,0.0090
2065.00,0.0087
2062.00,0.0084
2059.00,0.0087
2056.00,0.0087
2053.00,0.0092
2050.00,0.0093
2047.00,0.0085
2044.00,0.0083
2041.00,0.0086
2038.00,0.0089
2035.00,0.0086
2032.00,0.0082
2029.00,0.0083
2026.00,0.0081
2023.00,0.0082
2020.00,0.0080
2017.00,0.0081
2014.00,0.0084
2011.00,0.0087
2008.00,0.0076
2005.00,0.0069
2002.00,0.0077
1999.00,0.0080
1996.00,0.0082
1993.00,0.0084
1990.00,0.0087
1987.00,0.0087
1984.00,0.0092
1981.00,0.0100
1978.00,0.0082
1975.00,0.0076
1972.00,0.0076
1969.00,0.0074
1966.00,0.0073
1963.00,0.0075
1960.00,0.0073
1957.00,0.0073
1954.00,0.0075
1951.00,0.0078
1948.00,0.0078
1945.00,0.0079
1942.00,0.0079
1939.00,0.0079
1936.00,0.0078
1933.00,0.0079
1930.00,0.0080
1927.00,0.0081
1924.00,0.0082
1921.00,0.0084
1918.00,0.0084
1915.00,0.0087
1912.00,0.0091
1909.00,0.0099
1906.00,0.0097
1903.00,0.0091
1900.00,0.0089
1897.00,0.0089
1894.00,0.0093
1891.00,0.0090
1888.00,0.0087
1885.00,0.0086
1882.00,0.0085
1879.00,0.0086
1876.00,0.0085
1873.00,0.0085
1870.00,0.0083
1867.00,0.0084
1864.00,0.0087
1861.00,0.0088
1858.00,0.0087
1855.00,0.0087
1852.00,0.0088
1849.00,0.0090
1846.00,0.0092
1843.00,0.0093
1840.00,0.0089
1837.00,0.0087
1834.00,0.0087
1831.00,0.0085
1828.00,0.0086
1825.00,0.0087
1822.00,0.0087
1819.00,0.0085
1816.00,0.0084
1813.00,0.0086
1810.00,0.0087
1807.00,0.0088
1804.00,0.0088
1801.00,0.0088
1798.00,0.0090
1795.00,0.0091
1792.00,0.0091
1789.00,0.0092
1786.00,0.0092
1783.00,0.0091
1780.00,0.0092
1777.00,0.0095
1774.00,0.0096
1771.00,0.0097
1768.00,0.0098
1765.00,0.0096
1762.00,0.0098
1759.00,0.0101
1756.00,0.0100
1753.00,0.0098
1750.00,0.0097
1747.00,0.0099
1744.00,0.0101
1741.00,0.0102
1738.00,0.0104
1735.00,0.0106
1732.00,0.0111
1729.00,0.0117
1726.00,0.0123
1723.00,0.0129
1720.00,0.0131
1717.00,0.0135
1714.00,0.0146
1711.00,0.0158
1708.00,0.0169
1705.00,0.0183
1702.00,0.0203
1699.00,0.0235
1696.00,0.0271
1693.00,0.0322
1690.00,0.0371
1687.00,0.0423
1684.00,0.0481
1681.00,0.0540
1678.00,0.0594
1675.00,0.0644
1672.00,0.0688
1669.00,0.0726
1666.00,0.0766
1663.00,0.0802
1660.00,0.0829
1657.00,0.0857
1654.00,0.0875
1651.00,0.0854
1648.00,0.0865
1645.00,0.0829
1642.00,0.0813
1639.00,0.0783
1636.00,0.0735
1633.00,0.0713
1630.00,0.0770
1627.00,0.0914
1624.00,0.1044
1621.00,0.1084
1618.00,0.0995
1615.00,0.0837
1612.00,0.0817
1609.00,0.0784
1606.00,0.0670
1603.00,0.0546
1600.00,0.0457
1597.00,0.0412
1594.00,0.0413
1591.00,0.0481
1588.00,0.0604
1585.00,0.0699
1582.00,0.0708
1579.00,0.0653
1576.00,0.0557
1573.00,0.0485
1570.00,0.0444
1567.00,0.0409
1564.00,0.0350
1561.00,0.0298
1558.00,0.0244
1555.00,0.0231
1552.00,0.0220
1549.00,0.0211
1546.00,0.0205
1543.00,0.0194
1540.00,0.0184
1537.00,0.0186
1534.00,0.0181
1531.00,0.0179
1528.00,0.0179
1525.00,0.0181
1522.00,0.0186
1519.00,0.0201
1516.00,0.0222
1513.00,0.0244
1510.00,0.0260
1507.00,0.0268
1504.00,0.0298
1501.00,0.0347
1498.00,0.0469
1495.00,0.0549
1492.00,0.0482
1489.00,0.0379
1486.00,0.0311
1483.00,0.0273
1480.00,0.0255
1477.00,0.0257
1474.00,0.0282
1471.00,0.0379
1468.00,0.0522
1465.00,0.0634
1462.00,0.0660
1459.00,0.0665
1456.00,0.0603
1453.00,0.0555
1450.00,0.0553
1447.00,0.0595
1444.00,0.0675
1441.00,0.0767
1438.00,0.0832
1435.00,0.0890
1432.00,0.0944
1429.00,0.0982
1426.00,0.0997
1423.00,0.0993
1420.00,0.0954
1417.00,0.0838
1414.00,0.0736
1411.00,0.0673
1408.00,0.0681
1405.00,0.0759
1402.00,0.0844
1399.00,0.0849
1396.00,0.0756
1393.00,0.0627
1390.00,0.0564
1387.00,0.0600
1384.00,0.0581
1381.00,0.0569
1378.00,0.0581
1375.00,0.0541
1372.00,0.0485
1369.00,0.0510
1366.00,0.0599
1363.00,0.0639
1360.00,0.0710
1357.00,0.0636
1354.00,0.0547
1351.00,0.0522
1348.00,0.0526
1345.00,0.0513
1342.00,0.0470
1339.00,0.0420
1336.00,0.0400
1333.00,0.0421
1330.00,0.0451
1327.00,0.0462
1324.00,0.0462
1321.00,0.0471
1318.00,0.0472
1315.00,0.0453
1312.00,0.0437
1309.00,0.0453
1306.00,0.0517
1303.00,0.0640
1300.00,0.0734
1297.00,0.0756
1294.00,0.0819
1291.00,0.0882
1288.00,0.0948
1285.00,0.1024
1282.00,0.1024
1279.00,0.0930
1276.00,0.0845
1273.00,0.0807
1270.00,0.0772
1267.00,0.0723
1264.00,0.0661
1261.00,0.0590
1258.00,0.0530
1255.00,0.0490
1252.00,0.0474
1249.00,0.0495
1246.00,0.0554
1243.00,0.0610
1240.00,0.0646
1237.00,0.0718
1234.00,0.0792
1231.00,0.0771
1228.00,0.0687
1225.00,0.0621
1222.00,0.0588
1219.00,0.0596
1216.00,0.0633
1213.00,0.0635
1210.00,0.0565
1207.00,0.0498
1204.00,0.0492
1201.00,0.0558
1198.00,0.0673
1195.00,0.0778
1192.00,0.0753
1189.00,0.0635
1186.00,0.0512
1183.00,0.0433
1180.00,0.0394
1177.00,0.0379
1174.00,0.0375
1171.00,0.0376
1168.00,0.0377
1165.00,0.0384
1162.00,0.0416
1159.00,0.0527
1156.00,0.0719
1153.00,0.0728
1150.00,0.0517
1147.00,0.0380
1144.00,0.0336
1141.00,0.0328
1138.00,0.0348
1135.00,0.0428
1132.00,0.0630
1129.00,0.0837
1126.00,0.0818
1123.00,0.0659
1120.00,0.0503
1117.00,0.0436
1114.00,0.0424
1111.00,0.0401
1108.00,0.0378
1105.00,0.0405
1102.00,0.0520
1099.00,0.0604
1096.00,0.0509
1093.00,0.0385
1090.00,0.0324
1087.00,0.0301
1084.00,0.0293
1081.00,0.0294
1078.00,0.0301
1075.00,0.0312
1072.00,0.0325
1069.00,0.0347
1066.00,0.0379
1063.00,0.0441
1060.00,0.0588
1057.00,0.0848
1054.00,0.1068
1051.00,0.1130
1048.00,0.1099
1045.00,0.0930
1042.00,0.0720
1039.00,0.0592
1036.00,0.0574
1033.00,0.0615
1030.00,0.0777
1027.00,0.0997
1024.00,0.0915
1021.00,0.0683
1018.00,0.0533
1015.00,0.0446
1012.00,0.0399
1009.00,0.0412
1006.00,0.0491
1003.00,0.0551
1000.00,0.0523
997.00,0.0474
994.00,0.0439
991.00,0.0393
988.00,0.0341
985.00,0.0308
982.00,0.0289
979.00,0.0282
976.00,0.0282
973.00,0.0278
970.00,0.0273
967.00,0.0272
964.00,0.0281
961.00,0.0284
958.00,0.0253
955.00,0.0228
952.00,0.0218
949.00,0.0228
946.00,0.0233
943.00,0.0239
940.00,0.0267
937.00,0.0293
934.00,0.0314
931.00,0.0316
928.00,0.0297
925.00,0.0305
922.00,0.0335
919.00,0.0310
916.00,0.0256
913.00,0.0230
910.00,0.0222
907.00,0.0228
904.00,0.0257
901.00,0.0327
898.00,0.0358
895.00,0.0315
892.00,0.0328
889.00,0.0353
886.00,0.0277
883.00,0.0252
880.00,0.0269
877.00,0.0341
874.00,0.0492
871.00,0.0661
868.00,0.0668
865.00,0.0551
862.00,0.0447
859.00,0.0387
856.00,0.0432
853.00,0.0528
850.00,0.0623
847.00,0.0620
844.00,0.0528
841.00,0.0480
838.00,0.0518
835.00,0.0624
832.00,0.0641
829.00,0.0529
826.00,0.0407
823.00,0.0475
820.00,0.0712
817.00,0.0797
814.00,0.0744
811.00,0.0447
808.00,0.0328
805.00,0.0285
802.00,0.0267
799.00,0.0259
796.00,0.0254
793.00,0.0253
790.00,0.0251
787.00,0.0250
784.00,0.0252
781.00,0.0257
778.00,0.0276
775.00,0.0328
772.00,0.0320
769.00,0.0293
766.00,0.0293
763.00,0.0309
760.00,0.0339
757.00,0.0347
754.00,0.0340
751.00,0.0346
748.00,0.0359
745.00,0.0377
742.00,0.0406
739.00,0.0469
736.00,0.0598
733.00,0.0626
730.00,0.0596
727.00,0.0576
724.00,0.0481
721.00,0.0433
718.00,0.0450
715.00,0.0490
712.00,0.0478
709.00,0.0449
706.00,0.0444
703.00,0.0464
700.00,0.0496
697.00,0.0512
694.00,0.0496
691.00,0.0510
688.00,0.0559
685.00,0.0542
682.00,0.0526
679.00,0.0543
676.00,0.0582
673.00,0.0639
670.00,0.0673
667.00,0.0663
664.00,0.0673
661.00,0.0703
658.00,0.0688
655.00,0.0669
652.00,0.0671
649.00,0.0675
646.00,0.0673
643.00,0.0663
640.00,0.0649
637.00,0.0635
634.00,0.0624
631.00,0.0617
628.00,0.0620
625.00,0.0637
622.00,0.0668
619.00,0.0685
616.00,0.0651
613.00,0.0610
610.00,0.0612
607.00,0.0679
604.00,0.0765
601.00,0.0803
598.00,0.0802
595.00,0.0797
592.00,0.0793
589.00,0.0782
586.00,0.0783
583.00,0.0801
580.00,0.0840
577.00,0.0919
574.00,0.0911
571.00,0.0845
568.00,0.0809
565.00,0.0819
562.00,0.0859
559.00,0.0886
556.00,0.0844
553.00,0.0804
550.00,0.0826
547.00,0.0887
544.00,0.0882
541.00,0.0828
538.00,0.0789
535.00,0.0798
532.00,0.0853
529.00,0.0850
526.00,0.0788
523.00,0.0734
520.00,0.0711
517.00,0.0696
514.00,0.0689
511.00,0.0692
508.00,0.0710
505.00,0.0716
502.00,0.0697
499.00,0.0676
496.00,0.0680
493.00,0.0708
490.00,0.0710
487.00,0.0695
484.00,0.0682
481.00,0.0679
478.00,0.0674
475.00,0.0675
472.00,0.0673
469.00,0.0677
466.00,0.0664
463.00,0.0653
460.00,0.0664
457.00,0.0668
454.00,0.0650
451.00,0.0638
448.00,0.0624
445.00,0.0618
442.00,0.0623
439.00,0.0615
436.00,0.0598
433.00,0.0589
430.00,0.0575
427.00,0.0562
424.00,0.0552
421.00,0.0557
418.00,0.0559
415.00,0.0557
412.00,0.0590
409.00,0.0608
406.00,0.0577
403.00,0.0547
400.00,0.0537