File: FTIR/Olivia/2025_07_26_Polystyrene_Std_scan3.csv
Created as New Dataset,Sample 919 By YargerLab Date Saturday, July 26 2025
cm-1,A
4000.00,0.0007
3997.00,0.0007
3994.00,0.0007
3991.00,0.0007
3988.00,0.0007
3985.00,0.0007
3982.00,0.0007
3979.00,0.0007
3976.00,0.0007
3973.00,0.0007
3970.00,0.0007
3967.00,0.0007
3964.00,0.0007
3961.00,0.0007
3958.00,0.0007
3955.00,0.0006
3952.00,0.0007
3949.00,0.0007
3946.00,0.0007
3943.00,0.0007
3940.00,0.0007
3937.00,0.0007
3934.00,0.0007
3931.00,0.0007
3928.00,0.0007
3925.00,0.0007
3922.00,0.0007
3919.00,0.0006
3916.00,0.0007
3913.00,0.0007
3910.00,0.0007
3907.00,0.0007
3904.00,0.0006
3901.00,0.0006
3898.00,0.0006
3895.00,0.0006
3892.00,0.0007
3889.00,0.0006
3886.00,0.0005
3883.00,0.0006
3880.00,0.0006
3877.00,0.0006
3874.00,0.0006
3871.00,0.0006
3868.00,0.0006
3865.00,0.0005
3862.00,0.0006
3859.00,0.0006
3856.00,0.0007
3853.00,0.0006
3850.00,0.0005
3847.00,0.0007
3844.00,0.0006
3841.00,0.0006
3838.00,0.0006
3835.00,0.0006
3832.00,0.0006
3829.00,0.0006
3826.00,0.0006
3823.00,0.0007
3820.00,0.0007
3817.00,0.0007
3814.00,0.0007
3811.00,0.0007
3808.00,0.0007
3805.00,0.0007
3802.00,0.0007
3799.00,0.0007
3796.00,0.0007
3793.00,0.0007
3790.00,0.0008
3787.00,0.0008
3784.00,0.0008
3781.00,0.0008
3778.00,0.0008
3775.00,0.0008
3772.00,0.0007
3769.00,0.0008
3766.00,0.0007
3763.00,0.0007
3760.00,0.0007
3757.00,0.0006
3754.00,0.0007
3751.00,0.0007
3748.00,0.0007
3745.00,0.0006
3742.00,0.0006
3739.00,0.0005
3736.00,0.0005
3733.00,0.0006
3730.00,0.0006
3727.00,0.0006
3724.00,0.0006
3721.00,0.0007
3718.00,0.0006
3715.00,0.0006
3712.00,0.0006
3709.00,0.0006
3706.00,0.0006
3703.00,0.0006
3700.00,0.0006
3697.00,0.0006
3694.00,0.0006
3691.00,0.0006
3688.00,0.0006
3685.00,0.0005
3682.00,0.0006
3679.00,0.0006
3676.00,0.0005
3673.00,0.0005
3670.00,0.0004
3667.00,0.0005
3664.00,0.0005
3661.00,0.0005
3658.00,0.0006
3655.00,0.0006
3652.00,0.0005
3649.00,0.0005
3646.00,0.0005
3643.00,0.0006
3640.00,0.0006
3637.00,0.0006
3634.00,0.0006
3631.00,0.0007
3628.00,0.0006
3625.00,0.0005
3622.00,0.0006
3619.00,0.0007
3616.00,0.0006
3613.00,0.0006
3610.00,0.0005
3607.00,0.0006
3604.00,0.0006
3601.00,0.0006
3598.00,0.0006
3595.00,0.0006
3592.00,0.0006
3589.00,0.0006
3586.00,0.0006
3583.00,0.0006
3580.00,0.0006
3577.00,0.0006
3574.00,0.0007
3571.00,0.0007
3568.00,0.0006
3565.00,0.0006
3562.00,0.0007
3559.00,0.0008
3556.00,0.0008
3553.00,0.0008
3550.00,0.0008
3547.00,0.0008
3544.00,0.0008
3541.00,0.0008
3538.00,0.0008
3535.00,0.0009
3532.00,0.0008
3529.00,0.0008
3526.00,0.0008
3523.00,0.0009
3520.00,0.0009
3517.00,0.0009
3514.00,0.0010
3511.00,0.0010
3508.00,0.0010
3505.00,0.0009
3502.00,0.0009
3499.00,0.0010
3496.00,0.0010
3493.00,0.0010
3490.00,0.0010
3487.00,0.0010
3484.00,0.0010
3481.00,0.0010
3478.00,0.0010
3475.00,0.0010
3472.00,0.0011
3469.00,0.0011
3466.00,0.0012
3463.00,0.0011
3460.00,0.0011
3457.00,0.0011
3454.00,0.0011
3451.00,0.0011
3448.00,0.0011
3445.00,0.0011
3442.00,0.0011
3439.00,0.0012
3436.00,0.0012
3433.00,0.0012
3430.00,0.0012
3427.00,0.0011
3424.00,0.0010
3421.00,0.0011
3418.00,0.0011
3415.00,0.0011
3412.00,0.0011
3409.00,0.0011
3406.00,0.0011
3403.00,0.0011
3400.00,0.0011
3397.00,0.0011
3394.00,0.0011
3391.00,0.0011
3388.00,0.0011
3385.00,0.0011
3382.00,0.0011
3379.00,0.0011
3376.00,0.0011
3373.00,0.0011
3370.00,0.0011
3367.00,0.0011
3364.00,0.0011
3361.00,0.0011
3358.00,0.0011
3355.00,0.0011
3352.00,0.0011
3349.00,0.0011
3346.00,0.0011
3343.00,0.0011
3340.00,0.0011
3337.00,0.0011
3334.00,0.0011
3331.00,0.0011
3328.00,0.0012
3325.00,0.0012
3322.00,0.0011
3319.00,0.0011
3316.00,0.0011
3313.00,0.0011
3310.00,0.0011
3307.00,0.0011
3304.00,0.0011
3301.00,0.0012
3298.00,0.0012
3295.00,0.0011
3292.00,0.0011
3289.00,0.0011
3286.00,0.0011
3283.00,0.0011
3280.00,0.0011
3277.00,0.0011
3274.00,0.0011
3271.00,0.0011
3268.00,0.0011
3265.00,0.0011
3262.00,0.0010
3259.00,0.0010
3256.00,0.0010
3253.00,0.0010
3250.00,0.0010
3247.00,0.0010
3244.00,0.0010
3241.00,0.0010
3238.00,0.0010
3235.00,0.0010
3232.00,0.0010
3229.00,0.0010
3226.00,0.0010
3223.00,0.0010
3220.00,0.0010
3217.00,0.0010
3214.00,0.0010
3211.00,0.0011
3208.00,0.0011
3205.00,0.0011
3202.00,0.0011
3199.00,0.0011
3196.00,0.0010
3193.00,0.0010
3190.00,0.0010
3187.00,0.0010
3184.00,0.0010
3181.00,0.0010
3178.00,0.0010
3175.00,0.0010
3172.00,0.0010
3169.00,0.0011
3166.00,0.0011
3163.00,0.0011
3160.00,0.0012
3157.00,0.0011
3154.00,0.0010
3151.00,0.0010
3148.00,0.0010
3145.00,0.0010
3142.00,0.0010
3139.00,0.0010
3136.00,0.0010
3133.00,0.0010
3130.00,0.0010
3127.00,0.0010
3124.00,0.0011
3121.00,0.0012
3118.00,0.0013
3115.00,0.0016
3112.00,0.0019
3109.00,0.0025
3106.00,0.0032
3103.00,0.0034
3100.00,0.0033
3097.00,0.0032
3094.00,0.0035
3091.00,0.0044
3088.00,0.0062
3085.00,0.0081
3082.00,0.0089
3079.00,0.0080
3076.00,0.0068
3073.00,0.0065
3070.00,0.0071
3067.00,0.0085
3064.00,0.0107
3061.00,0.0123
3058.00,0.0120
3055.00,0.0102
3052.00,0.0081
3049.00,0.0068
3046.00,0.0062
3043.00,0.0065
3040.00,0.0074
3037.00,0.0093
3034.00,0.0125
3031.00,0.0172
3028.00,0.0222
3025.00,0.0240
3022.00,0.0206
3019.00,0.0145
3016.00,0.0097
3013.00,0.0070
3010.00,0.0058
3007.00,0.0057
3004.00,0.0062
3001.00,0.0063
2998.00,0.0053
2995.00,0.0040
2992.00,0.0031
2989.00,0.0028
2986.00,0.0026
2983.00,0.0024
2980.00,0.0024
2977.00,0.0028
2974.00,0.0030
2971.00,0.0032
2968.00,0.0037
2965.00,0.0042
2962.00,0.0048
2959.00,0.0055
2956.00,0.0063
2953.00,0.0073
2950.00,0.0086
2947.00,0.0102
2944.00,0.0121
2941.00,0.0144
2938.00,0.0171
2935.00,0.0201
2932.00,0.0233
2929.00,0.0261
2926.00,0.0281
2923.00,0.0291
2920.00,0.0289
2917.00,0.0279
2914.00,0.0262
2911.00,0.0241
2908.00,0.0219
2905.00,0.0197
2902.00,0.0174
2899.00,0.0152
2896.00,0.0133
2893.00,0.0118
2890.00,0.0108
2887.00,0.0099
2884.00,0.0092
2881.00,0.0085
2878.00,0.0079
2875.00,0.0075
2872.00,0.0071
2869.00,0.0070
2866.00,0.0073
2863.00,0.0079
2860.00,0.0091
2857.00,0.0104
2854.00,0.0116
2851.00,0.0125
2848.00,0.0124
2845.00,0.0113
2842.00,0.0093
2839.00,0.0070
2836.00,0.0052
2833.00,0.0040
2830.00,0.0032
2827.00,0.0029
2824.00,0.0027
2821.00,0.0025
2818.00,0.0024
2815.00,0.0023
2812.00,0.0023
2809.00,0.0022
2806.00,0.0021
2803.00,0.0020
2800.00,0.0020
2797.00,0.0019
2794.00,0.0018
2791.00,0.0018
2788.00,0.0017
2785.00,0.0017
2782.00,0.0017
2779.00,0.0017
2776.00,0.0017
2773.00,0.0016
2770.00,0.0015
2767.00,0.0015
2764.00,0.0014
2761.00,0.0014
2758.00,0.0014
2755.00,0.0014
2752.00,0.0014
2749.00,0.0014
2746.00,0.0014
2743.00,0.0014
2740.00,0.0014
2737.00,0.0014
2734.00,0.0014
2731.00,0.0014
2728.00,0.0014
2725.00,0.0014
2722.00,0.0014
2719.00,0.0014
2716.00,0.0014
2713.00,0.0014
2710.00,0.0014
2707.00,0.0014
2704.00,0.0014
2701.00,0.0014
2698.00,0.0014
2695.00,0.0014
2692.00,0.0014
2689.00,0.0014
2686.00,0.0014
2683.00,0.0013
2680.00,0.0013
2677.00,0.0013
2674.00,0.0014
2671.00,0.0014
2668.00,0.0014
2665.00,0.0015
2662.00,0.0016
2659.00,0.0018
2656.00,0.0018
2653.00,0.0019
2650.00,0.0019
2647.00,0.0018
2644.00,0.0018
2641.00,0.0018
2638.00,0.0019
2635.00,0.0020
2632.00,0.0020
2629.00,0.0019
2626.00,0.0018
2623.00,0.0018
2620.00,0.0017
2617.00,0.0017
2614.00,0.0016
2611.00,0.0016
2608.00,0.0017
2605.00,0.0017
2602.00,0.0017
2599.00,0.0016
2596.00,0.0015
2593.00,0.0014
2590.00,0.0014
2587.00,0.0014
2584.00,0.0014
2581.00,0.0014
2578.00,0.0014
2575.00,0.0013
2572.00,0.0013
2569.00,0.0012
2566.00,0.0012
2563.00,0.0011
2560.00,0.0011
2557.00,0.0011
2554.00,0.0011
2551.00,0.0011
2548.00,0.0011
2545.00,0.0011
2542.00,0.0010
2539.00,0.0010
2536.00,0.0010
2533.00,0.0009
2530.00,0.0010
2527.00,0.0010
2524.00,0.0010
2521.00,0.0010
2518.00,0.0010
2515.00,0.0010
2512.00,0.0010
2509.00,0.0010
2506.00,0.0010
2503.00,0.0010
2500.00,0.0009
2497.00,0.0009
2494.00,0.0010
2491.00,0.0010
2488.00,0.0009
2485.00,0.0008
2482.00,0.0009
2479.00,0.0008
2476.00,0.0008
2473.00,0.0008
2470.00,0.0008
2467.00,0.0008
2464.00,0.0008
2461.00,0.0008
2458.00,0.0009
2455.00,0.0009
2452.00,0.0009
2449.00,0.0008
2446.00,0.0008
2443.00,0.0007
2440.00,0.0007
2437.00,0.0007
2434.00,0.0006
2431.00,0.0006
2428.00,0.0006
2425.00,0.0005
2422.00,0.0005
2419.00,0.0005
2416.00,0.0005
2413.00,0.0005
2410.00,0.0004
2407.00,0.0003
2404.00,0.0004
2401.00,0.0004
2398.00,0.0004
2395.00,0.0004
2392.00,0.0004
2389.00,0.0003
2386.00,0.0004
2383.00,0.0003
2380.00,0.0003
2377.00,0.0003
2374.00,0.0003
2371.00,0.0002
2368.00,0.0002
2365.00,0.0003
2362.00,0.0005
2359.00,0.0005
2356.00,0.0006
2353.00,0.0006
2350.00,0.0007
2347.00,0.0008
2344.00,0.0009
2341.00,0.0010
2338.00,0.0011
2335.00,0.0011
2332.00,0.0010
2329.00,0.0013
2326.00,0.0024
2323.00,0.0022
2320.00,0.0017
2317.00,0.0016
2314.00,0.0016
2311.00,0.0015
2308.00,0.0014
2305.00,0.0014
2302.00,0.0013
2299.00,0.0012
2296.00,0.0014
2293.00,0.0016
2290.00,0.0018
2287.00,0.0018
2284.00,0.0017
2281.00,0.0014
2278.00,0.0013
2275.00,0.0013
2272.00,0.0012
2269.00,0.0010
2266.00,0.0009
2263.00,0.0009
2260.00,0.0010
2257.00,0.0010
2254.00,0.0008
2251.00,0.0008
2248.00,0.0008
2245.00,0.0008
2242.00,0.0006
2239.00,0.0008
2236.00,0.0008
2233.00,0.0009
2230.00,0.0008
2227.00,0.0007
2224.00,0.0006
2221.00,0.0007
2218.00,0.0006
2215.00,0.0005
2212.00,0.0005
2209.00,0.0006
2206.00,0.0006
2203.00,0.0005
2200.00,0.0005
2197.00,0.0006
2194.00,0.0009
2191.00,0.0011
2188.00,0.0010
2185.00,0.0009
2182.00,0.0001
2179.00,0.0000
2176.00,-0.0001
2173.00,0.0002
2170.00,0.0010
2167.00,0.0016
2164.00,0.0019
2161.00,0.0004
2158.00,-0.0028
2155.00,-0.0020
2152.00,-0.0015
2149.00,-0.0016
2146.00,-0.0017
2143.00,-0.0016
2140.00,-0.0015
2137.00,-0.0019
2134.00,-0.0022
2131.00,-0.0014
2128.00,-0.0010
2125.00,-0.0006
2122.00,-0.0005
2119.00,-0.0003
2116.00,0.0002
2113.00,0.0003
2110.00,0.0002
2107.00,0.0002
2104.00,0.0002
2101.00,0.0001
2098.00,-0.0001
2095.00,-0.0005
2092.00,-0.0002
2089.00,0.0001
2086.00,0.0002
2083.00,0.0003
2080.00,0.0005
2077.00,0.0003
2074.00,0.0001
2071.00,0.0003
2068.00,0.0001
2065.00,0.0000
2062.00,-0.0000
2059.00,-0.0000
2056.00,-0.0001
2053.00,0.0005
2050.00,0.0005
2047.00,0.0002
2044.00,0.0003
2041.00,0.0004
2038.00,0.0003
2035.00,-0.0001
2032.00,-0.0002
2029.00,-0.0006
2026.00,-0.0004
2023.00,-0.0003
2020.00,-0.0005
2017.00,-0.0004
2014.00,-0.0004
2011.00,-0.0004
2008.00,-0.0007
2005.00,-0.0012
2002.00,-0.0005
1999.00,-0.0002
1996.00,0.0000
1993.00,0.0003
1990.00,0.0005
1987.00,0.0007
1984.00,0.0012
1981.00,0.0018
1978.00,0.0004
1975.00,-0.0002
1972.00,-0.0004
1969.00,-0.0005
1966.00,0.0004
1963.00,0.0009
1960.00,0.0007
1957.00,0.0011
1954.00,0.0017
1951.00,0.0020
1948.00,0.0022
1945.00,0.0027
1942.00,0.0029
1939.00,0.0023
1936.00,0.0017
1933.00,0.0011
1930.00,0.0008
1927.00,0.0003
1924.00,0.0003
1921.00,0.0004
1918.00,0.0001
1915.00,0.0001
1912.00,0.0001
1909.00,0.0001
1906.00,0.0001
1903.00,0.0003
1900.00,0.0004
1897.00,0.0006
1894.00,0.0009
1891.00,0.0012
1888.00,0.0015
1885.00,0.0018
1882.00,0.0020
1879.00,0.0022
1876.00,0.0024
1873.00,0.0024
1870.00,0.0025
1867.00,0.0024
1864.00,0.0021
1861.00,0.0017
1858.00,0.0013
1855.00,0.0009
1852.00,0.0007
1849.00,0.0005
1846.00,0.0004
1843.00,0.0004
1840.00,0.0004
1837.00,0.0004
1834.00,0.0004
1831.00,0.0006
1828.00,0.0008
1825.00,0.0011
1822.00,0.0014
1819.00,0.0014
1816.00,0.0016
1813.00,0.0020
1810.00,0.0025
1807.00,0.0028
1804.00,0.0031
1801.00,0.0031
1798.00,0.0029
1795.00,0.0025
1792.00,0.0020
1789.00,0.0017
1786.00,0.0015
1783.00,0.0015
1780.00,0.0015
1777.00,0.0016
1774.00,0.0017
1771.00,0.0017
1768.00,0.0017
1765.00,0.0019
1762.00,0.0021
1759.00,0.0024
1756.00,0.0028
1753.00,0.0033
1750.00,0.0036
1747.00,0.0040
1744.00,0.0043
1741.00,0.0045
1738.00,0.0045
1735.00,0.0044
1732.00,0.0042
1729.00,0.0039
1726.00,0.0036
1723.00,0.0034
1720.00,0.0032
1717.00,0.0029
1714.00,0.0028
1711.00,0.0027
1708.00,0.0026
1705.00,0.0026
1702.00,0.0025
1699.00,0.0024
1696.00,0.0024
1693.00,0.0023
1690.00,0.0024
1687.00,0.0026
1684.00,0.0027
1681.00,0.0027
1678.00,0.0028
1675.00,0.0029
1672.00,0.0029
1669.00,0.0029
1666.00,0.0029
1663.00,0.0028
1660.00,0.0026
1657.00,0.0025
1654.00,0.0024
1651.00,0.0023
1648.00,0.0021
1645.00,0.0021
1642.00,0.0020
1639.00,0.0019
1636.00,0.0019
1633.00,0.0019
1630.00,0.0020
1627.00,0.0021
1624.00,0.0022
1621.00,0.0023
1618.00,0.0026
1615.00,0.0031
1612.00,0.0041
1609.00,0.0068
1606.00,0.0126
1603.00,0.0197
1600.00,0.0209
1597.00,0.0148
1594.00,0.0094
1591.00,0.0067
1588.00,0.0062
1585.00,0.0081
1582.00,0.0084
1579.00,0.0055
1576.00,0.0036
1573.00,0.0026
1570.00,0.0022
1567.00,0.0019
1564.00,0.0018
1561.00,0.0018
1558.00,0.0019
1555.00,0.0021
1552.00,0.0023
1549.00,0.0026
1546.00,0.0028
1543.00,0.0029
1540.00,0.0028
1537.00,0.0027
1534.00,0.0023
1531.00,0.0020
1528.00,0.0018
1525.00,0.0017
1522.00,0.0017
1519.00,0.0017
1516.00,0.0018
1513.00,0.0020
1510.00,0.0023
1507.00,0.0028
1504.00,0.0042
1501.00,0.0069
1498.00,0.0162
1495.00,0.0401
1492.00,0.0513
1489.00,0.0312
1486.00,0.0161
1483.00,0.0096
1480.00,0.0065
1477.00,0.0053
1474.00,0.0047
1471.00,0.0047
1468.00,0.0052
1465.00,0.0059
1462.00,0.0074
1459.00,0.0116
1456.00,0.0298
1453.00,0.0502
1450.00,0.0494
1447.00,0.0375
1444.00,0.0293
1441.00,0.0226
1438.00,0.0175
1435.00,0.0124
1432.00,0.0091
1429.00,0.0068
1426.00,0.0056
1423.00,0.0050
1420.00,0.0046
1417.00,0.0043
1414.00,0.0042
1411.00,0.0040
1408.00,0.0039
1405.00,0.0039
1402.00,0.0039
1399.00,0.0039
1396.00,0.0041
1393.00,0.0048
1390.00,0.0058
1387.00,0.0069
1384.00,0.0080
1381.00,0.0090
1378.00,0.0100
1375.00,0.0109
1372.00,0.0112
1369.00,0.0112
1366.00,0.0109
1363.00,0.0106
1360.00,0.0102
1357.00,0.0098
1354.00,0.0094
1351.00,0.0093
1348.00,0.0092
1345.00,0.0088
1342.00,0.0083
1339.00,0.0079
1336.00,0.0080
1333.00,0.0087
1330.00,0.0093
1327.00,0.0093
1324.00,0.0089
1321.00,0.0086
1318.00,0.0087
1315.00,0.0090
1312.00,0.0091
1309.00,0.0088
1306.00,0.0083
1303.00,0.0078
1300.00,0.0075
1297.00,0.0072
1294.00,0.0070
1291.00,0.0069
1288.00,0.0066
1285.00,0.0065
1282.00,0.0065
1279.00,0.0063
1276.00,0.0059
1273.00,0.0055
1270.00,0.0052
1267.00,0.0049
1264.00,0.0047
1261.00,0.0046
1258.00,0.0046
1255.00,0.0046
1252.00,0.0047
1249.00,0.0048
1246.00,0.0048
1243.00,0.0048
1240.00,0.0047
1237.00,0.0047
1234.00,0.0047
1231.00,0.0047
1228.00,0.0048
1225.00,0.0048
1222.00,0.0048
1219.00,0.0048
1216.00,0.0049
1213.00,0.0051
1210.00,0.0054
1207.00,0.0058
1204.00,0.0064
1201.00,0.0070
1198.00,0.0074
1195.00,0.0076
1192.00,0.0078
1189.00,0.0080
1186.00,0.0089
1183.00,0.0104
1180.00,0.0106
1177.00,0.0086
1174.00,0.0069
1171.00,0.0062
1168.00,0.0060
1165.00,0.0062
1162.00,0.0066
1159.00,0.0082
1156.00,0.0103
1153.00,0.0102
1150.00,0.0077
1147.00,0.0058
1144.00,0.0049
1141.00,0.0043
1138.00,0.0041
1135.00,0.0039
1132.00,0.0040
1129.00,0.0040
1126.00,0.0041
1123.00,0.0042
1120.00,0.0046
1117.00,0.0051
1114.00,0.0056
1111.00,0.0056
1108.00,0.0056
1105.00,0.0056
1102.00,0.0056
1099.00,0.0059
1096.00,0.0061
1093.00,0.0063
1090.00,0.0066
1087.00,0.0072
1084.00,0.0081
1081.00,0.0090
1078.00,0.0102
1075.00,0.0117
1072.00,0.0134
1069.00,0.0143
1066.00,0.0136
1063.00,0.0119
1060.00,0.0103
1057.00,0.0092
1054.00,0.0083
1051.00,0.0077
1048.00,0.0073
1045.00,0.0069
1042.00,0.0070
1039.00,0.0078
1036.00,0.0107
1033.00,0.0170
1030.00,0.0234
1027.00,0.0246
1024.00,0.0200
1021.00,0.0156
1018.00,0.0129
1015.00,0.0112
1012.00,0.0100
1009.00,0.0095
1006.00,0.0098
1003.00,0.0103
1000.00,0.0088
997.00,0.0074
994.00,0.0070
991.00,0.0071
988.00,0.0075
985.00,0.0082
982.00,0.0089
979.00,0.0091
976.00,0.0085
973.00,0.0080
970.00,0.0084
967.00,0.0093
964.00,0.0098
961.00,0.0091
958.00,0.0078
955.00,0.0069
952.00,0.0068
949.00,0.0071
946.00,0.0075
943.00,0.0076
940.00,0.0073
937.00,0.0065
934.00,0.0057
931.00,0.0052
928.00,0.0050
925.00,0.0052
922.00,0.0057
919.00,0.0065
916.00,0.0081
913.00,0.0108
910.00,0.0141
907.00,0.0162
904.00,0.0152
901.00,0.0118
898.00,0.0083
895.00,0.0062
892.00,0.0053
889.00,0.0047
886.00,0.0043
883.00,0.0039
880.00,0.0038
877.00,0.0036
874.00,0.0035
871.00,0.0033
868.00,0.0033
865.00,0.0031
862.00,0.0031
859.00,0.0032
856.00,0.0034
853.00,0.0039
850.00,0.0048
847.00,0.0064
844.00,0.0076
841.00,0.0079
838.00,0.0070
835.00,0.0053
832.00,0.0040
829.00,0.0032
826.00,0.0030
823.00,0.0029
820.00,0.0029
817.00,0.0030
814.00,0.0031
811.00,0.0032
808.00,0.0034
805.00,0.0035
802.00,0.0037
799.00,0.0041
796.00,0.0048
793.00,0.0058
790.00,0.0071
787.00,0.0088
784.00,0.0108
781.00,0.0134
778.00,0.0173
775.00,0.0228
772.00,0.0298
769.00,0.0380
766.00,0.0462
763.00,0.0539
760.00,0.0617
757.00,0.0675
754.00,0.0691
751.00,0.0684
748.00,0.0675
745.00,0.0617
742.00,0.0490
739.00,0.0362
736.00,0.0259
733.00,0.0171
730.00,0.0113
727.00,0.0085
724.00,0.0074
721.00,0.0073
718.00,0.0080
715.00,0.0099
712.00,0.0153
709.00,0.0286
706.00,0.0532
703.00,0.0885
700.00,0.1304
697.00,0.1703
694.00,0.1762
691.00,0.1285
688.00,0.0819
685.00,0.0572
682.00,0.0440
679.00,0.0360
676.00,0.0308
673.00,0.0273
670.00,0.0250
667.00,0.0221
664.00,0.0195
661.00,0.0172
658.00,0.0151
655.00,0.0134
652.00,0.0119
649.00,0.0109
646.00,0.0101
643.00,0.0096
640.00,0.0096
637.00,0.0102
634.00,0.0110
631.00,0.0119
628.00,0.0125
625.00,0.0130
622.00,0.0137
619.00,0.0133
616.00,0.0119
613.00,0.0112
610.00,0.0109
607.00,0.0106
604.00,0.0107
601.00,0.0108
598.00,0.0112
595.00,0.0116
592.00,0.0121
589.00,0.0126
586.00,0.0133
583.00,0.0143
580.00,0.0158
577.00,0.0180
574.00,0.0207
571.00,0.0238
568.00,0.0264
565.00,0.0285
562.00,0.0310
559.00,0.0340
556.00,0.0364
553.00,0.0395
550.00,0.0434
547.00,0.0482
544.00,0.0539
541.00,0.0593
538.00,0.0614
535.00,0.0573
532.00,0.0491
529.00,0.0403
526.00,0.0325
523.00,0.0267
520.00,0.0231
517.00,0.0208
514.00,0.0189
511.00,0.0171
508.00,0.0154
505.00,0.0139
502.00,0.0125
499.00,0.0117
496.00,0.0111
493.00,0.0103
490.00,0.0101
487.00,0.0091
484.00,0.0083
481.00,0.0084
478.00,0.0085
475.00,0.0086
472.00,0.0077
469.00,0.0075
466.00,0.0076
463.00,0.0079
460.00,0.0071
457.00,0.0075
454.00,0.0077
451.00,0.0072
448.00,0.0067
445.00,0.0067
442.00,0.0067
439.00,0.0067
436.00,0.0070
433.00,0.0058
430.00,0.0058
427.00,0.0062
424.00,0.0064
421.00,0.0051
418.00,0.0031
415.00,0.0047
412.00,0.0061
409.00,0.0068
406.00,0.0080
403.00,0.0072
400.00,0.0060