File: FTIR/Olivia/2025_08_04_1CBN_3PVP40kDa_MortPest_powder_scan2.csv
Created as New Dataset,Sample 1049 By YargerLab Date Monday, August 04 2025
cm-1,A
4000.00,0.0047
3997.00,0.0046
3994.00,0.0046
3991.00,0.0046
3988.00,0.0047
3985.00,0.0047
3982.00,0.0047
3979.00,0.0046
3976.00,0.0047
3973.00,0.0047
3970.00,0.0047
3967.00,0.0047
3964.00,0.0047
3961.00,0.0047
3958.00,0.0047
3955.00,0.0046
3952.00,0.0046
3949.00,0.0046
3946.00,0.0046
3943.00,0.0046
3940.00,0.0046
3937.00,0.0046
3934.00,0.0046
3931.00,0.0046
3928.00,0.0046
3925.00,0.0046
3922.00,0.0046
3919.00,0.0046
3916.00,0.0046
3913.00,0.0046
3910.00,0.0046
3907.00,0.0045
3904.00,0.0044
3901.00,0.0045
3898.00,0.0045
3895.00,0.0045
3892.00,0.0046
3889.00,0.0046
3886.00,0.0045
3883.00,0.0045
3880.00,0.0045
3877.00,0.0045
3874.00,0.0045
3871.00,0.0044
3868.00,0.0045
3865.00,0.0045
3862.00,0.0045
3859.00,0.0045
3856.00,0.0044
3853.00,0.0044
3850.00,0.0045
3847.00,0.0046
3844.00,0.0046
3841.00,0.0045
3838.00,0.0045
3835.00,0.0045
3832.00,0.0045
3829.00,0.0045
3826.00,0.0046
3823.00,0.0045
3820.00,0.0045
3817.00,0.0045
3814.00,0.0045
3811.00,0.0045
3808.00,0.0046
3805.00,0.0045
3802.00,0.0045
3799.00,0.0045
3796.00,0.0045
3793.00,0.0046
3790.00,0.0046
3787.00,0.0046
3784.00,0.0046
3781.00,0.0046
3778.00,0.0046
3775.00,0.0046
3772.00,0.0046
3769.00,0.0046
3766.00,0.0046
3763.00,0.0046
3760.00,0.0045
3757.00,0.0046
3754.00,0.0045
3751.00,0.0044
3748.00,0.0043
3745.00,0.0043
3742.00,0.0044
3739.00,0.0045
3736.00,0.0044
3733.00,0.0044
3730.00,0.0044
3727.00,0.0044
3724.00,0.0044
3721.00,0.0045
3718.00,0.0044
3715.00,0.0044
3712.00,0.0044
3709.00,0.0044
3706.00,0.0044
3703.00,0.0045
3700.00,0.0045
3697.00,0.0044
3694.00,0.0044
3691.00,0.0044
3688.00,0.0044
3685.00,0.0044
3682.00,0.0046
3679.00,0.0046
3676.00,0.0044
3673.00,0.0044
3670.00,0.0045
3667.00,0.0046
3664.00,0.0046
3661.00,0.0047
3658.00,0.0046
3655.00,0.0046
3652.00,0.0046
3649.00,0.0048
3646.00,0.0048
3643.00,0.0049
3640.00,0.0050
3637.00,0.0051
3634.00,0.0052
3631.00,0.0052
3628.00,0.0052
3625.00,0.0053
3622.00,0.0055
3619.00,0.0055
3616.00,0.0056
3613.00,0.0058
3610.00,0.0058
3607.00,0.0059
3604.00,0.0060
3601.00,0.0062
3598.00,0.0064
3595.00,0.0064
3592.00,0.0065
3589.00,0.0067
3586.00,0.0068
3583.00,0.0070
3580.00,0.0072
3577.00,0.0074
3574.00,0.0075
3571.00,0.0076
3568.00,0.0077
3565.00,0.0078
3562.00,0.0080
3559.00,0.0083
3556.00,0.0085
3553.00,0.0086
3550.00,0.0087
3547.00,0.0089
3544.00,0.0091
3541.00,0.0093
3538.00,0.0095
3535.00,0.0096
3532.00,0.0097
3529.00,0.0098
3526.00,0.0100
3523.00,0.0101
3520.00,0.0102
3517.00,0.0104
3514.00,0.0105
3511.00,0.0106
3508.00,0.0107
3505.00,0.0108
3502.00,0.0109
3499.00,0.0110
3496.00,0.0112
3493.00,0.0113
3490.00,0.0114
3487.00,0.0116
3484.00,0.0117
3481.00,0.0118
3478.00,0.0120
3475.00,0.0121
3472.00,0.0123
3469.00,0.0125
3466.00,0.0126
3463.00,0.0127
3460.00,0.0129
3457.00,0.0131
3454.00,0.0132
3451.00,0.0134
3448.00,0.0136
3445.00,0.0137
3442.00,0.0139
3439.00,0.0141
3436.00,0.0144
3433.00,0.0146
3430.00,0.0147
3427.00,0.0150
3424.00,0.0153
3421.00,0.0156
3418.00,0.0158
3415.00,0.0161
3412.00,0.0163
3409.00,0.0165
3406.00,0.0166
3403.00,0.0167
3400.00,0.0166
3397.00,0.0166
3394.00,0.0165
3391.00,0.0164
3388.00,0.0163
3385.00,0.0161
3382.00,0.0159
3379.00,0.0157
3376.00,0.0154
3373.00,0.0153
3370.00,0.0151
3367.00,0.0149
3364.00,0.0147
3361.00,0.0146
3358.00,0.0144
3355.00,0.0142
3352.00,0.0140
3349.00,0.0139
3346.00,0.0139
3343.00,0.0138
3340.00,0.0137
3337.00,0.0137
3334.00,0.0136
3331.00,0.0136
3328.00,0.0136
3325.00,0.0136
3322.00,0.0136
3319.00,0.0136
3316.00,0.0136
3313.00,0.0136
3310.00,0.0136
3307.00,0.0136
3304.00,0.0137
3301.00,0.0138
3298.00,0.0139
3295.00,0.0139
3292.00,0.0140
3289.00,0.0141
3286.00,0.0142
3283.00,0.0142
3280.00,0.0143
3277.00,0.0144
3274.00,0.0144
3271.00,0.0144
3268.00,0.0145
3265.00,0.0146
3262.00,0.0146
3259.00,0.0147
3256.00,0.0147
3253.00,0.0147
3250.00,0.0148
3247.00,0.0148
3244.00,0.0148
3241.00,0.0148
3238.00,0.0148
3235.00,0.0147
3232.00,0.0147
3229.00,0.0145
3226.00,0.0144
3223.00,0.0143
3220.00,0.0142
3217.00,0.0141
3214.00,0.0139
3211.00,0.0138
3208.00,0.0135
3205.00,0.0133
3202.00,0.0132
3199.00,0.0130
3196.00,0.0128
3193.00,0.0125
3190.00,0.0123
3187.00,0.0122
3184.00,0.0120
3181.00,0.0117
3178.00,0.0115
3175.00,0.0113
3172.00,0.0111
3169.00,0.0109
3166.00,0.0107
3163.00,0.0105
3160.00,0.0103
3157.00,0.0102
3154.00,0.0099
3151.00,0.0097
3148.00,0.0096
3145.00,0.0094
3142.00,0.0093
3139.00,0.0091
3136.00,0.0090
3133.00,0.0089
3130.00,0.0087
3127.00,0.0087
3124.00,0.0085
3121.00,0.0084
3118.00,0.0084
3115.00,0.0082
3112.00,0.0081
3109.00,0.0080
3106.00,0.0078
3103.00,0.0077
3100.00,0.0077
3097.00,0.0076
3094.00,0.0076
3091.00,0.0076
3088.00,0.0076
3085.00,0.0076
3082.00,0.0076
3079.00,0.0075
3076.00,0.0075
3073.00,0.0074
3070.00,0.0073
3067.00,0.0073
3064.00,0.0073
3061.00,0.0072
3058.00,0.0073
3055.00,0.0073
3052.00,0.0072
3049.00,0.0072
3046.00,0.0071
3043.00,0.0071
3040.00,0.0071
3037.00,0.0072
3034.00,0.0073
3031.00,0.0073
3028.00,0.0073
3025.00,0.0072
3022.00,0.0071
3019.00,0.0070
3016.00,0.0069
3013.00,0.0070
3010.00,0.0070
3007.00,0.0071
3004.00,0.0074
3001.00,0.0078
2998.00,0.0083
2995.00,0.0089
2992.00,0.0095
2989.00,0.0100
2986.00,0.0105
2983.00,0.0110
2980.00,0.0121
2977.00,0.0129
2974.00,0.0134
2971.00,0.0145
2968.00,0.0155
2965.00,0.0162
2962.00,0.0170
2959.00,0.0175
2956.00,0.0171
2953.00,0.0162
2950.00,0.0155
2947.00,0.0153
2944.00,0.0156
2941.00,0.0161
2938.00,0.0171
2935.00,0.0188
2932.00,0.0208
2929.00,0.0227
2926.00,0.0235
2923.00,0.0228
2920.00,0.0212
2917.00,0.0197
2914.00,0.0182
2911.00,0.0171
2908.00,0.0162
2905.00,0.0154
2902.00,0.0147
2899.00,0.0143
2896.00,0.0139
2893.00,0.0136
2890.00,0.0133
2887.00,0.0131
2884.00,0.0129
2881.00,0.0129
2878.00,0.0133
2875.00,0.0140
2872.00,0.0144
2869.00,0.0143
2866.00,0.0141
2863.00,0.0147
2860.00,0.0160
2857.00,0.0173
2854.00,0.0174
2851.00,0.0165
2848.00,0.0148
2845.00,0.0130
2842.00,0.0116
2839.00,0.0106
2836.00,0.0099
2833.00,0.0094
2830.00,0.0090
2827.00,0.0086
2824.00,0.0084
2821.00,0.0081
2818.00,0.0079
2815.00,0.0077
2812.00,0.0075
2809.00,0.0074
2806.00,0.0073
2803.00,0.0073
2800.00,0.0072
2797.00,0.0071
2794.00,0.0070
2791.00,0.0069
2788.00,0.0068
2785.00,0.0068
2782.00,0.0067
2779.00,0.0067
2776.00,0.0066
2773.00,0.0066
2770.00,0.0066
2767.00,0.0065
2764.00,0.0065
2761.00,0.0065
2758.00,0.0065
2755.00,0.0065
2752.00,0.0065
2749.00,0.0065
2746.00,0.0065
2743.00,0.0066
2740.00,0.0066
2737.00,0.0066
2734.00,0.0067
2731.00,0.0067
2728.00,0.0067
2725.00,0.0067
2722.00,0.0066
2719.00,0.0066
2716.00,0.0066
2713.00,0.0065
2710.00,0.0065
2707.00,0.0065
2704.00,0.0064
2701.00,0.0064
2698.00,0.0064
2695.00,0.0064
2692.00,0.0064
2689.00,0.0064
2686.00,0.0063
2683.00,0.0063
2680.00,0.0063
2677.00,0.0063
2674.00,0.0062
2671.00,0.0063
2668.00,0.0063
2665.00,0.0064
2662.00,0.0065
2659.00,0.0066
2656.00,0.0066
2653.00,0.0067
2650.00,0.0067
2647.00,0.0067
2644.00,0.0067
2641.00,0.0067
2638.00,0.0066
2635.00,0.0066
2632.00,0.0065
2629.00,0.0064
2626.00,0.0064
2623.00,0.0063
2620.00,0.0063
2617.00,0.0063
2614.00,0.0063
2611.00,0.0062
2608.00,0.0063
2605.00,0.0063
2602.00,0.0063
2599.00,0.0062
2596.00,0.0062
2593.00,0.0063
2590.00,0.0063
2587.00,0.0062
2584.00,0.0062
2581.00,0.0062
2578.00,0.0062
2575.00,0.0061
2572.00,0.0060
2569.00,0.0060
2566.00,0.0061
2563.00,0.0061
2560.00,0.0061
2557.00,0.0060
2554.00,0.0059
2551.00,0.0059
2548.00,0.0059
2545.00,0.0059
2542.00,0.0059
2539.00,0.0059
2536.00,0.0059
2533.00,0.0059
2530.00,0.0058
2527.00,0.0058
2524.00,0.0058
2521.00,0.0058
2518.00,0.0057
2515.00,0.0057
2512.00,0.0058
2509.00,0.0057
2506.00,0.0056
2503.00,0.0056
2500.00,0.0056
2497.00,0.0056
2494.00,0.0056
2491.00,0.0057
2488.00,0.0056
2485.00,0.0056
2482.00,0.0056
2479.00,0.0055
2476.00,0.0055
2473.00,0.0055
2470.00,0.0055
2467.00,0.0055
2464.00,0.0055
2461.00,0.0055
2458.00,0.0057
2455.00,0.0056
2452.00,0.0056
2449.00,0.0056
2446.00,0.0056
2443.00,0.0056
2440.00,0.0055
2437.00,0.0054
2434.00,0.0054
2431.00,0.0054
2428.00,0.0054
2425.00,0.0054
2422.00,0.0054
2419.00,0.0055
2416.00,0.0054
2413.00,0.0054
2410.00,0.0054
2407.00,0.0053
2404.00,0.0053
2401.00,0.0053
2398.00,0.0053
2395.00,0.0053
2392.00,0.0053
2389.00,0.0053
2386.00,0.0052
2383.00,0.0051
2380.00,0.0051
2377.00,0.0051
2374.00,0.0050
2371.00,0.0050
2368.00,0.0051
2365.00,0.0051
2362.00,0.0051
2359.00,0.0051
2356.00,0.0052
2353.00,0.0051
2350.00,0.0052
2347.00,0.0055
2344.00,0.0053
2341.00,0.0054
2338.00,0.0055
2335.00,0.0054
2332.00,0.0053
2329.00,0.0055
2326.00,0.0064
2323.00,0.0063
2320.00,0.0060
2317.00,0.0059
2314.00,0.0058
2311.00,0.0057
2308.00,0.0058
2305.00,0.0058
2302.00,0.0058
2299.00,0.0059
2296.00,0.0060
2293.00,0.0062
2290.00,0.0064
2287.00,0.0065
2284.00,0.0063
2281.00,0.0062
2278.00,0.0061
2275.00,0.0060
2272.00,0.0060
2269.00,0.0058
2266.00,0.0058
2263.00,0.0058
2260.00,0.0058
2257.00,0.0057
2254.00,0.0055
2251.00,0.0055
2248.00,0.0055
2245.00,0.0056
2242.00,0.0057
2239.00,0.0056
2236.00,0.0057
2233.00,0.0056
2230.00,0.0055
2227.00,0.0054
2224.00,0.0056
2221.00,0.0057
2218.00,0.0057
2215.00,0.0056
2212.00,0.0056
2209.00,0.0055
2206.00,0.0057
2203.00,0.0057
2200.00,0.0056
2197.00,0.0056
2194.00,0.0054
2191.00,0.0055
2188.00,0.0058
2185.00,0.0057
2182.00,0.0057
2179.00,0.0059
2176.00,0.0055
2173.00,0.0055
2170.00,0.0058
2167.00,0.0060
2164.00,0.0067
2161.00,0.0055
2158.00,0.0028
2155.00,0.0034
2152.00,0.0040
2149.00,0.0041
2146.00,0.0042
2143.00,0.0041
2140.00,0.0042
2137.00,0.0042
2134.00,0.0040
2131.00,0.0040
2128.00,0.0044
2125.00,0.0046
2122.00,0.0048
2119.00,0.0052
2116.00,0.0055
2113.00,0.0055
2110.00,0.0053
2107.00,0.0054
2104.00,0.0054
2101.00,0.0055
2098.00,0.0053
2095.00,0.0049
2092.00,0.0050
2089.00,0.0052
2086.00,0.0054
2083.00,0.0053
2080.00,0.0054
2077.00,0.0055
2074.00,0.0056
2071.00,0.0055
2068.00,0.0055
2065.00,0.0054
2062.00,0.0053
2059.00,0.0055
2056.00,0.0054
2053.00,0.0058
2050.00,0.0060
2047.00,0.0055
2044.00,0.0056
2041.00,0.0059
2038.00,0.0058
2035.00,0.0051
2032.00,0.0050
2029.00,0.0052
2026.00,0.0049
2023.00,0.0048
2020.00,0.0046
2017.00,0.0046
2014.00,0.0048
2011.00,0.0049
2008.00,0.0046
2005.00,0.0043
2002.00,0.0045
1999.00,0.0047
1996.00,0.0051
1993.00,0.0053
1990.00,0.0052
1987.00,0.0050
1984.00,0.0055
1981.00,0.0062
1978.00,0.0051
1975.00,0.0044
1972.00,0.0043
1969.00,0.0042
1966.00,0.0038
1963.00,0.0042
1960.00,0.0041
1957.00,0.0041
1954.00,0.0044
1951.00,0.0045
1948.00,0.0046
1945.00,0.0045
1942.00,0.0044
1939.00,0.0044
1936.00,0.0043
1933.00,0.0043
1930.00,0.0045
1927.00,0.0044
1924.00,0.0045
1921.00,0.0046
1918.00,0.0047
1915.00,0.0045
1912.00,0.0046
1909.00,0.0049
1906.00,0.0049
1903.00,0.0047
1900.00,0.0047
1897.00,0.0048
1894.00,0.0048
1891.00,0.0048
1888.00,0.0047
1885.00,0.0046
1882.00,0.0045
1879.00,0.0046
1876.00,0.0045
1873.00,0.0046
1870.00,0.0046
1867.00,0.0045
1864.00,0.0047
1861.00,0.0047
1858.00,0.0047
1855.00,0.0048
1852.00,0.0047
1849.00,0.0048
1846.00,0.0048
1843.00,0.0048
1840.00,0.0048
1837.00,0.0047
1834.00,0.0046
1831.00,0.0045
1828.00,0.0046
1825.00,0.0046
1822.00,0.0046
1819.00,0.0045
1816.00,0.0044
1813.00,0.0046
1810.00,0.0047
1807.00,0.0047
1804.00,0.0047
1801.00,0.0047
1798.00,0.0048
1795.00,0.0048
1792.00,0.0048
1789.00,0.0048
1786.00,0.0049
1783.00,0.0048
1780.00,0.0049
1777.00,0.0049
1774.00,0.0048
1771.00,0.0048
1768.00,0.0049
1765.00,0.0049
1762.00,0.0049
1759.00,0.0050
1756.00,0.0050
1753.00,0.0050
1750.00,0.0051
1747.00,0.0052
1744.00,0.0052
1741.00,0.0051
1738.00,0.0052
1735.00,0.0053
1732.00,0.0055
1729.00,0.0057
1726.00,0.0059
1723.00,0.0061
1720.00,0.0062
1717.00,0.0066
1714.00,0.0069
1711.00,0.0074
1708.00,0.0079
1705.00,0.0087
1702.00,0.0095
1699.00,0.0113
1696.00,0.0135
1693.00,0.0160
1690.00,0.0192
1687.00,0.0226
1684.00,0.0255
1681.00,0.0289
1678.00,0.0326
1675.00,0.0357
1672.00,0.0390
1669.00,0.0416
1666.00,0.0446
1663.00,0.0475
1660.00,0.0493
1657.00,0.0523
1654.00,0.0543
1651.00,0.0514
1648.00,0.0539
1645.00,0.0510
1642.00,0.0506
1639.00,0.0492
1636.00,0.0456
1633.00,0.0415
1630.00,0.0417
1627.00,0.0428
1624.00,0.0445
1621.00,0.0439
1618.00,0.0419
1615.00,0.0354
1612.00,0.0341
1609.00,0.0325
1606.00,0.0288
1603.00,0.0250
1600.00,0.0218
1597.00,0.0199
1594.00,0.0193
1591.00,0.0203
1588.00,0.0229
1585.00,0.0251
1582.00,0.0251
1579.00,0.0237
1576.00,0.0209
1573.00,0.0187
1570.00,0.0175
1567.00,0.0164
1564.00,0.0151
1561.00,0.0136
1558.00,0.0116
1555.00,0.0115
1552.00,0.0113
1549.00,0.0110
1546.00,0.0108
1543.00,0.0104
1540.00,0.0099
1537.00,0.0098
1534.00,0.0097
1531.00,0.0096
1528.00,0.0097
1525.00,0.0096
1522.00,0.0098
1519.00,0.0099
1516.00,0.0105
1513.00,0.0111
1510.00,0.0119
1507.00,0.0122
1504.00,0.0133
1501.00,0.0155
1498.00,0.0195
1495.00,0.0223
1492.00,0.0213
1489.00,0.0179
1486.00,0.0151
1483.00,0.0135
1480.00,0.0125
1477.00,0.0124
1474.00,0.0134
1471.00,0.0165
1468.00,0.0222
1465.00,0.0275
1462.00,0.0302
1459.00,0.0311
1456.00,0.0268
1453.00,0.0245
1450.00,0.0243
1447.00,0.0261
1444.00,0.0298
1441.00,0.0340
1438.00,0.0371
1435.00,0.0380
1432.00,0.0398
1429.00,0.0410
1426.00,0.0432
1423.00,0.0448
1420.00,0.0441
1417.00,0.0382
1414.00,0.0330
1411.00,0.0289
1408.00,0.0272
1405.00,0.0278
1402.00,0.0291
1399.00,0.0289
1396.00,0.0264
1393.00,0.0227
1390.00,0.0213
1387.00,0.0222
1384.00,0.0222
1381.00,0.0224
1378.00,0.0234
1375.00,0.0230
1372.00,0.0214
1369.00,0.0216
1366.00,0.0233
1363.00,0.0239
1360.00,0.0249
1357.00,0.0232
1354.00,0.0206
1351.00,0.0197
1348.00,0.0196
1345.00,0.0193
1342.00,0.0185
1339.00,0.0173
1336.00,0.0167
1333.00,0.0174
1330.00,0.0186
1327.00,0.0196
1324.00,0.0205
1321.00,0.0216
1318.00,0.0222
1315.00,0.0217
1312.00,0.0207
1309.00,0.0205
1306.00,0.0216
1303.00,0.0250
1300.00,0.0289
1297.00,0.0323
1294.00,0.0376
1291.00,0.0427
1288.00,0.0463
1285.00,0.0483
1282.00,0.0477
1279.00,0.0450
1276.00,0.0432
1273.00,0.0427
1270.00,0.0415
1267.00,0.0390
1264.00,0.0355
1261.00,0.0318
1258.00,0.0286
1255.00,0.0263
1252.00,0.0248
1249.00,0.0245
1246.00,0.0255
1243.00,0.0268
1240.00,0.0278
1237.00,0.0297
1234.00,0.0321
1231.00,0.0321
1228.00,0.0303
1225.00,0.0286
1222.00,0.0277
1219.00,0.0278
1216.00,0.0285
1213.00,0.0284
1210.00,0.0263
1207.00,0.0241
1204.00,0.0233
1201.00,0.0244
1198.00,0.0269
1195.00,0.0294
1192.00,0.0290
1189.00,0.0260
1186.00,0.0229
1183.00,0.0209
1180.00,0.0199
1177.00,0.0197
1174.00,0.0199
1171.00,0.0202
1168.00,0.0202
1165.00,0.0201
1162.00,0.0205
1159.00,0.0227
1156.00,0.0272
1153.00,0.0277
1150.00,0.0224
1147.00,0.0186
1144.00,0.0172
1141.00,0.0166
1138.00,0.0168
1135.00,0.0187
1132.00,0.0237
1129.00,0.0293
1126.00,0.0292
1123.00,0.0254
1120.00,0.0215
1117.00,0.0198
1114.00,0.0196
1111.00,0.0191
1108.00,0.0185
1105.00,0.0190
1102.00,0.0218
1099.00,0.0243
1096.00,0.0221
1093.00,0.0189
1090.00,0.0173
1087.00,0.0167
1084.00,0.0164
1081.00,0.0165
1078.00,0.0168
1075.00,0.0170
1072.00,0.0174
1069.00,0.0179
1066.00,0.0186
1063.00,0.0201
1060.00,0.0236
1057.00,0.0301
1054.00,0.0358
1051.00,0.0371
1048.00,0.0359
1045.00,0.0317
1042.00,0.0267
1039.00,0.0233
1036.00,0.0227
1033.00,0.0238
1030.00,0.0276
1027.00,0.0333
1024.00,0.0322
1021.00,0.0270
1018.00,0.0236
1015.00,0.0211
1012.00,0.0195
1009.00,0.0194
1006.00,0.0213
1003.00,0.0234
1000.00,0.0229
997.00,0.0214
994.00,0.0203
991.00,0.0190
988.00,0.0174
985.00,0.0164
982.00,0.0158
979.00,0.0155
976.00,0.0154
973.00,0.0151
970.00,0.0148
967.00,0.0146
964.00,0.0148
961.00,0.0148
958.00,0.0141
955.00,0.0134
952.00,0.0131
949.00,0.0132
946.00,0.0134
943.00,0.0136
940.00,0.0145
937.00,0.0156
934.00,0.0163
931.00,0.0164
928.00,0.0156
925.00,0.0156
922.00,0.0163
919.00,0.0157
916.00,0.0143
913.00,0.0135
910.00,0.0132
907.00,0.0133
904.00,0.0141
901.00,0.0160
898.00,0.0171
895.00,0.0161
892.00,0.0163
889.00,0.0169
886.00,0.0149
883.00,0.0141
880.00,0.0142
877.00,0.0158
874.00,0.0195
871.00,0.0238
868.00,0.0246
865.00,0.0218
862.00,0.0193
859.00,0.0181
856.00,0.0194
853.00,0.0222
850.00,0.0251
847.00,0.0257
844.00,0.0236
841.00,0.0222
838.00,0.0227
835.00,0.0250
832.00,0.0255
829.00,0.0228
826.00,0.0194
823.00,0.0202
820.00,0.0261
817.00,0.0279
814.00,0.0273
811.00,0.0202
808.00,0.0171
805.00,0.0159
802.00,0.0155
799.00,0.0152
796.00,0.0152
793.00,0.0151
790.00,0.0151
787.00,0.0152
784.00,0.0153
781.00,0.0156
778.00,0.0160
775.00,0.0173
772.00,0.0175
769.00,0.0171
766.00,0.0171
763.00,0.0178
760.00,0.0187
757.00,0.0193
754.00,0.0197
751.00,0.0203
748.00,0.0209
745.00,0.0216
742.00,0.0228
739.00,0.0245
736.00,0.0278
733.00,0.0289
730.00,0.0279
727.00,0.0272
724.00,0.0248
721.00,0.0233
718.00,0.0234
715.00,0.0244
712.00,0.0242
709.00,0.0236
706.00,0.0235
703.00,0.0240
700.00,0.0248
697.00,0.0254
694.00,0.0254
691.00,0.0260
688.00,0.0274
685.00,0.0273
682.00,0.0272
679.00,0.0277
676.00,0.0289
673.00,0.0305
670.00,0.0319
667.00,0.0316
664.00,0.0328
661.00,0.0340
658.00,0.0344
655.00,0.0346
652.00,0.0354
649.00,0.0361
646.00,0.0363
643.00,0.0359
640.00,0.0353
637.00,0.0348
634.00,0.0343
631.00,0.0339
628.00,0.0339
625.00,0.0337
622.00,0.0342
619.00,0.0348
616.00,0.0343
613.00,0.0331
610.00,0.0331
607.00,0.0348
604.00,0.0369
601.00,0.0377
598.00,0.0379
595.00,0.0384
592.00,0.0386
589.00,0.0386
586.00,0.0389
583.00,0.0402
580.00,0.0417
577.00,0.0437
574.00,0.0442
571.00,0.0433
568.00,0.0424
565.00,0.0420
562.00,0.0428
559.00,0.0436
556.00,0.0426
553.00,0.0414
550.00,0.0418
547.00,0.0432
544.00,0.0432
541.00,0.0420
538.00,0.0410
535.00,0.0411
532.00,0.0424
529.00,0.0427
526.00,0.0414
523.00,0.0402
520.00,0.0397
517.00,0.0393
514.00,0.0391
511.00,0.0392
508.00,0.0397
505.00,0.0397
502.00,0.0391
499.00,0.0394
496.00,0.0396
493.00,0.0401
490.00,0.0404
487.00,0.0405
484.00,0.0403
481.00,0.0403
478.00,0.0405
475.00,0.0402
472.00,0.0404
469.00,0.0397
466.00,0.0399
463.00,0.0399
460.00,0.0397
457.00,0.0387
454.00,0.0394
451.00,0.0385
448.00,0.0381
445.00,0.0376
442.00,0.0373
439.00,0.0364
436.00,0.0356
433.00,0.0353
430.00,0.0343
427.00,0.0334
424.00,0.0332
421.00,0.0339
418.00,0.0327
415.00,0.0319
412.00,0.0338
409.00,0.0337
406.00,0.0340
403.00,0.0324
400.00,0.0327