File: FTIR/Olivia/2025_08_01_1CBN_3PVP10_drybatchpowder_scan5.csv
Created as New Dataset,Sample 1016 By YargerLab Date Friday, August 01 2025
cm-1,A
4000.00,0.0060
3997.00,0.0060
3994.00,0.0060
3991.00,0.0060
3988.00,0.0060
3985.00,0.0060
3982.00,0.0060
3979.00,0.0060
3976.00,0.0060
3973.00,0.0061
3970.00,0.0061
3967.00,0.0060
3964.00,0.0060
3961.00,0.0060
3958.00,0.0060
3955.00,0.0060
3952.00,0.0060
3949.00,0.0060
3946.00,0.0060
3943.00,0.0060
3940.00,0.0060
3937.00,0.0060
3934.00,0.0061
3931.00,0.0061
3928.00,0.0061
3925.00,0.0061
3922.00,0.0061
3919.00,0.0061
3916.00,0.0061
3913.00,0.0060
3910.00,0.0060
3907.00,0.0061
3904.00,0.0062
3901.00,0.0062
3898.00,0.0062
3895.00,0.0061
3892.00,0.0060
3889.00,0.0061
3886.00,0.0062
3883.00,0.0061
3880.00,0.0061
3877.00,0.0060
3874.00,0.0061
3871.00,0.0061
3868.00,0.0061
3865.00,0.0061
3862.00,0.0060
3859.00,0.0061
3856.00,0.0062
3853.00,0.0062
3850.00,0.0062
3847.00,0.0061
3844.00,0.0061
3841.00,0.0061
3838.00,0.0061
3835.00,0.0062
3832.00,0.0061
3829.00,0.0061
3826.00,0.0061
3823.00,0.0061
3820.00,0.0061
3817.00,0.0061
3814.00,0.0060
3811.00,0.0059
3808.00,0.0060
3805.00,0.0060
3802.00,0.0061
3799.00,0.0061
3796.00,0.0060
3793.00,0.0059
3790.00,0.0059
3787.00,0.0059
3784.00,0.0059
3781.00,0.0059
3778.00,0.0059
3775.00,0.0059
3772.00,0.0059
3769.00,0.0060
3766.00,0.0060
3763.00,0.0060
3760.00,0.0060
3757.00,0.0060
3754.00,0.0061
3751.00,0.0062
3748.00,0.0062
3745.00,0.0063
3742.00,0.0063
3739.00,0.0062
3736.00,0.0062
3733.00,0.0061
3730.00,0.0060
3727.00,0.0059
3724.00,0.0058
3721.00,0.0059
3718.00,0.0058
3715.00,0.0059
3712.00,0.0059
3709.00,0.0059
3706.00,0.0058
3703.00,0.0058
3700.00,0.0058
3697.00,0.0058
3694.00,0.0058
3691.00,0.0059
3688.00,0.0060
3685.00,0.0060
3682.00,0.0059
3679.00,0.0060
3676.00,0.0061
3673.00,0.0062
3670.00,0.0062
3667.00,0.0062
3664.00,0.0061
3661.00,0.0060
3658.00,0.0062
3655.00,0.0063
3652.00,0.0065
3649.00,0.0066
3646.00,0.0066
3643.00,0.0065
3640.00,0.0065
3637.00,0.0065
3634.00,0.0067
3631.00,0.0070
3628.00,0.0071
3625.00,0.0072
3622.00,0.0072
3619.00,0.0074
3616.00,0.0076
3613.00,0.0077
3610.00,0.0078
3607.00,0.0079
3604.00,0.0080
3601.00,0.0081
3598.00,0.0083
3595.00,0.0085
3592.00,0.0086
3589.00,0.0089
3586.00,0.0090
3583.00,0.0091
3580.00,0.0092
3577.00,0.0094
3574.00,0.0096
3571.00,0.0099
3568.00,0.0102
3565.00,0.0104
3562.00,0.0106
3559.00,0.0107
3556.00,0.0110
3553.00,0.0112
3550.00,0.0115
3547.00,0.0118
3544.00,0.0121
3541.00,0.0122
3538.00,0.0124
3535.00,0.0127
3532.00,0.0129
3529.00,0.0131
3526.00,0.0134
3523.00,0.0136
3520.00,0.0138
3517.00,0.0139
3514.00,0.0141
3511.00,0.0143
3508.00,0.0144
3505.00,0.0147
3502.00,0.0149
3499.00,0.0151
3496.00,0.0153
3493.00,0.0155
3490.00,0.0157
3487.00,0.0160
3484.00,0.0163
3481.00,0.0165
3478.00,0.0168
3475.00,0.0171
3472.00,0.0175
3469.00,0.0179
3466.00,0.0181
3463.00,0.0185
3460.00,0.0189
3457.00,0.0193
3454.00,0.0197
3451.00,0.0201
3448.00,0.0205
3445.00,0.0210
3442.00,0.0215
3439.00,0.0220
3436.00,0.0226
3433.00,0.0231
3430.00,0.0236
3427.00,0.0243
3424.00,0.0249
3421.00,0.0256
3418.00,0.0263
3415.00,0.0269
3412.00,0.0274
3409.00,0.0278
3406.00,0.0282
3403.00,0.0284
3400.00,0.0284
3397.00,0.0283
3394.00,0.0281
3391.00,0.0278
3388.00,0.0274
3385.00,0.0270
3382.00,0.0266
3379.00,0.0262
3376.00,0.0257
3373.00,0.0252
3370.00,0.0248
3367.00,0.0244
3364.00,0.0240
3361.00,0.0237
3358.00,0.0235
3355.00,0.0232
3352.00,0.0229
3349.00,0.0227
3346.00,0.0225
3343.00,0.0224
3340.00,0.0222
3337.00,0.0221
3334.00,0.0222
3331.00,0.0222
3328.00,0.0221
3325.00,0.0221
3322.00,0.0222
3319.00,0.0224
3316.00,0.0225
3313.00,0.0226
3310.00,0.0225
3307.00,0.0226
3304.00,0.0229
3301.00,0.0231
3298.00,0.0233
3295.00,0.0235
3292.00,0.0237
3289.00,0.0240
3286.00,0.0242
3283.00,0.0244
3280.00,0.0246
3277.00,0.0247
3274.00,0.0249
3271.00,0.0251
3268.00,0.0253
3265.00,0.0255
3262.00,0.0257
3259.00,0.0258
3256.00,0.0260
3253.00,0.0262
3250.00,0.0263
3247.00,0.0263
3244.00,0.0264
3241.00,0.0265
3238.00,0.0265
3235.00,0.0263
3232.00,0.0262
3229.00,0.0260
3226.00,0.0258
3223.00,0.0256
3220.00,0.0254
3217.00,0.0251
3214.00,0.0248
3211.00,0.0244
3208.00,0.0239
3205.00,0.0235
3202.00,0.0230
3199.00,0.0226
3196.00,0.0221
3193.00,0.0217
3190.00,0.0212
3187.00,0.0208
3184.00,0.0203
3181.00,0.0199
3178.00,0.0194
3175.00,0.0189
3172.00,0.0185
3169.00,0.0180
3166.00,0.0176
3163.00,0.0171
3160.00,0.0167
3157.00,0.0163
3154.00,0.0158
3151.00,0.0155
3148.00,0.0151
3145.00,0.0148
3142.00,0.0144
3139.00,0.0141
3136.00,0.0139
3133.00,0.0135
3130.00,0.0133
3127.00,0.0131
3124.00,0.0129
3121.00,0.0127
3118.00,0.0125
3115.00,0.0122
3112.00,0.0120
3109.00,0.0118
3106.00,0.0115
3103.00,0.0113
3100.00,0.0111
3097.00,0.0110
3094.00,0.0110
3091.00,0.0110
3088.00,0.0111
3085.00,0.0111
3082.00,0.0111
3079.00,0.0110
3076.00,0.0109
3073.00,0.0108
3070.00,0.0107
3067.00,0.0106
3064.00,0.0106
3061.00,0.0106
3058.00,0.0107
3055.00,0.0107
3052.00,0.0106
3049.00,0.0106
3046.00,0.0105
3043.00,0.0105
3040.00,0.0106
3037.00,0.0109
3034.00,0.0111
3031.00,0.0112
3028.00,0.0109
3025.00,0.0106
3022.00,0.0104
3019.00,0.0102
3016.00,0.0102
3013.00,0.0102
3010.00,0.0105
3007.00,0.0108
3004.00,0.0114
3001.00,0.0123
2998.00,0.0135
2995.00,0.0149
2992.00,0.0163
2989.00,0.0174
2986.00,0.0186
2983.00,0.0203
2980.00,0.0226
2977.00,0.0239
2974.00,0.0249
2971.00,0.0276
2968.00,0.0295
2965.00,0.0307
2962.00,0.0323
2959.00,0.0331
2956.00,0.0317
2953.00,0.0293
2950.00,0.0275
2947.00,0.0270
2944.00,0.0280
2941.00,0.0300
2938.00,0.0330
2935.00,0.0376
2932.00,0.0429
2929.00,0.0471
2926.00,0.0478
2923.00,0.0451
2920.00,0.0411
2917.00,0.0370
2914.00,0.0333
2911.00,0.0304
2908.00,0.0281
2905.00,0.0263
2902.00,0.0248
2899.00,0.0235
2896.00,0.0225
2893.00,0.0217
2890.00,0.0211
2887.00,0.0206
2884.00,0.0202
2881.00,0.0205
2878.00,0.0216
2875.00,0.0233
2872.00,0.0244
2869.00,0.0242
2866.00,0.0241
2863.00,0.0258
2860.00,0.0293
2857.00,0.0320
2854.00,0.0319
2851.00,0.0293
2848.00,0.0251
2845.00,0.0208
2842.00,0.0177
2839.00,0.0156
2836.00,0.0142
2833.00,0.0133
2830.00,0.0126
2827.00,0.0119
2824.00,0.0114
2821.00,0.0110
2818.00,0.0106
2815.00,0.0104
2812.00,0.0101
2809.00,0.0099
2806.00,0.0098
2803.00,0.0096
2800.00,0.0095
2797.00,0.0093
2794.00,0.0092
2791.00,0.0090
2788.00,0.0089
2785.00,0.0088
2782.00,0.0087
2779.00,0.0086
2776.00,0.0085
2773.00,0.0084
2770.00,0.0084
2767.00,0.0084
2764.00,0.0084
2761.00,0.0084
2758.00,0.0084
2755.00,0.0084
2752.00,0.0084
2749.00,0.0084
2746.00,0.0084
2743.00,0.0085
2740.00,0.0086
2737.00,0.0087
2734.00,0.0088
2731.00,0.0089
2728.00,0.0089
2725.00,0.0088
2722.00,0.0087
2719.00,0.0087
2716.00,0.0086
2713.00,0.0085
2710.00,0.0085
2707.00,0.0084
2704.00,0.0084
2701.00,0.0084
2698.00,0.0083
2695.00,0.0083
2692.00,0.0082
2689.00,0.0081
2686.00,0.0081
2683.00,0.0081
2680.00,0.0080
2677.00,0.0080
2674.00,0.0080
2671.00,0.0081
2668.00,0.0081
2665.00,0.0082
2662.00,0.0084
2659.00,0.0084
2656.00,0.0085
2653.00,0.0085
2650.00,0.0085
2647.00,0.0085
2644.00,0.0085
2641.00,0.0084
2638.00,0.0083
2635.00,0.0083
2632.00,0.0082
2629.00,0.0081
2626.00,0.0080
2623.00,0.0079
2620.00,0.0079
2617.00,0.0078
2614.00,0.0078
2611.00,0.0079
2608.00,0.0079
2605.00,0.0079
2602.00,0.0079
2599.00,0.0079
2596.00,0.0080
2593.00,0.0080
2590.00,0.0080
2587.00,0.0080
2584.00,0.0080
2581.00,0.0080
2578.00,0.0079
2575.00,0.0079
2572.00,0.0078
2569.00,0.0078
2566.00,0.0078
2563.00,0.0078
2560.00,0.0077
2557.00,0.0076
2554.00,0.0076
2551.00,0.0076
2548.00,0.0075
2545.00,0.0074
2542.00,0.0075
2539.00,0.0076
2536.00,0.0075
2533.00,0.0076
2530.00,0.0074
2527.00,0.0074
2524.00,0.0074
2521.00,0.0072
2518.00,0.0072
2515.00,0.0071
2512.00,0.0071
2509.00,0.0071
2506.00,0.0070
2503.00,0.0070
2500.00,0.0070
2497.00,0.0069
2494.00,0.0069
2491.00,0.0070
2488.00,0.0069
2485.00,0.0068
2482.00,0.0068
2479.00,0.0068
2476.00,0.0067
2473.00,0.0068
2470.00,0.0068
2467.00,0.0067
2464.00,0.0067
2461.00,0.0068
2458.00,0.0067
2455.00,0.0068
2452.00,0.0069
2449.00,0.0068
2446.00,0.0068
2443.00,0.0068
2440.00,0.0067
2437.00,0.0066
2434.00,0.0066
2431.00,0.0066
2428.00,0.0066
2425.00,0.0066
2422.00,0.0066
2419.00,0.0066
2416.00,0.0065
2413.00,0.0066
2410.00,0.0065
2407.00,0.0065
2404.00,0.0064
2401.00,0.0065
2398.00,0.0065
2395.00,0.0064
2392.00,0.0064
2389.00,0.0064
2386.00,0.0064
2383.00,0.0063
2380.00,0.0062
2377.00,0.0062
2374.00,0.0063
2371.00,0.0062
2368.00,0.0062
2365.00,0.0062
2362.00,0.0063
2359.00,0.0063
2356.00,0.0061
2353.00,0.0061
2350.00,0.0060
2347.00,0.0065
2344.00,0.0065
2341.00,0.0064
2338.00,0.0064
2335.00,0.0064
2332.00,0.0064
2329.00,0.0064
2326.00,0.0071
2323.00,0.0070
2320.00,0.0067
2317.00,0.0066
2314.00,0.0065
2311.00,0.0064
2308.00,0.0063
2305.00,0.0064
2302.00,0.0065
2299.00,0.0067
2296.00,0.0068
2293.00,0.0070
2290.00,0.0072
2287.00,0.0073
2284.00,0.0071
2281.00,0.0070
2278.00,0.0069
2275.00,0.0069
2272.00,0.0068
2269.00,0.0066
2266.00,0.0065
2263.00,0.0066
2260.00,0.0066
2257.00,0.0064
2254.00,0.0062
2251.00,0.0064
2248.00,0.0065
2245.00,0.0065
2242.00,0.0065
2239.00,0.0065
2236.00,0.0065
2233.00,0.0066
2230.00,0.0065
2227.00,0.0064
2224.00,0.0066
2221.00,0.0067
2218.00,0.0068
2215.00,0.0067
2212.00,0.0066
2209.00,0.0065
2206.00,0.0064
2203.00,0.0063
2200.00,0.0063
2197.00,0.0063
2194.00,0.0066
2191.00,0.0065
2188.00,0.0065
2185.00,0.0067
2182.00,0.0062
2179.00,0.0063
2176.00,0.0060
2173.00,0.0061
2170.00,0.0068
2167.00,0.0073
2164.00,0.0075
2161.00,0.0063
2158.00,0.0038
2155.00,0.0043
2152.00,0.0046
2149.00,0.0050
2146.00,0.0050
2143.00,0.0051
2140.00,0.0052
2137.00,0.0049
2134.00,0.0046
2131.00,0.0050
2128.00,0.0054
2125.00,0.0055
2122.00,0.0057
2119.00,0.0059
2116.00,0.0061
2113.00,0.0061
2110.00,0.0059
2107.00,0.0060
2104.00,0.0061
2101.00,0.0060
2098.00,0.0057
2095.00,0.0053
2092.00,0.0055
2089.00,0.0058
2086.00,0.0058
2083.00,0.0060
2080.00,0.0061
2077.00,0.0062
2074.00,0.0062
2071.00,0.0061
2068.00,0.0058
2065.00,0.0057
2062.00,0.0057
2059.00,0.0055
2056.00,0.0057
2053.00,0.0060
2050.00,0.0061
2047.00,0.0056
2044.00,0.0057
2041.00,0.0060
2038.00,0.0058
2035.00,0.0055
2032.00,0.0054
2029.00,0.0052
2026.00,0.0052
2023.00,0.0052
2020.00,0.0052
2017.00,0.0049
2014.00,0.0049
2011.00,0.0053
2008.00,0.0049
2005.00,0.0045
2002.00,0.0048
1999.00,0.0051
1996.00,0.0051
1993.00,0.0054
1990.00,0.0056
1987.00,0.0059
1984.00,0.0063
1981.00,0.0067
1978.00,0.0053
1975.00,0.0048
1972.00,0.0049
1969.00,0.0047
1966.00,0.0048
1963.00,0.0050
1960.00,0.0047
1957.00,0.0047
1954.00,0.0049
1951.00,0.0051
1948.00,0.0050
1945.00,0.0048
1942.00,0.0049
1939.00,0.0049
1936.00,0.0049
1933.00,0.0051
1930.00,0.0052
1927.00,0.0051
1924.00,0.0052
1921.00,0.0054
1918.00,0.0054
1915.00,0.0055
1912.00,0.0057
1909.00,0.0062
1906.00,0.0060
1903.00,0.0057
1900.00,0.0057
1897.00,0.0057
1894.00,0.0059
1891.00,0.0058
1888.00,0.0055
1885.00,0.0054
1882.00,0.0055
1879.00,0.0055
1876.00,0.0054
1873.00,0.0054
1870.00,0.0054
1867.00,0.0054
1864.00,0.0055
1861.00,0.0055
1858.00,0.0056
1855.00,0.0056
1852.00,0.0057
1849.00,0.0057
1846.00,0.0057
1843.00,0.0057
1840.00,0.0055
1837.00,0.0056
1834.00,0.0055
1831.00,0.0054
1828.00,0.0053
1825.00,0.0053
1822.00,0.0054
1819.00,0.0054
1816.00,0.0053
1813.00,0.0054
1810.00,0.0054
1807.00,0.0055
1804.00,0.0056
1801.00,0.0055
1798.00,0.0056
1795.00,0.0057
1792.00,0.0057
1789.00,0.0056
1786.00,0.0057
1783.00,0.0057
1780.00,0.0057
1777.00,0.0059
1774.00,0.0060
1771.00,0.0058
1768.00,0.0056
1765.00,0.0058
1762.00,0.0059
1759.00,0.0059
1756.00,0.0059
1753.00,0.0058
1750.00,0.0056
1747.00,0.0055
1744.00,0.0057
1741.00,0.0057
1738.00,0.0059
1735.00,0.0057
1732.00,0.0059
1729.00,0.0064
1726.00,0.0069
1723.00,0.0074
1720.00,0.0075
1717.00,0.0077
1714.00,0.0081
1711.00,0.0089
1708.00,0.0097
1705.00,0.0105
1702.00,0.0114
1699.00,0.0136
1696.00,0.0159
1693.00,0.0198
1690.00,0.0238
1687.00,0.0279
1684.00,0.0326
1681.00,0.0373
1678.00,0.0418
1675.00,0.0462
1672.00,0.0503
1669.00,0.0544
1666.00,0.0583
1663.00,0.0616
1660.00,0.0642
1657.00,0.0662
1654.00,0.0664
1651.00,0.0657
1648.00,0.0653
1645.00,0.0625
1642.00,0.0607
1639.00,0.0581
1636.00,0.0537
1633.00,0.0512
1630.00,0.0533
1627.00,0.0606
1624.00,0.0673
1621.00,0.0688
1618.00,0.0632
1615.00,0.0531
1612.00,0.0513
1609.00,0.0486
1606.00,0.0413
1603.00,0.0340
1600.00,0.0289
1597.00,0.0263
1594.00,0.0265
1591.00,0.0306
1588.00,0.0383
1585.00,0.0439
1582.00,0.0437
1579.00,0.0399
1576.00,0.0336
1573.00,0.0291
1570.00,0.0269
1567.00,0.0247
1564.00,0.0215
1561.00,0.0186
1558.00,0.0151
1555.00,0.0141
1552.00,0.0140
1549.00,0.0135
1546.00,0.0131
1543.00,0.0126
1540.00,0.0118
1537.00,0.0117
1534.00,0.0118
1531.00,0.0116
1528.00,0.0117
1525.00,0.0118
1522.00,0.0120
1519.00,0.0127
1516.00,0.0140
1513.00,0.0154
1510.00,0.0165
1507.00,0.0170
1504.00,0.0189
1501.00,0.0225
1498.00,0.0296
1495.00,0.0339
1492.00,0.0302
1489.00,0.0238
1486.00,0.0196
1483.00,0.0175
1480.00,0.0165
1477.00,0.0169
1474.00,0.0185
1471.00,0.0245
1468.00,0.0334
1465.00,0.0408
1462.00,0.0432
1459.00,0.0431
1456.00,0.0381
1453.00,0.0355
1450.00,0.0359
1447.00,0.0391
1444.00,0.0447
1441.00,0.0505
1438.00,0.0540
1435.00,0.0564
1432.00,0.0588
1429.00,0.0607
1426.00,0.0622
1423.00,0.0623
1420.00,0.0590
1417.00,0.0508
1414.00,0.0446
1411.00,0.0411
1408.00,0.0419
1405.00,0.0466
1402.00,0.0514
1399.00,0.0511
1396.00,0.0449
1393.00,0.0369
1390.00,0.0336
1387.00,0.0358
1384.00,0.0354
1381.00,0.0351
1378.00,0.0357
1375.00,0.0332
1372.00,0.0300
1369.00,0.0313
1366.00,0.0363
1363.00,0.0388
1360.00,0.0418
1357.00,0.0372
1354.00,0.0322
1351.00,0.0306
1348.00,0.0305
1345.00,0.0298
1342.00,0.0275
1339.00,0.0249
1336.00,0.0240
1333.00,0.0252
1330.00,0.0268
1327.00,0.0278
1324.00,0.0285
1321.00,0.0296
1318.00,0.0300
1315.00,0.0289
1312.00,0.0277
1309.00,0.0282
1306.00,0.0314
1303.00,0.0379
1300.00,0.0436
1297.00,0.0469
1294.00,0.0528
1291.00,0.0582
1288.00,0.0620
1285.00,0.0646
1282.00,0.0629
1279.00,0.0576
1276.00,0.0538
1273.00,0.0519
1270.00,0.0493
1267.00,0.0454
1264.00,0.0409
1261.00,0.0363
1258.00,0.0326
1255.00,0.0302
1252.00,0.0291
1249.00,0.0303
1246.00,0.0336
1243.00,0.0368
1240.00,0.0388
1237.00,0.0425
1234.00,0.0464
1231.00,0.0455
1228.00,0.0415
1225.00,0.0382
1222.00,0.0366
1219.00,0.0371
1216.00,0.0391
1213.00,0.0391
1210.00,0.0352
1207.00,0.0314
1204.00,0.0309
1201.00,0.0342
1198.00,0.0403
1195.00,0.0456
1192.00,0.0437
1189.00,0.0372
1186.00,0.0308
1183.00,0.0268
1180.00,0.0249
1177.00,0.0242
1174.00,0.0242
1171.00,0.0245
1168.00,0.0246
1165.00,0.0249
1162.00,0.0270
1159.00,0.0335
1156.00,0.0442
1153.00,0.0440
1150.00,0.0320
1147.00,0.0244
1144.00,0.0219
1141.00,0.0212
1138.00,0.0221
1135.00,0.0263
1132.00,0.0374
1129.00,0.0485
1126.00,0.0463
1123.00,0.0368
1120.00,0.0287
1117.00,0.0254
1114.00,0.0248
1111.00,0.0238
1108.00,0.0228
1105.00,0.0243
1102.00,0.0300
1099.00,0.0343
1096.00,0.0294
1093.00,0.0232
1090.00,0.0201
1087.00,0.0188
1084.00,0.0184
1081.00,0.0185
1078.00,0.0190
1075.00,0.0196
1072.00,0.0203
1069.00,0.0217
1066.00,0.0238
1063.00,0.0278
1060.00,0.0363
1057.00,0.0507
1054.00,0.0623
1051.00,0.0645
1048.00,0.0614
1045.00,0.0512
1042.00,0.0398
1039.00,0.0330
1036.00,0.0321
1033.00,0.0346
1030.00,0.0436
1027.00,0.0548
1024.00,0.0493
1021.00,0.0370
1018.00,0.0296
1015.00,0.0255
1012.00,0.0231
1009.00,0.0236
1006.00,0.0274
1003.00,0.0306
1000.00,0.0292
997.00,0.0266
994.00,0.0248
991.00,0.0226
988.00,0.0201
985.00,0.0186
982.00,0.0178
979.00,0.0175
976.00,0.0174
973.00,0.0173
970.00,0.0170
967.00,0.0169
964.00,0.0172
961.00,0.0174
958.00,0.0160
955.00,0.0148
952.00,0.0142
949.00,0.0146
946.00,0.0148
943.00,0.0154
940.00,0.0171
937.00,0.0186
934.00,0.0198
931.00,0.0197
928.00,0.0188
925.00,0.0192
922.00,0.0204
919.00,0.0192
916.00,0.0167
913.00,0.0153
910.00,0.0149
907.00,0.0153
904.00,0.0168
901.00,0.0202
898.00,0.0220
895.00,0.0200
892.00,0.0203
889.00,0.0212
886.00,0.0176
883.00,0.0164
880.00,0.0173
877.00,0.0210
874.00,0.0286
871.00,0.0374
868.00,0.0378
865.00,0.0317
862.00,0.0266
859.00,0.0239
856.00,0.0261
853.00,0.0308
850.00,0.0349
847.00,0.0348
844.00,0.0310
841.00,0.0289
838.00,0.0306
835.00,0.0356
832.00,0.0364
829.00,0.0311
826.00,0.0253
823.00,0.0288
820.00,0.0401
817.00,0.0440
814.00,0.0409
811.00,0.0271
808.00,0.0212
805.00,0.0187
802.00,0.0177
799.00,0.0174
796.00,0.0171
793.00,0.0171
790.00,0.0173
787.00,0.0174
784.00,0.0175
781.00,0.0180
778.00,0.0191
775.00,0.0216
772.00,0.0212
769.00,0.0201
766.00,0.0203
763.00,0.0211
760.00,0.0225
757.00,0.0231
754.00,0.0233
751.00,0.0240
748.00,0.0248
745.00,0.0260
742.00,0.0277
739.00,0.0311
736.00,0.0376
733.00,0.0391
730.00,0.0369
727.00,0.0355
724.00,0.0310
721.00,0.0287
718.00,0.0291
715.00,0.0309
712.00,0.0306
709.00,0.0295
706.00,0.0293
703.00,0.0302
700.00,0.0318
697.00,0.0329
694.00,0.0324
691.00,0.0331
688.00,0.0355
685.00,0.0351
682.00,0.0345
679.00,0.0354
676.00,0.0375
673.00,0.0404
670.00,0.0423
667.00,0.0418
664.00,0.0432
661.00,0.0451
658.00,0.0448
655.00,0.0442
652.00,0.0446
649.00,0.0449
646.00,0.0450
643.00,0.0446
640.00,0.0439
637.00,0.0430
634.00,0.0424
631.00,0.0421
628.00,0.0419
625.00,0.0427
622.00,0.0441
619.00,0.0449
616.00,0.0436
613.00,0.0419
610.00,0.0421
607.00,0.0449
604.00,0.0487
601.00,0.0504
598.00,0.0507
595.00,0.0506
592.00,0.0506
589.00,0.0505
586.00,0.0511
583.00,0.0525
580.00,0.0545
577.00,0.0579
574.00,0.0577
571.00,0.0547
568.00,0.0531
565.00,0.0535
562.00,0.0553
559.00,0.0561
556.00,0.0541
553.00,0.0523
550.00,0.0528
547.00,0.0552
544.00,0.0551
541.00,0.0526
538.00,0.0514
535.00,0.0521
532.00,0.0540
529.00,0.0540
526.00,0.0513
523.00,0.0496
520.00,0.0483
517.00,0.0474
514.00,0.0471
511.00,0.0469
508.00,0.0474
505.00,0.0480
502.00,0.0468
499.00,0.0467
496.00,0.0467
493.00,0.0478
490.00,0.0478
487.00,0.0475
484.00,0.0470
481.00,0.0464
478.00,0.0460
475.00,0.0459
472.00,0.0458
469.00,0.0456
466.00,0.0455
463.00,0.0454
460.00,0.0447
457.00,0.0448
454.00,0.0443
451.00,0.0441
448.00,0.0441
445.00,0.0444
442.00,0.0435
439.00,0.0435
436.00,0.0427
433.00,0.0423
430.00,0.0419
427.00,0.0406
424.00,0.0404
421.00,0.0408
418.00,0.0398
415.00,0.0390
412.00,0.0417
409.00,0.0442
406.00,0.0410
403.00,0.0390
400.00,0.0397