File: FTIR/Olivia/2025_07_24_Polystyrene_Std_scan3.csv
Created as New Dataset,Sample 907 By YargerLab Date Thursday, July 24 2025
cm-1,A
4000.00,0.0006
3997.00,0.0006
3994.00,0.0006
3991.00,0.0005
3988.00,0.0005
3985.00,0.0005
3982.00,0.0005
3979.00,0.0005
3976.00,0.0006
3973.00,0.0006
3970.00,0.0005
3967.00,0.0005
3964.00,0.0005
3961.00,0.0005
3958.00,0.0005
3955.00,0.0005
3952.00,0.0005
3949.00,0.0005
3946.00,0.0005
3943.00,0.0005
3940.00,0.0005
3937.00,0.0005
3934.00,0.0005
3931.00,0.0005
3928.00,0.0005
3925.00,0.0005
3922.00,0.0005
3919.00,0.0005
3916.00,0.0005
3913.00,0.0006
3910.00,0.0006
3907.00,0.0005
3904.00,0.0006
3901.00,0.0005
3898.00,0.0005
3895.00,0.0005
3892.00,0.0006
3889.00,0.0006
3886.00,0.0005
3883.00,0.0005
3880.00,0.0005
3877.00,0.0006
3874.00,0.0005
3871.00,0.0005
3868.00,0.0005
3865.00,0.0004
3862.00,0.0005
3859.00,0.0005
3856.00,0.0007
3853.00,0.0006
3850.00,0.0005
3847.00,0.0005
3844.00,0.0005
3841.00,0.0005
3838.00,0.0005
3835.00,0.0005
3832.00,0.0006
3829.00,0.0006
3826.00,0.0006
3823.00,0.0006
3820.00,0.0006
3817.00,0.0006
3814.00,0.0006
3811.00,0.0006
3808.00,0.0006
3805.00,0.0006
3802.00,0.0006
3799.00,0.0006
3796.00,0.0006
3793.00,0.0006
3790.00,0.0006
3787.00,0.0006
3784.00,0.0006
3781.00,0.0006
3778.00,0.0006
3775.00,0.0006
3772.00,0.0006
3769.00,0.0006
3766.00,0.0006
3763.00,0.0006
3760.00,0.0006
3757.00,0.0006
3754.00,0.0007
3751.00,0.0006
3748.00,0.0006
3745.00,0.0006
3742.00,0.0006
3739.00,0.0006
3736.00,0.0005
3733.00,0.0006
3730.00,0.0006
3727.00,0.0005
3724.00,0.0005
3721.00,0.0005
3718.00,0.0005
3715.00,0.0006
3712.00,0.0006
3709.00,0.0005
3706.00,0.0005
3703.00,0.0005
3700.00,0.0005
3697.00,0.0005
3694.00,0.0005
3691.00,0.0005
3688.00,0.0005
3685.00,0.0005
3682.00,0.0005
3679.00,0.0006
3676.00,0.0006
3673.00,0.0006
3670.00,0.0006
3667.00,0.0006
3664.00,0.0006
3661.00,0.0006
3658.00,0.0006
3655.00,0.0006
3652.00,0.0006
3649.00,0.0006
3646.00,0.0005
3643.00,0.0005
3640.00,0.0005
3637.00,0.0005
3634.00,0.0005
3631.00,0.0006
3628.00,0.0006
3625.00,0.0005
3622.00,0.0005
3619.00,0.0006
3616.00,0.0005
3613.00,0.0005
3610.00,0.0004
3607.00,0.0005
3604.00,0.0005
3601.00,0.0005
3598.00,0.0005
3595.00,0.0004
3592.00,0.0005
3589.00,0.0005
3586.00,0.0005
3583.00,0.0004
3580.00,0.0005
3577.00,0.0006
3574.00,0.0005
3571.00,0.0005
3568.00,0.0004
3565.00,0.0005
3562.00,0.0005
3559.00,0.0006
3556.00,0.0006
3553.00,0.0006
3550.00,0.0007
3547.00,0.0006
3544.00,0.0007
3541.00,0.0007
3538.00,0.0008
3535.00,0.0007
3532.00,0.0007
3529.00,0.0007
3526.00,0.0007
3523.00,0.0007
3520.00,0.0007
3517.00,0.0008
3514.00,0.0008
3511.00,0.0008
3508.00,0.0008
3505.00,0.0008
3502.00,0.0008
3499.00,0.0008
3496.00,0.0008
3493.00,0.0008
3490.00,0.0008
3487.00,0.0008
3484.00,0.0008
3481.00,0.0009
3478.00,0.0009
3475.00,0.0009
3472.00,0.0009
3469.00,0.0009
3466.00,0.0009
3463.00,0.0009
3460.00,0.0009
3457.00,0.0009
3454.00,0.0009
3451.00,0.0009
3448.00,0.0009
3445.00,0.0009
3442.00,0.0009
3439.00,0.0010
3436.00,0.0009
3433.00,0.0009
3430.00,0.0008
3427.00,0.0008
3424.00,0.0009
3421.00,0.0009
3418.00,0.0009
3415.00,0.0008
3412.00,0.0009
3409.00,0.0009
3406.00,0.0009
3403.00,0.0009
3400.00,0.0009
3397.00,0.0008
3394.00,0.0008
3391.00,0.0008
3388.00,0.0008
3385.00,0.0008
3382.00,0.0008
3379.00,0.0008
3376.00,0.0008
3373.00,0.0008
3370.00,0.0008
3367.00,0.0008
3364.00,0.0008
3361.00,0.0008
3358.00,0.0008
3355.00,0.0008
3352.00,0.0008
3349.00,0.0008
3346.00,0.0008
3343.00,0.0008
3340.00,0.0008
3337.00,0.0008
3334.00,0.0008
3331.00,0.0008
3328.00,0.0008
3325.00,0.0008
3322.00,0.0008
3319.00,0.0008
3316.00,0.0008
3313.00,0.0008
3310.00,0.0008
3307.00,0.0008
3304.00,0.0008
3301.00,0.0007
3298.00,0.0007
3295.00,0.0007
3292.00,0.0007
3289.00,0.0008
3286.00,0.0008
3283.00,0.0008
3280.00,0.0008
3277.00,0.0008
3274.00,0.0008
3271.00,0.0008
3268.00,0.0007
3265.00,0.0007
3262.00,0.0008
3259.00,0.0007
3256.00,0.0007
3253.00,0.0007
3250.00,0.0007
3247.00,0.0007
3244.00,0.0007
3241.00,0.0008
3238.00,0.0007
3235.00,0.0007
3232.00,0.0007
3229.00,0.0007
3226.00,0.0007
3223.00,0.0007
3220.00,0.0006
3217.00,0.0007
3214.00,0.0007
3211.00,0.0007
3208.00,0.0007
3205.00,0.0008
3202.00,0.0008
3199.00,0.0008
3196.00,0.0008
3193.00,0.0007
3190.00,0.0008
3187.00,0.0007
3184.00,0.0007
3181.00,0.0007
3178.00,0.0007
3175.00,0.0007
3172.00,0.0007
3169.00,0.0008
3166.00,0.0008
3163.00,0.0008
3160.00,0.0008
3157.00,0.0007
3154.00,0.0007
3151.00,0.0007
3148.00,0.0007
3145.00,0.0007
3142.00,0.0007
3139.00,0.0007
3136.00,0.0007
3133.00,0.0007
3130.00,0.0007
3127.00,0.0007
3124.00,0.0007
3121.00,0.0008
3118.00,0.0009
3115.00,0.0011
3112.00,0.0013
3109.00,0.0017
3106.00,0.0021
3103.00,0.0024
3100.00,0.0022
3097.00,0.0022
3094.00,0.0024
3091.00,0.0030
3088.00,0.0043
3085.00,0.0056
3082.00,0.0062
3079.00,0.0056
3076.00,0.0048
3073.00,0.0045
3070.00,0.0049
3067.00,0.0059
3064.00,0.0074
3061.00,0.0084
3058.00,0.0083
3055.00,0.0071
3052.00,0.0058
3049.00,0.0048
3046.00,0.0044
3043.00,0.0045
3040.00,0.0052
3037.00,0.0064
3034.00,0.0086
3031.00,0.0119
3028.00,0.0153
3025.00,0.0166
3022.00,0.0144
3019.00,0.0103
3016.00,0.0069
3013.00,0.0050
3010.00,0.0042
3007.00,0.0042
3004.00,0.0047
3001.00,0.0048
2998.00,0.0042
2995.00,0.0033
2992.00,0.0027
2989.00,0.0025
2986.00,0.0024
2983.00,0.0024
2980.00,0.0025
2977.00,0.0025
2974.00,0.0026
2971.00,0.0028
2968.00,0.0030
2965.00,0.0032
2962.00,0.0036
2959.00,0.0040
2956.00,0.0045
2953.00,0.0052
2950.00,0.0060
2947.00,0.0072
2944.00,0.0085
2941.00,0.0101
2938.00,0.0119
2935.00,0.0140
2932.00,0.0162
2929.00,0.0181
2926.00,0.0195
2923.00,0.0202
2920.00,0.0202
2917.00,0.0195
2914.00,0.0184
2911.00,0.0170
2908.00,0.0155
2905.00,0.0139
2902.00,0.0124
2899.00,0.0109
2896.00,0.0096
2893.00,0.0086
2890.00,0.0078
2887.00,0.0072
2884.00,0.0067
2881.00,0.0062
2878.00,0.0057
2875.00,0.0054
2872.00,0.0051
2869.00,0.0050
2866.00,0.0052
2863.00,0.0056
2860.00,0.0064
2857.00,0.0073
2854.00,0.0082
2851.00,0.0088
2848.00,0.0087
2845.00,0.0080
2842.00,0.0066
2839.00,0.0050
2836.00,0.0038
2833.00,0.0029
2830.00,0.0024
2827.00,0.0022
2824.00,0.0020
2821.00,0.0019
2818.00,0.0018
2815.00,0.0017
2812.00,0.0017
2809.00,0.0017
2806.00,0.0016
2803.00,0.0016
2800.00,0.0015
2797.00,0.0015
2794.00,0.0014
2791.00,0.0013
2788.00,0.0013
2785.00,0.0013
2782.00,0.0013
2779.00,0.0012
2776.00,0.0012
2773.00,0.0012
2770.00,0.0012
2767.00,0.0011
2764.00,0.0011
2761.00,0.0011
2758.00,0.0011
2755.00,0.0011
2752.00,0.0011
2749.00,0.0011
2746.00,0.0011
2743.00,0.0011
2740.00,0.0010
2737.00,0.0010
2734.00,0.0011
2731.00,0.0011
2728.00,0.0011
2725.00,0.0011
2722.00,0.0011
2719.00,0.0011
2716.00,0.0011
2713.00,0.0011
2710.00,0.0011
2707.00,0.0011
2704.00,0.0011
2701.00,0.0011
2698.00,0.0011
2695.00,0.0011
2692.00,0.0011
2689.00,0.0010
2686.00,0.0010
2683.00,0.0010
2680.00,0.0010
2677.00,0.0010
2674.00,0.0011
2671.00,0.0011
2668.00,0.0011
2665.00,0.0012
2662.00,0.0014
2659.00,0.0015
2656.00,0.0015
2653.00,0.0016
2650.00,0.0016
2647.00,0.0016
2644.00,0.0016
2641.00,0.0017
2638.00,0.0016
2635.00,0.0016
2632.00,0.0017
2629.00,0.0016
2626.00,0.0015
2623.00,0.0015
2620.00,0.0014
2617.00,0.0014
2614.00,0.0014
2611.00,0.0015
2608.00,0.0015
2605.00,0.0014
2602.00,0.0014
2599.00,0.0014
2596.00,0.0013
2593.00,0.0012
2590.00,0.0012
2587.00,0.0012
2584.00,0.0012
2581.00,0.0012
2578.00,0.0011
2575.00,0.0011
2572.00,0.0011
2569.00,0.0010
2566.00,0.0010
2563.00,0.0010
2560.00,0.0009
2557.00,0.0009
2554.00,0.0010
2551.00,0.0010
2548.00,0.0009
2545.00,0.0009
2542.00,0.0008
2539.00,0.0009
2536.00,0.0009
2533.00,0.0008
2530.00,0.0008
2527.00,0.0008
2524.00,0.0009
2521.00,0.0009
2518.00,0.0009
2515.00,0.0008
2512.00,0.0008
2509.00,0.0008
2506.00,0.0008
2503.00,0.0008
2500.00,0.0008
2497.00,0.0008
2494.00,0.0007
2491.00,0.0007
2488.00,0.0008
2485.00,0.0007
2482.00,0.0007
2479.00,0.0007
2476.00,0.0005
2473.00,0.0006
2470.00,0.0006
2467.00,0.0007
2464.00,0.0006
2461.00,0.0007
2458.00,0.0008
2455.00,0.0008
2452.00,0.0008
2449.00,0.0008
2446.00,0.0007
2443.00,0.0007
2440.00,0.0007
2437.00,0.0007
2434.00,0.0006
2431.00,0.0004
2428.00,0.0005
2425.00,0.0005
2422.00,0.0005
2419.00,0.0005
2416.00,0.0005
2413.00,0.0005
2410.00,0.0004
2407.00,0.0003
2404.00,0.0003
2401.00,0.0003
2398.00,0.0003
2395.00,0.0002
2392.00,0.0002
2389.00,0.0002
2386.00,0.0002
2383.00,0.0002
2380.00,0.0002
2377.00,0.0002
2374.00,0.0003
2371.00,0.0002
2368.00,0.0002
2365.00,0.0003
2362.00,0.0004
2359.00,0.0005
2356.00,0.0004
2353.00,0.0004
2350.00,0.0005
2347.00,0.0008
2344.00,0.0008
2341.00,0.0008
2338.00,0.0010
2335.00,0.0009
2332.00,0.0008
2329.00,0.0010
2326.00,0.0019
2323.00,0.0019
2320.00,0.0014
2317.00,0.0013
2314.00,0.0013
2311.00,0.0012
2308.00,0.0011
2305.00,0.0011
2302.00,0.0011
2299.00,0.0012
2296.00,0.0013
2293.00,0.0015
2290.00,0.0017
2287.00,0.0017
2284.00,0.0015
2281.00,0.0014
2278.00,0.0013
2275.00,0.0012
2272.00,0.0011
2269.00,0.0011
2266.00,0.0008
2263.00,0.0008
2260.00,0.0012
2257.00,0.0011
2254.00,0.0007
2251.00,0.0007
2248.00,0.0009
2245.00,0.0010
2242.00,0.0009
2239.00,0.0010
2236.00,0.0008
2233.00,0.0006
2230.00,0.0006
2227.00,0.0006
2224.00,0.0006
2221.00,0.0005
2218.00,0.0007
2215.00,0.0007
2212.00,0.0008
2209.00,0.0008
2206.00,0.0007
2203.00,0.0006
2200.00,0.0008
2197.00,0.0008
2194.00,0.0010
2191.00,0.0010
2188.00,0.0012
2185.00,0.0011
2182.00,0.0004
2179.00,0.0006
2176.00,0.0002
2173.00,0.0004
2170.00,0.0009
2167.00,0.0016
2164.00,0.0018
2161.00,0.0003
2158.00,-0.0027
2155.00,-0.0021
2152.00,-0.0014
2149.00,-0.0013
2146.00,-0.0014
2143.00,-0.0013
2140.00,-0.0011
2137.00,-0.0014
2134.00,-0.0017
2131.00,-0.0013
2128.00,-0.0009
2125.00,-0.0006
2122.00,-0.0004
2119.00,-0.0001
2116.00,0.0003
2113.00,0.0003
2110.00,0.0005
2107.00,0.0003
2104.00,0.0002
2101.00,0.0002
2098.00,0.0001
2095.00,-0.0002
2092.00,0.0001
2089.00,0.0002
2086.00,0.0003
2083.00,0.0004
2080.00,0.0005
2077.00,0.0005
2074.00,0.0003
2071.00,0.0003
2068.00,0.0002
2065.00,0.0001
2062.00,0.0003
2059.00,0.0002
2056.00,-0.0000
2053.00,0.0007
2050.00,0.0011
2047.00,0.0002
2044.00,0.0000
2041.00,0.0005
2038.00,0.0008
2035.00,0.0002
2032.00,-0.0004
2029.00,-0.0001
2026.00,-0.0004
2023.00,-0.0002
2020.00,-0.0004
2017.00,-0.0002
2014.00,-0.0000
2011.00,-0.0001
2008.00,-0.0008
2005.00,-0.0010
2002.00,-0.0007
1999.00,-0.0004
1996.00,0.0003
1993.00,0.0005
1990.00,0.0004
1987.00,0.0006
1984.00,0.0012
1981.00,0.0019
1978.00,0.0004
1975.00,-0.0003
1972.00,-0.0003
1969.00,-0.0001
1966.00,-0.0000
1963.00,0.0001
1960.00,0.0002
1957.00,0.0007
1954.00,0.0012
1951.00,0.0016
1948.00,0.0017
1945.00,0.0017
1942.00,0.0018
1939.00,0.0015
1936.00,0.0011
1933.00,0.0007
1930.00,0.0004
1927.00,0.0003
1924.00,0.0004
1921.00,0.0004
1918.00,0.0002
1915.00,0.0001
1912.00,0.0001
1909.00,0.0001
1906.00,0.0003
1903.00,0.0002
1900.00,0.0003
1897.00,0.0006
1894.00,0.0007
1891.00,0.0008
1888.00,0.0011
1885.00,0.0014
1882.00,0.0015
1879.00,0.0017
1876.00,0.0018
1873.00,0.0019
1870.00,0.0019
1867.00,0.0018
1864.00,0.0016
1861.00,0.0013
1858.00,0.0010
1855.00,0.0007
1852.00,0.0005
1849.00,0.0004
1846.00,0.0003
1843.00,0.0003
1840.00,0.0003
1837.00,0.0004
1834.00,0.0005
1831.00,0.0006
1828.00,0.0007
1825.00,0.0009
1822.00,0.0011
1819.00,0.0011
1816.00,0.0012
1813.00,0.0016
1810.00,0.0019
1807.00,0.0022
1804.00,0.0023
1801.00,0.0024
1798.00,0.0022
1795.00,0.0020
1792.00,0.0016
1789.00,0.0014
1786.00,0.0012
1783.00,0.0012
1780.00,0.0012
1777.00,0.0012
1774.00,0.0013
1771.00,0.0014
1768.00,0.0014
1765.00,0.0015
1762.00,0.0017
1759.00,0.0019
1756.00,0.0022
1753.00,0.0024
1750.00,0.0027
1747.00,0.0030
1744.00,0.0031
1741.00,0.0032
1738.00,0.0031
1735.00,0.0030
1732.00,0.0028
1729.00,0.0026
1726.00,0.0025
1723.00,0.0023
1720.00,0.0023
1717.00,0.0021
1714.00,0.0020
1711.00,0.0019
1708.00,0.0019
1705.00,0.0018
1702.00,0.0018
1699.00,0.0016
1696.00,0.0015
1693.00,0.0014
1690.00,0.0015
1687.00,0.0016
1684.00,0.0017
1681.00,0.0018
1678.00,0.0019
1675.00,0.0020
1672.00,0.0021
1669.00,0.0022
1666.00,0.0022
1663.00,0.0022
1660.00,0.0021
1657.00,0.0020
1654.00,0.0019
1651.00,0.0018
1648.00,0.0018
1645.00,0.0018
1642.00,0.0017
1639.00,0.0017
1636.00,0.0016
1633.00,0.0016
1630.00,0.0016
1627.00,0.0017
1624.00,0.0018
1621.00,0.0019
1618.00,0.0020
1615.00,0.0023
1612.00,0.0031
1609.00,0.0050
1606.00,0.0093
1603.00,0.0145
1600.00,0.0154
1597.00,0.0110
1594.00,0.0071
1591.00,0.0051
1588.00,0.0046
1585.00,0.0061
1582.00,0.0064
1579.00,0.0043
1576.00,0.0028
1573.00,0.0022
1570.00,0.0018
1567.00,0.0016
1564.00,0.0015
1561.00,0.0015
1558.00,0.0016
1555.00,0.0017
1552.00,0.0018
1549.00,0.0020
1546.00,0.0023
1543.00,0.0024
1540.00,0.0024
1537.00,0.0021
1534.00,0.0019
1531.00,0.0016
1528.00,0.0015
1525.00,0.0014
1522.00,0.0014
1519.00,0.0014
1516.00,0.0015
1513.00,0.0016
1510.00,0.0018
1507.00,0.0023
1504.00,0.0032
1501.00,0.0053
1498.00,0.0120
1495.00,0.0297
1492.00,0.0383
1489.00,0.0235
1486.00,0.0123
1483.00,0.0075
1480.00,0.0052
1477.00,0.0042
1474.00,0.0039
1471.00,0.0038
1468.00,0.0040
1465.00,0.0045
1462.00,0.0056
1459.00,0.0087
1456.00,0.0222
1453.00,0.0372
1450.00,0.0368
1447.00,0.0281
1444.00,0.0221
1441.00,0.0172
1438.00,0.0135
1435.00,0.0095
1432.00,0.0071
1429.00,0.0053
1426.00,0.0044
1423.00,0.0039
1420.00,0.0036
1417.00,0.0034
1414.00,0.0033
1411.00,0.0032
1408.00,0.0032
1405.00,0.0032
1402.00,0.0032
1399.00,0.0033
1396.00,0.0036
1393.00,0.0040
1390.00,0.0047
1387.00,0.0055
1384.00,0.0064
1381.00,0.0072
1378.00,0.0079
1375.00,0.0086
1372.00,0.0088
1369.00,0.0088
1366.00,0.0086
1363.00,0.0084
1360.00,0.0080
1357.00,0.0077
1354.00,0.0075
1351.00,0.0075
1348.00,0.0074
1345.00,0.0071
1342.00,0.0067
1339.00,0.0063
1336.00,0.0064
1333.00,0.0069
1330.00,0.0074
1327.00,0.0074
1324.00,0.0071
1321.00,0.0068
1318.00,0.0068
1315.00,0.0070
1312.00,0.0071
1309.00,0.0070
1306.00,0.0066
1303.00,0.0062
1300.00,0.0059
1297.00,0.0057
1294.00,0.0055
1291.00,0.0054
1288.00,0.0051
1285.00,0.0050
1282.00,0.0050
1279.00,0.0049
1276.00,0.0046
1273.00,0.0043
1270.00,0.0040
1267.00,0.0039
1264.00,0.0038
1261.00,0.0037
1258.00,0.0037
1255.00,0.0038
1252.00,0.0038
1249.00,0.0039
1246.00,0.0039
1243.00,0.0039
1240.00,0.0038
1237.00,0.0038
1234.00,0.0037
1231.00,0.0038
1228.00,0.0038
1225.00,0.0039
1222.00,0.0039
1219.00,0.0039
1216.00,0.0040
1213.00,0.0041
1210.00,0.0043
1207.00,0.0047
1204.00,0.0051
1201.00,0.0055
1198.00,0.0059
1195.00,0.0060
1192.00,0.0061
1189.00,0.0063
1186.00,0.0070
1183.00,0.0081
1180.00,0.0084
1177.00,0.0069
1174.00,0.0056
1171.00,0.0051
1168.00,0.0049
1165.00,0.0050
1162.00,0.0055
1159.00,0.0067
1156.00,0.0083
1153.00,0.0083
1150.00,0.0063
1147.00,0.0049
1144.00,0.0042
1141.00,0.0038
1138.00,0.0035
1135.00,0.0034
1132.00,0.0033
1129.00,0.0033
1126.00,0.0034
1123.00,0.0036
1120.00,0.0040
1117.00,0.0043
1114.00,0.0046
1111.00,0.0047
1108.00,0.0047
1105.00,0.0046
1102.00,0.0046
1099.00,0.0048
1096.00,0.0051
1093.00,0.0053
1090.00,0.0056
1087.00,0.0060
1084.00,0.0065
1081.00,0.0074
1078.00,0.0083
1075.00,0.0095
1072.00,0.0108
1069.00,0.0115
1066.00,0.0110
1063.00,0.0097
1060.00,0.0085
1057.00,0.0076
1054.00,0.0069
1051.00,0.0064
1048.00,0.0060
1045.00,0.0057
1042.00,0.0057
1039.00,0.0064
1036.00,0.0086
1033.00,0.0133
1030.00,0.0184
1027.00,0.0193
1024.00,0.0157
1021.00,0.0123
1018.00,0.0103
1015.00,0.0090
1012.00,0.0081
1009.00,0.0077
1006.00,0.0080
1003.00,0.0085
1000.00,0.0073
997.00,0.0061
994.00,0.0059
991.00,0.0059
988.00,0.0062
985.00,0.0068
982.00,0.0073
979.00,0.0074
976.00,0.0070
973.00,0.0068
970.00,0.0072
967.00,0.0080
964.00,0.0083
961.00,0.0077
958.00,0.0067
955.00,0.0060
952.00,0.0058
949.00,0.0060
946.00,0.0063
943.00,0.0065
940.00,0.0062
937.00,0.0056
934.00,0.0051
931.00,0.0046
928.00,0.0044
925.00,0.0045
922.00,0.0049
919.00,0.0055
916.00,0.0067
913.00,0.0088
910.00,0.0115
907.00,0.0132
904.00,0.0124
901.00,0.0098
898.00,0.0070
895.00,0.0054
892.00,0.0046
889.00,0.0041
886.00,0.0037
883.00,0.0034
880.00,0.0034
877.00,0.0033
874.00,0.0032
871.00,0.0030
868.00,0.0029
865.00,0.0029
862.00,0.0028
859.00,0.0029
856.00,0.0030
853.00,0.0034
850.00,0.0041
847.00,0.0054
844.00,0.0065
841.00,0.0066
838.00,0.0060
835.00,0.0046
832.00,0.0036
829.00,0.0030
826.00,0.0028
823.00,0.0027
820.00,0.0026
817.00,0.0026
814.00,0.0027
811.00,0.0028
808.00,0.0029
805.00,0.0030
802.00,0.0032
799.00,0.0036
796.00,0.0041
793.00,0.0049
790.00,0.0059
787.00,0.0071
784.00,0.0088
781.00,0.0109
778.00,0.0139
775.00,0.0183
772.00,0.0238
769.00,0.0303
766.00,0.0370
763.00,0.0431
760.00,0.0495
757.00,0.0543
754.00,0.0556
751.00,0.0551
748.00,0.0546
745.00,0.0502
742.00,0.0403
739.00,0.0298
736.00,0.0213
733.00,0.0141
730.00,0.0093
727.00,0.0071
724.00,0.0062
721.00,0.0060
718.00,0.0065
715.00,0.0080
712.00,0.0122
709.00,0.0228
706.00,0.0429
703.00,0.0719
700.00,0.1065
697.00,0.1395
694.00,0.1464
691.00,0.1096
688.00,0.0715
685.00,0.0503
682.00,0.0387
679.00,0.0317
676.00,0.0272
673.00,0.0242
670.00,0.0223
667.00,0.0197
664.00,0.0175
661.00,0.0153
658.00,0.0134
655.00,0.0120
652.00,0.0108
649.00,0.0098
646.00,0.0090
643.00,0.0088
640.00,0.0086
637.00,0.0090
634.00,0.0098
631.00,0.0105
628.00,0.0109
625.00,0.0112
622.00,0.0119
619.00,0.0117
616.00,0.0106
613.00,0.0101
610.00,0.0096
607.00,0.0094
604.00,0.0092
601.00,0.0095
598.00,0.0099
595.00,0.0103
592.00,0.0108
589.00,0.0112
586.00,0.0115
583.00,0.0125
580.00,0.0138
577.00,0.0154
574.00,0.0181
571.00,0.0204
568.00,0.0221
565.00,0.0243
562.00,0.0264
559.00,0.0289
556.00,0.0314
553.00,0.0340
550.00,0.0371
547.00,0.0409
544.00,0.0457
541.00,0.0506
538.00,0.0525
535.00,0.0497
532.00,0.0425
529.00,0.0350
526.00,0.0285
523.00,0.0240
520.00,0.0209
517.00,0.0184
514.00,0.0164
511.00,0.0153
508.00,0.0143
505.00,0.0129
502.00,0.0119
499.00,0.0110
496.00,0.0103
493.00,0.0094
490.00,0.0092
487.00,0.0088
484.00,0.0085
481.00,0.0087
478.00,0.0077
475.00,0.0081
472.00,0.0074
469.00,0.0080
466.00,0.0076
463.00,0.0070
460.00,0.0072
457.00,0.0075
454.00,0.0069
451.00,0.0064
448.00,0.0064
445.00,0.0070
442.00,0.0070
439.00,0.0068
436.00,0.0067
433.00,0.0065
430.00,0.0062
427.00,0.0073
424.00,0.0053
421.00,0.0055
418.00,0.0055
415.00,0.0048
412.00,0.0062
409.00,0.0067
406.00,0.0063
403.00,0.0061
400.00,0.0045