File: FTIR/Olivia/2025_07_28_Polystyrene_Std_scan2.csv
Created as New Dataset,Sample 933 By YargerLab Date Monday, July 28 2025
cm-1,A
4000.00,0.0033
3997.00,0.0032
3994.00,0.0032
3991.00,0.0032
3988.00,0.0031
3985.00,0.0032
3982.00,0.0033
3979.00,0.0032
3976.00,0.0032
3973.00,0.0032
3970.00,0.0032
3967.00,0.0031
3964.00,0.0031
3961.00,0.0032
3958.00,0.0032
3955.00,0.0031
3952.00,0.0031
3949.00,0.0031
3946.00,0.0031
3943.00,0.0031
3940.00,0.0031
3937.00,0.0031
3934.00,0.0031
3931.00,0.0031
3928.00,0.0031
3925.00,0.0031
3922.00,0.0031
3919.00,0.0031
3916.00,0.0031
3913.00,0.0031
3910.00,0.0031
3907.00,0.0031
3904.00,0.0031
3901.00,0.0029
3898.00,0.0030
3895.00,0.0030
3892.00,0.0030
3889.00,0.0030
3886.00,0.0030
3883.00,0.0030
3880.00,0.0030
3877.00,0.0030
3874.00,0.0030
3871.00,0.0029
3868.00,0.0029
3865.00,0.0028
3862.00,0.0029
3859.00,0.0030
3856.00,0.0030
3853.00,0.0029
3850.00,0.0028
3847.00,0.0029
3844.00,0.0030
3841.00,0.0029
3838.00,0.0028
3835.00,0.0028
3832.00,0.0029
3829.00,0.0030
3826.00,0.0030
3823.00,0.0029
3820.00,0.0029
3817.00,0.0029
3814.00,0.0030
3811.00,0.0031
3808.00,0.0031
3805.00,0.0030
3802.00,0.0028
3799.00,0.0030
3796.00,0.0030
3793.00,0.0031
3790.00,0.0031
3787.00,0.0031
3784.00,0.0031
3781.00,0.0030
3778.00,0.0031
3775.00,0.0031
3772.00,0.0030
3769.00,0.0030
3766.00,0.0030
3763.00,0.0030
3760.00,0.0030
3757.00,0.0029
3754.00,0.0028
3751.00,0.0027
3748.00,0.0027
3745.00,0.0027
3742.00,0.0028
3739.00,0.0028
3736.00,0.0027
3733.00,0.0027
3730.00,0.0028
3727.00,0.0028
3724.00,0.0029
3721.00,0.0029
3718.00,0.0029
3715.00,0.0029
3712.00,0.0029
3709.00,0.0029
3706.00,0.0030
3703.00,0.0030
3700.00,0.0031
3697.00,0.0030
3694.00,0.0030
3691.00,0.0028
3688.00,0.0027
3685.00,0.0028
3682.00,0.0029
3679.00,0.0030
3676.00,0.0028
3673.00,0.0027
3670.00,0.0028
3667.00,0.0029
3664.00,0.0029
3661.00,0.0029
3658.00,0.0029
3655.00,0.0029
3652.00,0.0028
3649.00,0.0029
3646.00,0.0029
3643.00,0.0030
3640.00,0.0031
3637.00,0.0031
3634.00,0.0031
3631.00,0.0030
3628.00,0.0029
3625.00,0.0030
3622.00,0.0031
3619.00,0.0031
3616.00,0.0030
3613.00,0.0031
3610.00,0.0030
3607.00,0.0031
3604.00,0.0032
3601.00,0.0032
3598.00,0.0032
3595.00,0.0032
3592.00,0.0032
3589.00,0.0031
3586.00,0.0032
3583.00,0.0033
3580.00,0.0033
3577.00,0.0034
3574.00,0.0034
3571.00,0.0034
3568.00,0.0034
3565.00,0.0034
3562.00,0.0035
3559.00,0.0036
3556.00,0.0037
3553.00,0.0037
3550.00,0.0037
3547.00,0.0037
3544.00,0.0038
3541.00,0.0038
3538.00,0.0038
3535.00,0.0038
3532.00,0.0038
3529.00,0.0038
3526.00,0.0038
3523.00,0.0037
3520.00,0.0038
3517.00,0.0038
3514.00,0.0038
3511.00,0.0038
3508.00,0.0038
3505.00,0.0038
3502.00,0.0038
3499.00,0.0038
3496.00,0.0038
3493.00,0.0038
3490.00,0.0039
3487.00,0.0039
3484.00,0.0039
3481.00,0.0040
3478.00,0.0040
3475.00,0.0040
3472.00,0.0040
3469.00,0.0040
3466.00,0.0040
3463.00,0.0040
3460.00,0.0040
3457.00,0.0040
3454.00,0.0040
3451.00,0.0041
3448.00,0.0041
3445.00,0.0040
3442.00,0.0041
3439.00,0.0041
3436.00,0.0040
3433.00,0.0041
3430.00,0.0041
3427.00,0.0041
3424.00,0.0040
3421.00,0.0040
3418.00,0.0041
3415.00,0.0041
3412.00,0.0041
3409.00,0.0041
3406.00,0.0041
3403.00,0.0041
3400.00,0.0041
3397.00,0.0041
3394.00,0.0040
3391.00,0.0041
3388.00,0.0040
3385.00,0.0040
3382.00,0.0040
3379.00,0.0040
3376.00,0.0040
3373.00,0.0040
3370.00,0.0039
3367.00,0.0038
3364.00,0.0039
3361.00,0.0039
3358.00,0.0039
3355.00,0.0039
3352.00,0.0039
3349.00,0.0039
3346.00,0.0039
3343.00,0.0039
3340.00,0.0038
3337.00,0.0038
3334.00,0.0039
3331.00,0.0038
3328.00,0.0038
3325.00,0.0037
3322.00,0.0038
3319.00,0.0038
3316.00,0.0037
3313.00,0.0037
3310.00,0.0037
3307.00,0.0037
3304.00,0.0037
3301.00,0.0037
3298.00,0.0037
3295.00,0.0037
3292.00,0.0037
3289.00,0.0037
3286.00,0.0038
3283.00,0.0037
3280.00,0.0036
3277.00,0.0036
3274.00,0.0036
3271.00,0.0036
3268.00,0.0036
3265.00,0.0036
3262.00,0.0036
3259.00,0.0036
3256.00,0.0035
3253.00,0.0035
3250.00,0.0035
3247.00,0.0034
3244.00,0.0035
3241.00,0.0035
3238.00,0.0034
3235.00,0.0033
3232.00,0.0034
3229.00,0.0034
3226.00,0.0034
3223.00,0.0034
3220.00,0.0034
3217.00,0.0034
3214.00,0.0035
3211.00,0.0035
3208.00,0.0035
3205.00,0.0035
3202.00,0.0035
3199.00,0.0035
3196.00,0.0035
3193.00,0.0034
3190.00,0.0034
3187.00,0.0033
3184.00,0.0033
3181.00,0.0033
3178.00,0.0033
3175.00,0.0033
3172.00,0.0034
3169.00,0.0034
3166.00,0.0035
3163.00,0.0035
3160.00,0.0035
3157.00,0.0033
3154.00,0.0033
3151.00,0.0033
3148.00,0.0033
3145.00,0.0033
3142.00,0.0032
3139.00,0.0032
3136.00,0.0032
3133.00,0.0032
3130.00,0.0033
3127.00,0.0033
3124.00,0.0033
3121.00,0.0034
3118.00,0.0035
3115.00,0.0039
3112.00,0.0044
3109.00,0.0050
3106.00,0.0057
3103.00,0.0060
3100.00,0.0058
3097.00,0.0058
3094.00,0.0062
3091.00,0.0074
3088.00,0.0096
3085.00,0.0119
3082.00,0.0127
3079.00,0.0114
3076.00,0.0101
3073.00,0.0097
3070.00,0.0106
3067.00,0.0125
3064.00,0.0150
3061.00,0.0168
3058.00,0.0163
3055.00,0.0139
3052.00,0.0116
3049.00,0.0101
3046.00,0.0094
3043.00,0.0097
3040.00,0.0110
3037.00,0.0134
3034.00,0.0176
3031.00,0.0235
3028.00,0.0294
3025.00,0.0311
3022.00,0.0264
3019.00,0.0190
3016.00,0.0134
3013.00,0.0104
3010.00,0.0091
3007.00,0.0091
3004.00,0.0097
3001.00,0.0096
2998.00,0.0083
2995.00,0.0067
2992.00,0.0057
2989.00,0.0052
2986.00,0.0050
2983.00,0.0046
2980.00,0.0045
2977.00,0.0049
2974.00,0.0051
2971.00,0.0054
2968.00,0.0059
2965.00,0.0065
2962.00,0.0072
2959.00,0.0080
2956.00,0.0091
2953.00,0.0103
2950.00,0.0119
2947.00,0.0138
2944.00,0.0162
2941.00,0.0190
2938.00,0.0223
2935.00,0.0260
2932.00,0.0298
2929.00,0.0333
2926.00,0.0359
2923.00,0.0371
2920.00,0.0371
2917.00,0.0358
2914.00,0.0338
2911.00,0.0314
2908.00,0.0289
2905.00,0.0262
2902.00,0.0234
2899.00,0.0207
2896.00,0.0183
2893.00,0.0166
2890.00,0.0153
2887.00,0.0143
2884.00,0.0134
2881.00,0.0125
2878.00,0.0118
2875.00,0.0112
2872.00,0.0108
2869.00,0.0106
2866.00,0.0109
2863.00,0.0117
2860.00,0.0130
2857.00,0.0147
2854.00,0.0162
2851.00,0.0172
2848.00,0.0171
2845.00,0.0159
2842.00,0.0136
2839.00,0.0109
2836.00,0.0087
2833.00,0.0072
2830.00,0.0064
2827.00,0.0059
2824.00,0.0056
2821.00,0.0054
2818.00,0.0053
2815.00,0.0052
2812.00,0.0051
2809.00,0.0050
2806.00,0.0049
2803.00,0.0049
2800.00,0.0048
2797.00,0.0047
2794.00,0.0045
2791.00,0.0044
2788.00,0.0045
2785.00,0.0044
2782.00,0.0044
2779.00,0.0044
2776.00,0.0043
2773.00,0.0043
2770.00,0.0042
2767.00,0.0041
2764.00,0.0041
2761.00,0.0041
2758.00,0.0041
2755.00,0.0040
2752.00,0.0040
2749.00,0.0040
2746.00,0.0040
2743.00,0.0040
2740.00,0.0040
2737.00,0.0040
2734.00,0.0040
2731.00,0.0040
2728.00,0.0040
2725.00,0.0040
2722.00,0.0039
2719.00,0.0039
2716.00,0.0039
2713.00,0.0039
2710.00,0.0039
2707.00,0.0039
2704.00,0.0039
2701.00,0.0039
2698.00,0.0039
2695.00,0.0039
2692.00,0.0039
2689.00,0.0039
2686.00,0.0039
2683.00,0.0039
2680.00,0.0039
2677.00,0.0039
2674.00,0.0039
2671.00,0.0039
2668.00,0.0039
2665.00,0.0040
2662.00,0.0042
2659.00,0.0043
2656.00,0.0044
2653.00,0.0044
2650.00,0.0044
2647.00,0.0044
2644.00,0.0044
2641.00,0.0044
2638.00,0.0045
2635.00,0.0045
2632.00,0.0045
2629.00,0.0045
2626.00,0.0043
2623.00,0.0042
2620.00,0.0042
2617.00,0.0041
2614.00,0.0041
2611.00,0.0041
2608.00,0.0041
2605.00,0.0041
2602.00,0.0041
2599.00,0.0040
2596.00,0.0039
2593.00,0.0038
2590.00,0.0037
2587.00,0.0038
2584.00,0.0038
2581.00,0.0039
2578.00,0.0038
2575.00,0.0036
2572.00,0.0036
2569.00,0.0035
2566.00,0.0035
2563.00,0.0035
2560.00,0.0035
2557.00,0.0035
2554.00,0.0034
2551.00,0.0034
2548.00,0.0035
2545.00,0.0034
2542.00,0.0034
2539.00,0.0033
2536.00,0.0034
2533.00,0.0034
2530.00,0.0034
2527.00,0.0034
2524.00,0.0034
2521.00,0.0033
2518.00,0.0033
2515.00,0.0033
2512.00,0.0033
2509.00,0.0033
2506.00,0.0033
2503.00,0.0033
2500.00,0.0032
2497.00,0.0032
2494.00,0.0032
2491.00,0.0032
2488.00,0.0032
2485.00,0.0032
2482.00,0.0031
2479.00,0.0031
2476.00,0.0030
2473.00,0.0030
2470.00,0.0031
2467.00,0.0031
2464.00,0.0030
2461.00,0.0031
2458.00,0.0032
2455.00,0.0032
2452.00,0.0031
2449.00,0.0030
2446.00,0.0030
2443.00,0.0030
2440.00,0.0029
2437.00,0.0029
2434.00,0.0029
2431.00,0.0028
2428.00,0.0027
2425.00,0.0027
2422.00,0.0026
2419.00,0.0027
2416.00,0.0027
2413.00,0.0027
2410.00,0.0027
2407.00,0.0025
2404.00,0.0025
2401.00,0.0025
2398.00,0.0026
2395.00,0.0025
2392.00,0.0025
2389.00,0.0025
2386.00,0.0024
2383.00,0.0024
2380.00,0.0025
2377.00,0.0025
2374.00,0.0025
2371.00,0.0023
2368.00,0.0024
2365.00,0.0026
2362.00,0.0027
2359.00,0.0029
2356.00,0.0030
2353.00,0.0030
2350.00,0.0030
2347.00,0.0032
2344.00,0.0032
2341.00,0.0034
2338.00,0.0035
2335.00,0.0035
2332.00,0.0034
2329.00,0.0037
2326.00,0.0048
2323.00,0.0046
2320.00,0.0041
2317.00,0.0039
2314.00,0.0039
2311.00,0.0038
2308.00,0.0037
2305.00,0.0037
2302.00,0.0035
2299.00,0.0035
2296.00,0.0037
2293.00,0.0039
2290.00,0.0041
2287.00,0.0041
2284.00,0.0038
2281.00,0.0036
2278.00,0.0034
2275.00,0.0033
2272.00,0.0033
2269.00,0.0032
2266.00,0.0030
2263.00,0.0031
2260.00,0.0032
2257.00,0.0029
2254.00,0.0027
2251.00,0.0028
2248.00,0.0029
2245.00,0.0030
2242.00,0.0028
2239.00,0.0028
2236.00,0.0027
2233.00,0.0027
2230.00,0.0027
2227.00,0.0027
2224.00,0.0026
2221.00,0.0026
2218.00,0.0027
2215.00,0.0026
2212.00,0.0024
2209.00,0.0027
2206.00,0.0026
2203.00,0.0025
2200.00,0.0026
2197.00,0.0026
2194.00,0.0027
2191.00,0.0028
2188.00,0.0030
2185.00,0.0028
2182.00,0.0021
2179.00,0.0025
2176.00,0.0019
2173.00,0.0020
2170.00,0.0030
2167.00,0.0033
2164.00,0.0037
2161.00,0.0015
2158.00,-0.0020
2155.00,-0.0008
2152.00,-0.0001
2149.00,0.0001
2146.00,0.0003
2143.00,0.0004
2140.00,0.0004
2137.00,-0.0000
2134.00,-0.0002
2131.00,0.0003
2128.00,0.0008
2125.00,0.0011
2122.00,0.0013
2119.00,0.0017
2116.00,0.0021
2113.00,0.0021
2110.00,0.0022
2107.00,0.0022
2104.00,0.0022
2101.00,0.0021
2098.00,0.0019
2095.00,0.0014
2092.00,0.0018
2089.00,0.0020
2086.00,0.0021
2083.00,0.0022
2080.00,0.0022
2077.00,0.0022
2074.00,0.0021
2071.00,0.0022
2068.00,0.0019
2065.00,0.0017
2062.00,0.0017
2059.00,0.0016
2056.00,0.0016
2053.00,0.0025
2050.00,0.0026
2047.00,0.0016
2044.00,0.0017
2041.00,0.0021
2038.00,0.0022
2035.00,0.0019
2032.00,0.0012
2029.00,0.0010
2026.00,0.0009
2023.00,0.0010
2020.00,0.0009
2017.00,0.0011
2014.00,0.0013
2011.00,0.0014
2008.00,0.0009
2005.00,0.0004
2002.00,0.0008
1999.00,0.0014
1996.00,0.0017
1993.00,0.0023
1990.00,0.0025
1987.00,0.0027
1984.00,0.0034
1981.00,0.0036
1978.00,0.0017
1975.00,0.0012
1972.00,0.0013
1969.00,0.0020
1966.00,0.0022
1963.00,0.0024
1960.00,0.0024
1957.00,0.0031
1954.00,0.0038
1951.00,0.0042
1948.00,0.0047
1945.00,0.0050
1942.00,0.0051
1939.00,0.0048
1936.00,0.0041
1933.00,0.0034
1930.00,0.0028
1927.00,0.0026
1924.00,0.0023
1921.00,0.0021
1918.00,0.0020
1915.00,0.0020
1912.00,0.0021
1909.00,0.0022
1906.00,0.0022
1903.00,0.0022
1900.00,0.0024
1897.00,0.0027
1894.00,0.0031
1891.00,0.0035
1888.00,0.0038
1885.00,0.0040
1882.00,0.0042
1879.00,0.0046
1876.00,0.0048
1873.00,0.0049
1870.00,0.0051
1867.00,0.0050
1864.00,0.0045
1861.00,0.0040
1858.00,0.0035
1855.00,0.0030
1852.00,0.0026
1849.00,0.0024
1846.00,0.0022
1843.00,0.0022
1840.00,0.0022
1837.00,0.0023
1834.00,0.0024
1831.00,0.0026
1828.00,0.0029
1825.00,0.0032
1822.00,0.0035
1819.00,0.0036
1816.00,0.0039
1813.00,0.0044
1810.00,0.0051
1807.00,0.0055
1804.00,0.0058
1801.00,0.0058
1798.00,0.0054
1795.00,0.0050
1792.00,0.0043
1789.00,0.0038
1786.00,0.0036
1783.00,0.0035
1780.00,0.0035
1777.00,0.0035
1774.00,0.0036
1771.00,0.0036
1768.00,0.0037
1765.00,0.0038
1762.00,0.0042
1759.00,0.0046
1756.00,0.0050
1753.00,0.0055
1750.00,0.0062
1747.00,0.0067
1744.00,0.0071
1741.00,0.0072
1738.00,0.0073
1735.00,0.0072
1732.00,0.0070
1729.00,0.0066
1726.00,0.0063
1723.00,0.0060
1720.00,0.0057
1717.00,0.0056
1714.00,0.0054
1711.00,0.0053
1708.00,0.0051
1705.00,0.0051
1702.00,0.0050
1699.00,0.0048
1696.00,0.0047
1693.00,0.0047
1690.00,0.0048
1687.00,0.0049
1684.00,0.0052
1681.00,0.0053
1678.00,0.0053
1675.00,0.0054
1672.00,0.0055
1669.00,0.0054
1666.00,0.0052
1663.00,0.0051
1660.00,0.0049
1657.00,0.0048
1654.00,0.0047
1651.00,0.0046
1648.00,0.0045
1645.00,0.0045
1642.00,0.0045
1639.00,0.0045
1636.00,0.0045
1633.00,0.0046
1630.00,0.0047
1627.00,0.0048
1624.00,0.0049
1621.00,0.0050
1618.00,0.0052
1615.00,0.0060
1612.00,0.0074
1609.00,0.0112
1606.00,0.0191
1603.00,0.0286
1600.00,0.0296
1597.00,0.0213
1594.00,0.0144
1591.00,0.0110
1588.00,0.0103
1585.00,0.0129
1582.00,0.0131
1579.00,0.0093
1576.00,0.0068
1573.00,0.0058
1570.00,0.0052
1567.00,0.0048
1564.00,0.0046
1561.00,0.0046
1558.00,0.0046
1555.00,0.0049
1552.00,0.0053
1549.00,0.0057
1546.00,0.0060
1543.00,0.0061
1540.00,0.0058
1537.00,0.0055
1534.00,0.0052
1531.00,0.0047
1528.00,0.0045
1525.00,0.0043
1522.00,0.0042
1519.00,0.0043
1516.00,0.0044
1513.00,0.0046
1510.00,0.0052
1507.00,0.0059
1504.00,0.0075
1501.00,0.0112
1498.00,0.0243
1495.00,0.0589
1492.00,0.0715
1489.00,0.0431
1486.00,0.0234
1483.00,0.0149
1480.00,0.0109
1477.00,0.0094
1474.00,0.0088
1471.00,0.0087
1468.00,0.0091
1465.00,0.0099
1462.00,0.0118
1459.00,0.0176
1456.00,0.0454
1453.00,0.0723
1450.00,0.0695
1447.00,0.0533
1444.00,0.0419
1441.00,0.0326
1438.00,0.0258
1435.00,0.0191
1432.00,0.0148
1429.00,0.0117
1426.00,0.0101
1423.00,0.0091
1420.00,0.0087
1417.00,0.0083
1414.00,0.0079
1411.00,0.0077
1408.00,0.0075
1405.00,0.0073
1402.00,0.0071
1399.00,0.0073
1396.00,0.0077
1393.00,0.0084
1390.00,0.0096
1387.00,0.0112
1384.00,0.0126
1381.00,0.0139
1378.00,0.0153
1375.00,0.0165
1372.00,0.0170
1369.00,0.0168
1366.00,0.0165
1363.00,0.0162
1360.00,0.0155
1357.00,0.0149
1354.00,0.0145
1351.00,0.0144
1348.00,0.0143
1345.00,0.0137
1342.00,0.0131
1339.00,0.0127
1336.00,0.0128
1333.00,0.0136
1330.00,0.0144
1327.00,0.0144
1324.00,0.0139
1321.00,0.0135
1318.00,0.0135
1315.00,0.0139
1312.00,0.0140
1309.00,0.0136
1306.00,0.0130
1303.00,0.0123
1300.00,0.0117
1297.00,0.0113
1294.00,0.0110
1291.00,0.0107
1288.00,0.0104
1285.00,0.0103
1282.00,0.0102
1279.00,0.0100
1276.00,0.0095
1273.00,0.0090
1270.00,0.0086
1267.00,0.0084
1264.00,0.0083
1261.00,0.0081
1258.00,0.0080
1255.00,0.0080
1252.00,0.0081
1249.00,0.0082
1246.00,0.0083
1243.00,0.0083
1240.00,0.0081
1237.00,0.0081
1234.00,0.0080
1231.00,0.0081
1228.00,0.0082
1225.00,0.0083
1222.00,0.0083
1219.00,0.0083
1216.00,0.0085
1213.00,0.0088
1210.00,0.0092
1207.00,0.0099
1204.00,0.0107
1201.00,0.0115
1198.00,0.0121
1195.00,0.0125
1192.00,0.0127
1189.00,0.0131
1186.00,0.0146
1183.00,0.0167
1180.00,0.0170
1177.00,0.0144
1174.00,0.0123
1171.00,0.0115
1168.00,0.0113
1165.00,0.0115
1162.00,0.0122
1159.00,0.0144
1156.00,0.0171
1153.00,0.0169
1150.00,0.0136
1147.00,0.0111
1144.00,0.0098
1141.00,0.0091
1138.00,0.0086
1135.00,0.0084
1132.00,0.0082
1129.00,0.0083
1126.00,0.0086
1123.00,0.0090
1120.00,0.0096
1117.00,0.0105
1114.00,0.0112
1111.00,0.0114
1108.00,0.0112
1105.00,0.0109
1102.00,0.0111
1099.00,0.0113
1096.00,0.0117
1093.00,0.0120
1090.00,0.0123
1087.00,0.0130
1084.00,0.0142
1081.00,0.0155
1078.00,0.0169
1075.00,0.0191
1072.00,0.0216
1069.00,0.0228
1066.00,0.0218
1063.00,0.0195
1060.00,0.0173
1057.00,0.0157
1054.00,0.0148
1051.00,0.0140
1048.00,0.0135
1045.00,0.0132
1042.00,0.0133
1039.00,0.0145
1036.00,0.0186
1033.00,0.0276
1030.00,0.0365
1027.00,0.0377
1024.00,0.0310
1021.00,0.0248
1018.00,0.0212
1015.00,0.0187
1012.00,0.0171
1009.00,0.0162
1006.00,0.0166
1003.00,0.0172
1000.00,0.0150
997.00,0.0129
994.00,0.0123
991.00,0.0124
988.00,0.0129
985.00,0.0139
982.00,0.0147
979.00,0.0148
976.00,0.0140
973.00,0.0133
970.00,0.0138
967.00,0.0152
964.00,0.0157
961.00,0.0146
958.00,0.0126
955.00,0.0114
952.00,0.0111
949.00,0.0113
946.00,0.0118
943.00,0.0121
940.00,0.0117
937.00,0.0108
934.00,0.0098
931.00,0.0090
928.00,0.0088
925.00,0.0090
922.00,0.0097
919.00,0.0108
916.00,0.0131
913.00,0.0171
910.00,0.0220
907.00,0.0250
904.00,0.0236
901.00,0.0187
898.00,0.0136
895.00,0.0106
892.00,0.0091
889.00,0.0085
886.00,0.0079
883.00,0.0075
880.00,0.0073
877.00,0.0072
874.00,0.0069
871.00,0.0066
868.00,0.0065
865.00,0.0064
862.00,0.0063
859.00,0.0064
856.00,0.0065
853.00,0.0072
850.00,0.0086
847.00,0.0106
844.00,0.0125
841.00,0.0130
838.00,0.0117
835.00,0.0094
832.00,0.0073
829.00,0.0063
826.00,0.0061
823.00,0.0061
820.00,0.0060
817.00,0.0059
814.00,0.0062
811.00,0.0063
808.00,0.0065
805.00,0.0068
802.00,0.0071
799.00,0.0076
796.00,0.0087
793.00,0.0103
790.00,0.0121
787.00,0.0145
784.00,0.0173
781.00,0.0211
778.00,0.0267
775.00,0.0346
772.00,0.0450
769.00,0.0573
766.00,0.0700
763.00,0.0827
760.00,0.0960
757.00,0.1066
754.00,0.1097
751.00,0.1085
748.00,0.1066
745.00,0.0968
742.00,0.0766
739.00,0.0569
736.00,0.0410
733.00,0.0275
730.00,0.0186
727.00,0.0145
724.00,0.0129
721.00,0.0125
718.00,0.0134
715.00,0.0164
712.00,0.0244
709.00,0.0442
706.00,0.0831
703.00,0.1424
700.00,0.2186
697.00,0.3002
694.00,0.3254
691.00,0.2358
688.00,0.1466
685.00,0.1004
682.00,0.0763
679.00,0.0620
676.00,0.0529
673.00,0.0471
670.00,0.0429
667.00,0.0382
664.00,0.0340
661.00,0.0300
658.00,0.0266
655.00,0.0236
652.00,0.0214
649.00,0.0196
646.00,0.0182
643.00,0.0173
640.00,0.0170
637.00,0.0179
634.00,0.0193
631.00,0.0206
628.00,0.0217
625.00,0.0223
622.00,0.0236
619.00,0.0235
616.00,0.0215
613.00,0.0201
610.00,0.0192
607.00,0.0188
604.00,0.0189
601.00,0.0193
598.00,0.0200
595.00,0.0206
592.00,0.0213
589.00,0.0222
586.00,0.0231
583.00,0.0247
580.00,0.0273
577.00,0.0305
574.00,0.0348
571.00,0.0391
568.00,0.0429
565.00,0.0471
562.00,0.0514
559.00,0.0555
556.00,0.0601
553.00,0.0648
550.00,0.0709
547.00,0.0794
544.00,0.0897
541.00,0.1001
538.00,0.1051
535.00,0.0993
532.00,0.0849
529.00,0.0688
526.00,0.0555
523.00,0.0458
520.00,0.0400
517.00,0.0354
514.00,0.0325
511.00,0.0296
508.00,0.0270
505.00,0.0244
502.00,0.0229
499.00,0.0213
496.00,0.0199
493.00,0.0191
490.00,0.0183
487.00,0.0178
484.00,0.0174
481.00,0.0172
478.00,0.0161
475.00,0.0156
472.00,0.0164
469.00,0.0163
466.00,0.0153
463.00,0.0156
460.00,0.0154
457.00,0.0151
454.00,0.0142
451.00,0.0144
448.00,0.0136
445.00,0.0137
442.00,0.0135
439.00,0.0131
436.00,0.0123
433.00,0.0122
430.00,0.0128
427.00,0.0126
424.00,0.0128
421.00,0.0122
418.00,0.0110
415.00,0.0128
412.00,0.0114
409.00,0.0122
406.00,0.0142
403.00,0.0116
400.00,0.0094