File: FTIR/Olivia/2025_08_06_1CBN_3PVP10_MP_Powder_Sigma2.csv
Created as New Dataset,Sample 006 By YargerLab Date Wednesday, August 06 2025
cm-1,A
4000.00,0.0008
3997.00,0.0008
3994.00,0.0008
3991.00,0.0008
3988.00,0.0008
3985.00,0.0008
3982.00,0.0008
3979.00,0.0008
3976.00,0.0008
3973.00,0.0008
3970.00,0.0008
3967.00,0.0008
3964.00,0.0008
3961.00,0.0007
3958.00,0.0008
3955.00,0.0008
3952.00,0.0008
3949.00,0.0008
3946.00,0.0007
3943.00,0.0007
3940.00,0.0007
3937.00,0.0007
3934.00,0.0007
3931.00,0.0007
3928.00,0.0008
3925.00,0.0008
3922.00,0.0007
3919.00,0.0007
3916.00,0.0007
3913.00,0.0008
3910.00,0.0008
3907.00,0.0007
3904.00,0.0006
3901.00,0.0006
3898.00,0.0007
3895.00,0.0007
3892.00,0.0007
3889.00,0.0007
3886.00,0.0006
3883.00,0.0006
3880.00,0.0007
3877.00,0.0007
3874.00,0.0006
3871.00,0.0006
3868.00,0.0006
3865.00,0.0006
3862.00,0.0007
3859.00,0.0007
3856.00,0.0006
3853.00,0.0006
3850.00,0.0006
3847.00,0.0007
3844.00,0.0007
3841.00,0.0006
3838.00,0.0006
3835.00,0.0007
3832.00,0.0007
3829.00,0.0008
3826.00,0.0008
3823.00,0.0007
3820.00,0.0006
3817.00,0.0007
3814.00,0.0008
3811.00,0.0008
3808.00,0.0007
3805.00,0.0007
3802.00,0.0007
3799.00,0.0006
3796.00,0.0007
3793.00,0.0008
3790.00,0.0008
3787.00,0.0008
3784.00,0.0008
3781.00,0.0008
3778.00,0.0008
3775.00,0.0008
3772.00,0.0008
3769.00,0.0007
3766.00,0.0007
3763.00,0.0008
3760.00,0.0008
3757.00,0.0008
3754.00,0.0007
3751.00,0.0005
3748.00,0.0004
3745.00,0.0004
3742.00,0.0005
3739.00,0.0006
3736.00,0.0006
3733.00,0.0007
3730.00,0.0007
3727.00,0.0007
3724.00,0.0007
3721.00,0.0007
3718.00,0.0008
3715.00,0.0007
3712.00,0.0007
3709.00,0.0006
3706.00,0.0007
3703.00,0.0008
3700.00,0.0008
3697.00,0.0008
3694.00,0.0008
3691.00,0.0007
3688.00,0.0008
3685.00,0.0009
3682.00,0.0010
3679.00,0.0010
3676.00,0.0010
3673.00,0.0009
3670.00,0.0010
3667.00,0.0011
3664.00,0.0013
3661.00,0.0014
3658.00,0.0014
3655.00,0.0015
3652.00,0.0015
3649.00,0.0015
3646.00,0.0015
3643.00,0.0019
3640.00,0.0020
3637.00,0.0021
3634.00,0.0022
3631.00,0.0023
3628.00,0.0023
3625.00,0.0025
3622.00,0.0027
3619.00,0.0028
3616.00,0.0029
3613.00,0.0031
3610.00,0.0033
3607.00,0.0034
3604.00,0.0037
3601.00,0.0039
3598.00,0.0041
3595.00,0.0042
3592.00,0.0044
3589.00,0.0047
3586.00,0.0047
3583.00,0.0050
3580.00,0.0053
3577.00,0.0056
3574.00,0.0059
3571.00,0.0062
3568.00,0.0064
3565.00,0.0064
3562.00,0.0068
3559.00,0.0072
3556.00,0.0074
3553.00,0.0077
3550.00,0.0079
3547.00,0.0082
3544.00,0.0083
3541.00,0.0086
3538.00,0.0089
3535.00,0.0091
3532.00,0.0093
3529.00,0.0096
3526.00,0.0098
3523.00,0.0099
3520.00,0.0101
3517.00,0.0103
3514.00,0.0104
3511.00,0.0106
3508.00,0.0108
3505.00,0.0110
3502.00,0.0110
3499.00,0.0111
3496.00,0.0114
3493.00,0.0115
3490.00,0.0117
3487.00,0.0117
3484.00,0.0118
3481.00,0.0119
3478.00,0.0121
3475.00,0.0122
3472.00,0.0123
3469.00,0.0125
3466.00,0.0126
3463.00,0.0127
3460.00,0.0128
3457.00,0.0129
3454.00,0.0130
3451.00,0.0131
3448.00,0.0132
3445.00,0.0133
3442.00,0.0134
3439.00,0.0135
3436.00,0.0136
3433.00,0.0136
3430.00,0.0137
3427.00,0.0138
3424.00,0.0138
3421.00,0.0139
3418.00,0.0139
3415.00,0.0141
3412.00,0.0142
3409.00,0.0143
3406.00,0.0144
3403.00,0.0145
3400.00,0.0146
3397.00,0.0146
3394.00,0.0146
3391.00,0.0145
3388.00,0.0145
3385.00,0.0144
3382.00,0.0143
3379.00,0.0142
3376.00,0.0140
3373.00,0.0138
3370.00,0.0136
3367.00,0.0135
3364.00,0.0133
3361.00,0.0131
3358.00,0.0130
3355.00,0.0128
3352.00,0.0126
3349.00,0.0125
3346.00,0.0124
3343.00,0.0122
3340.00,0.0120
3337.00,0.0119
3334.00,0.0118
3331.00,0.0117
3328.00,0.0116
3325.00,0.0115
3322.00,0.0115
3319.00,0.0114
3316.00,0.0112
3313.00,0.0112
3310.00,0.0111
3307.00,0.0110
3304.00,0.0110
3301.00,0.0110
3298.00,0.0110
3295.00,0.0109
3292.00,0.0109
3289.00,0.0110
3286.00,0.0109
3283.00,0.0109
3280.00,0.0109
3277.00,0.0108
3274.00,0.0107
3271.00,0.0106
3268.00,0.0106
3265.00,0.0106
3262.00,0.0105
3259.00,0.0105
3256.00,0.0104
3253.00,0.0103
3250.00,0.0102
3247.00,0.0101
3244.00,0.0101
3241.00,0.0100
3238.00,0.0098
3235.00,0.0097
3232.00,0.0096
3229.00,0.0096
3226.00,0.0095
3223.00,0.0094
3220.00,0.0093
3217.00,0.0092
3214.00,0.0090
3211.00,0.0089
3208.00,0.0088
3205.00,0.0087
3202.00,0.0086
3199.00,0.0083
3196.00,0.0082
3193.00,0.0081
3190.00,0.0079
3187.00,0.0077
3184.00,0.0076
3181.00,0.0075
3178.00,0.0073
3175.00,0.0072
3172.00,0.0071
3169.00,0.0069
3166.00,0.0067
3163.00,0.0066
3160.00,0.0064
3157.00,0.0063
3154.00,0.0062
3151.00,0.0060
3148.00,0.0059
3145.00,0.0057
3142.00,0.0056
3139.00,0.0055
3136.00,0.0054
3133.00,0.0053
3130.00,0.0051
3127.00,0.0050
3124.00,0.0049
3121.00,0.0049
3118.00,0.0047
3115.00,0.0046
3112.00,0.0045
3109.00,0.0045
3106.00,0.0044
3103.00,0.0043
3100.00,0.0043
3097.00,0.0042
3094.00,0.0041
3091.00,0.0040
3088.00,0.0040
3085.00,0.0039
3082.00,0.0038
3079.00,0.0038
3076.00,0.0037
3073.00,0.0036
3070.00,0.0035
3067.00,0.0035
3064.00,0.0035
3061.00,0.0034
3058.00,0.0034
3055.00,0.0033
3052.00,0.0033
3049.00,0.0032
3046.00,0.0032
3043.00,0.0032
3040.00,0.0031
3037.00,0.0031
3034.00,0.0032
3031.00,0.0031
3028.00,0.0031
3025.00,0.0031
3022.00,0.0031
3019.00,0.0032
3016.00,0.0032
3013.00,0.0033
3010.00,0.0035
3007.00,0.0039
3004.00,0.0042
3001.00,0.0048
2998.00,0.0054
2995.00,0.0059
2992.00,0.0063
2989.00,0.0066
2986.00,0.0071
2983.00,0.0077
2980.00,0.0081
2977.00,0.0086
2974.00,0.0093
2971.00,0.0100
2968.00,0.0103
2965.00,0.0108
2962.00,0.0111
2959.00,0.0109
2956.00,0.0106
2953.00,0.0106
2950.00,0.0107
2947.00,0.0108
2944.00,0.0108
2941.00,0.0109
2938.00,0.0112
2935.00,0.0117
2932.00,0.0121
2929.00,0.0125
2926.00,0.0125
2923.00,0.0121
2920.00,0.0116
2917.00,0.0110
2914.00,0.0106
2911.00,0.0102
2908.00,0.0098
2905.00,0.0095
2902.00,0.0093
2899.00,0.0092
2896.00,0.0092
2893.00,0.0091
2890.00,0.0091
2887.00,0.0090
2884.00,0.0089
2881.00,0.0089
2878.00,0.0089
2875.00,0.0089
2872.00,0.0088
2869.00,0.0087
2866.00,0.0087
2863.00,0.0090
2860.00,0.0091
2857.00,0.0089
2854.00,0.0084
2851.00,0.0078
2848.00,0.0070
2845.00,0.0063
2842.00,0.0056
2839.00,0.0051
2836.00,0.0048
2833.00,0.0045
2830.00,0.0042
2827.00,0.0040
2824.00,0.0038
2821.00,0.0035
2818.00,0.0034
2815.00,0.0032
2812.00,0.0031
2809.00,0.0030
2806.00,0.0029
2803.00,0.0028
2800.00,0.0027
2797.00,0.0026
2794.00,0.0026
2791.00,0.0026
2788.00,0.0025
2785.00,0.0025
2782.00,0.0024
2779.00,0.0024
2776.00,0.0023
2773.00,0.0023
2770.00,0.0023
2767.00,0.0022
2764.00,0.0022
2761.00,0.0022
2758.00,0.0022
2755.00,0.0022
2752.00,0.0022
2749.00,0.0022
2746.00,0.0022
2743.00,0.0022
2740.00,0.0022
2737.00,0.0023
2734.00,0.0023
2731.00,0.0023
2728.00,0.0023
2725.00,0.0022
2722.00,0.0022
2719.00,0.0022
2716.00,0.0022
2713.00,0.0021
2710.00,0.0021
2707.00,0.0021
2704.00,0.0021
2701.00,0.0021
2698.00,0.0020
2695.00,0.0020
2692.00,0.0020
2689.00,0.0019
2686.00,0.0019
2683.00,0.0019
2680.00,0.0019
2677.00,0.0019
2674.00,0.0019
2671.00,0.0019
2668.00,0.0019
2665.00,0.0021
2662.00,0.0022
2659.00,0.0023
2656.00,0.0024
2653.00,0.0024
2650.00,0.0024
2647.00,0.0024
2644.00,0.0024
2641.00,0.0023
2638.00,0.0023
2635.00,0.0023
2632.00,0.0022
2629.00,0.0022
2626.00,0.0022
2623.00,0.0022
2620.00,0.0022
2617.00,0.0021
2614.00,0.0020
2611.00,0.0021
2608.00,0.0021
2605.00,0.0020
2602.00,0.0021
2599.00,0.0021
2596.00,0.0020
2593.00,0.0020
2590.00,0.0020
2587.00,0.0020
2584.00,0.0020
2581.00,0.0019
2578.00,0.0019
2575.00,0.0020
2572.00,0.0019
2569.00,0.0019
2566.00,0.0018
2563.00,0.0018
2560.00,0.0018
2557.00,0.0017
2554.00,0.0017
2551.00,0.0017
2548.00,0.0017
2545.00,0.0016
2542.00,0.0016
2539.00,0.0016
2536.00,0.0016
2533.00,0.0016
2530.00,0.0015
2527.00,0.0015
2524.00,0.0015
2521.00,0.0015
2518.00,0.0015
2515.00,0.0014
2512.00,0.0014
2509.00,0.0014
2506.00,0.0014
2503.00,0.0014
2500.00,0.0014
2497.00,0.0014
2494.00,0.0014
2491.00,0.0014
2488.00,0.0013
2485.00,0.0014
2482.00,0.0013
2479.00,0.0013
2476.00,0.0013
2473.00,0.0013
2470.00,0.0013
2467.00,0.0013
2464.00,0.0013
2461.00,0.0014
2458.00,0.0015
2455.00,0.0014
2452.00,0.0014
2449.00,0.0014
2446.00,0.0014
2443.00,0.0013
2440.00,0.0013
2437.00,0.0013
2434.00,0.0013
2431.00,0.0012
2428.00,0.0012
2425.00,0.0012
2422.00,0.0012
2419.00,0.0013
2416.00,0.0012
2413.00,0.0012
2410.00,0.0013
2407.00,0.0011
2404.00,0.0011
2401.00,0.0011
2398.00,0.0011
2395.00,0.0011
2392.00,0.0011
2389.00,0.0011
2386.00,0.0010
2383.00,0.0009
2380.00,0.0009
2377.00,0.0010
2374.00,0.0010
2371.00,0.0009
2368.00,0.0009
2365.00,0.0009
2362.00,0.0010
2359.00,0.0011
2356.00,0.0012
2353.00,0.0011
2350.00,0.0012
2347.00,0.0013
2344.00,0.0014
2341.00,0.0015
2338.00,0.0015
2335.00,0.0015
2332.00,0.0015
2329.00,0.0017
2326.00,0.0027
2323.00,0.0025
2320.00,0.0021
2317.00,0.0020
2314.00,0.0018
2311.00,0.0017
2308.00,0.0018
2305.00,0.0018
2302.00,0.0019
2299.00,0.0020
2296.00,0.0022
2293.00,0.0024
2290.00,0.0026
2287.00,0.0027
2284.00,0.0024
2281.00,0.0022
2278.00,0.0020
2275.00,0.0020
2272.00,0.0021
2269.00,0.0020
2266.00,0.0018
2263.00,0.0020
2260.00,0.0019
2257.00,0.0017
2254.00,0.0014
2251.00,0.0015
2248.00,0.0018
2245.00,0.0020
2242.00,0.0018
2239.00,0.0018
2236.00,0.0018
2233.00,0.0017
2230.00,0.0016
2227.00,0.0017
2224.00,0.0017
2221.00,0.0019
2218.00,0.0019
2215.00,0.0018
2212.00,0.0017
2209.00,0.0017
2206.00,0.0018
2203.00,0.0018
2200.00,0.0018
2197.00,0.0018
2194.00,0.0022
2191.00,0.0023
2188.00,0.0024
2185.00,0.0022
2182.00,0.0015
2179.00,0.0017
2176.00,0.0014
2173.00,0.0016
2170.00,0.0026
2167.00,0.0028
2164.00,0.0034
2161.00,0.0015
2158.00,-0.0016
2155.00,-0.0005
2152.00,0.0001
2149.00,0.0002
2146.00,-0.0001
2143.00,0.0001
2140.00,0.0003
2137.00,-0.0001
2134.00,-0.0007
2131.00,0.0001
2128.00,0.0006
2125.00,0.0007
2122.00,0.0009
2119.00,0.0014
2116.00,0.0019
2113.00,0.0018
2110.00,0.0016
2107.00,0.0015
2104.00,0.0015
2101.00,0.0015
2098.00,0.0014
2095.00,0.0009
2092.00,0.0012
2089.00,0.0015
2086.00,0.0016
2083.00,0.0018
2080.00,0.0018
2077.00,0.0016
2074.00,0.0016
2071.00,0.0014
2068.00,0.0011
2065.00,0.0012
2062.00,0.0014
2059.00,0.0014
2056.00,0.0015
2053.00,0.0022
2050.00,0.0024
2047.00,0.0016
2044.00,0.0014
2041.00,0.0014
2038.00,0.0016
2035.00,0.0013
2032.00,0.0007
2029.00,0.0007
2026.00,0.0007
2023.00,0.0005
2020.00,0.0005
2017.00,0.0008
2014.00,0.0009
2011.00,0.0009
2008.00,0.0001
2005.00,-0.0001
2002.00,0.0005
1999.00,0.0008
1996.00,0.0009
1993.00,0.0010
1990.00,0.0010
1987.00,0.0011
1984.00,0.0018
1981.00,0.0024
1978.00,0.0010
1975.00,-0.0001
1972.00,-0.0001
1969.00,-0.0001
1966.00,0.0003
1963.00,0.0003
1960.00,-0.0004
1957.00,-0.0004
1954.00,0.0002
1951.00,0.0002
1948.00,0.0003
1945.00,0.0002
1942.00,0.0003
1939.00,0.0002
1936.00,0.0001
1933.00,0.0002
1930.00,0.0002
1927.00,0.0003
1924.00,0.0004
1921.00,0.0005
1918.00,0.0005
1915.00,0.0007
1912.00,0.0007
1909.00,0.0007
1906.00,0.0007
1903.00,0.0007
1900.00,0.0006
1897.00,0.0006
1894.00,0.0007
1891.00,0.0005
1888.00,0.0006
1885.00,0.0006
1882.00,0.0006
1879.00,0.0007
1876.00,0.0007
1873.00,0.0006
1870.00,0.0006
1867.00,0.0007
1864.00,0.0007
1861.00,0.0007
1858.00,0.0007
1855.00,0.0008
1852.00,0.0008
1849.00,0.0008
1846.00,0.0007
1843.00,0.0007
1840.00,0.0007
1837.00,0.0007
1834.00,0.0007
1831.00,0.0007
1828.00,0.0006
1825.00,0.0007
1822.00,0.0008
1819.00,0.0006
1816.00,0.0005
1813.00,0.0007
1810.00,0.0008
1807.00,0.0008
1804.00,0.0008
1801.00,0.0008
1798.00,0.0009
1795.00,0.0008
1792.00,0.0008
1789.00,0.0009
1786.00,0.0010
1783.00,0.0009
1780.00,0.0010
1777.00,0.0010
1774.00,0.0011
1771.00,0.0009
1768.00,0.0010
1765.00,0.0012
1762.00,0.0013
1759.00,0.0012
1756.00,0.0012
1753.00,0.0012
1750.00,0.0012
1747.00,0.0013
1744.00,0.0014
1741.00,0.0015
1738.00,0.0015
1735.00,0.0017
1732.00,0.0017
1729.00,0.0020
1726.00,0.0023
1723.00,0.0025
1720.00,0.0026
1717.00,0.0028
1714.00,0.0032
1711.00,0.0039
1708.00,0.0044
1705.00,0.0051
1702.00,0.0063
1699.00,0.0082
1696.00,0.0110
1693.00,0.0144
1690.00,0.0187
1687.00,0.0235
1684.00,0.0285
1681.00,0.0333
1678.00,0.0391
1675.00,0.0441
1672.00,0.0489
1669.00,0.0533
1666.00,0.0582
1663.00,0.0640
1660.00,0.0676
1657.00,0.0733
1654.00,0.0789
1651.00,0.0732
1648.00,0.0784
1645.00,0.0730
1642.00,0.0724
1639.00,0.0705
1636.00,0.0650
1633.00,0.0564
1630.00,0.0549
1627.00,0.0509
1624.00,0.0476
1621.00,0.0430
1618.00,0.0404
1615.00,0.0342
1612.00,0.0321
1609.00,0.0291
1606.00,0.0253
1603.00,0.0217
1600.00,0.0188
1597.00,0.0168
1594.00,0.0159
1591.00,0.0161
1588.00,0.0165
1585.00,0.0162
1582.00,0.0152
1579.00,0.0141
1576.00,0.0128
1573.00,0.0115
1570.00,0.0108
1567.00,0.0101
1564.00,0.0092
1561.00,0.0083
1558.00,0.0072
1555.00,0.0071
1552.00,0.0069
1549.00,0.0066
1546.00,0.0062
1543.00,0.0059
1540.00,0.0057
1537.00,0.0056
1534.00,0.0055
1531.00,0.0055
1528.00,0.0055
1525.00,0.0055
1522.00,0.0056
1519.00,0.0058
1516.00,0.0062
1513.00,0.0066
1510.00,0.0069
1507.00,0.0080
1504.00,0.0101
1501.00,0.0130
1498.00,0.0168
1495.00,0.0184
1492.00,0.0178
1489.00,0.0148
1486.00,0.0121
1483.00,0.0104
1480.00,0.0095
1477.00,0.0098
1474.00,0.0114
1471.00,0.0158
1468.00,0.0219
1465.00,0.0285
1462.00,0.0323
1459.00,0.0328
1456.00,0.0263
1453.00,0.0237
1450.00,0.0239
1447.00,0.0268
1444.00,0.0318
1441.00,0.0369
1438.00,0.0402
1435.00,0.0400
1432.00,0.0405
1429.00,0.0412
1426.00,0.0448
1423.00,0.0481
1420.00,0.0469
1417.00,0.0375
1414.00,0.0302
1411.00,0.0243
1408.00,0.0210
1405.00,0.0195
1402.00,0.0187
1399.00,0.0176
1396.00,0.0161
1393.00,0.0148
1390.00,0.0145
1387.00,0.0154
1384.00,0.0162
1381.00,0.0173
1378.00,0.0185
1375.00,0.0192
1372.00,0.0187
1369.00,0.0186
1366.00,0.0183
1363.00,0.0176
1360.00,0.0172
1357.00,0.0157
1354.00,0.0139
1351.00,0.0132
1348.00,0.0130
1345.00,0.0125
1342.00,0.0118
1339.00,0.0115
1336.00,0.0120
1333.00,0.0130
1330.00,0.0141
1327.00,0.0155
1324.00,0.0174
1321.00,0.0195
1318.00,0.0208
1315.00,0.0205
1312.00,0.0194
1309.00,0.0188
1306.00,0.0196
1303.00,0.0220
1300.00,0.0259
1297.00,0.0324
1294.00,0.0416
1291.00,0.0501
1288.00,0.0554
1285.00,0.0564
1282.00,0.0533
1279.00,0.0501
1276.00,0.0496
1273.00,0.0497
1270.00,0.0477
1267.00,0.0435
1264.00,0.0379
1261.00,0.0325
1258.00,0.0282
1255.00,0.0251
1252.00,0.0231
1249.00,0.0224
1246.00,0.0227
1243.00,0.0233
1240.00,0.0242
1237.00,0.0257
1234.00,0.0269
1231.00,0.0269
1228.00,0.0265
1225.00,0.0261
1222.00,0.0259
1219.00,0.0262
1216.00,0.0264
1213.00,0.0256
1210.00,0.0236
1207.00,0.0219
1204.00,0.0211
1201.00,0.0213
1198.00,0.0219
1195.00,0.0222
1192.00,0.0208
1189.00,0.0189
1186.00,0.0175
1183.00,0.0167
1180.00,0.0166
1177.00,0.0170
1174.00,0.0176
1171.00,0.0180
1168.00,0.0181
1165.00,0.0177
1162.00,0.0175
1159.00,0.0179
1156.00,0.0189
1153.00,0.0183
1150.00,0.0158
1147.00,0.0139
1144.00,0.0130
1141.00,0.0124
1138.00,0.0124
1135.00,0.0134
1132.00,0.0159
1129.00,0.0176
1126.00,0.0166
1123.00,0.0149
1120.00,0.0135
1117.00,0.0133
1114.00,0.0132
1111.00,0.0129
1108.00,0.0127
1105.00,0.0133
1102.00,0.0147
1099.00,0.0154
1096.00,0.0142
1093.00,0.0128
1090.00,0.0121
1087.00,0.0118
1084.00,0.0117
1081.00,0.0117
1078.00,0.0120
1075.00,0.0125
1072.00,0.0128
1069.00,0.0129
1066.00,0.0134
1063.00,0.0144
1060.00,0.0160
1057.00,0.0181
1054.00,0.0195
1051.00,0.0203
1048.00,0.0199
1045.00,0.0176
1042.00,0.0156
1039.00,0.0150
1036.00,0.0153
1033.00,0.0156
1030.00,0.0174
1027.00,0.0200
1024.00,0.0198
1021.00,0.0183
1018.00,0.0169
1015.00,0.0154
1012.00,0.0142
1009.00,0.0143
1006.00,0.0156
1003.00,0.0163
1000.00,0.0155
997.00,0.0143
994.00,0.0133
991.00,0.0123
988.00,0.0113
985.00,0.0106
982.00,0.0102
979.00,0.0099
976.00,0.0098
973.00,0.0095
970.00,0.0093
967.00,0.0093
964.00,0.0095
961.00,0.0096
958.00,0.0091
955.00,0.0084
952.00,0.0078
949.00,0.0077
946.00,0.0078
943.00,0.0083
940.00,0.0094
937.00,0.0106
934.00,0.0116
931.00,0.0115
928.00,0.0109
925.00,0.0109
922.00,0.0108
919.00,0.0100
916.00,0.0094
913.00,0.0092
910.00,0.0093
907.00,0.0096
904.00,0.0107
901.00,0.0120
898.00,0.0121
895.00,0.0115
892.00,0.0114
889.00,0.0116
886.00,0.0104
883.00,0.0099
880.00,0.0101
877.00,0.0112
874.00,0.0133
871.00,0.0153
868.00,0.0146
865.00,0.0136
862.00,0.0131
859.00,0.0135
856.00,0.0153
853.00,0.0173
850.00,0.0198
847.00,0.0200
844.00,0.0190
841.00,0.0186
838.00,0.0192
835.00,0.0200
832.00,0.0189
829.00,0.0165
826.00,0.0151
823.00,0.0157
820.00,0.0185
817.00,0.0207
814.00,0.0179
811.00,0.0137
808.00,0.0126
805.00,0.0124
802.00,0.0123
799.00,0.0124
796.00,0.0126
793.00,0.0127
790.00,0.0128
787.00,0.0132
784.00,0.0135
781.00,0.0139
778.00,0.0147
775.00,0.0157
772.00,0.0159
769.00,0.0159
766.00,0.0165
763.00,0.0177
760.00,0.0188
757.00,0.0194
754.00,0.0202
751.00,0.0210
748.00,0.0220
745.00,0.0230
742.00,0.0244
739.00,0.0264
736.00,0.0287
733.00,0.0289
730.00,0.0293
727.00,0.0284
724.00,0.0261
721.00,0.0249
718.00,0.0253
715.00,0.0258
712.00,0.0255
709.00,0.0251
706.00,0.0253
703.00,0.0259
700.00,0.0266
697.00,0.0269
694.00,0.0269
691.00,0.0280
688.00,0.0292
685.00,0.0294
682.00,0.0301
679.00,0.0310
676.00,0.0323
673.00,0.0338
670.00,0.0351
667.00,0.0356
664.00,0.0368
661.00,0.0386
658.00,0.0397
655.00,0.0410
652.00,0.0425
649.00,0.0435
646.00,0.0438
643.00,0.0436
640.00,0.0426
637.00,0.0417
634.00,0.0410
631.00,0.0406
628.00,0.0403
625.00,0.0403
622.00,0.0410
619.00,0.0411
616.00,0.0403
613.00,0.0396
610.00,0.0397
607.00,0.0411
604.00,0.0425
601.00,0.0436
598.00,0.0446
595.00,0.0446
592.00,0.0447
589.00,0.0451
586.00,0.0461
583.00,0.0474
580.00,0.0496
577.00,0.0526
574.00,0.0526
571.00,0.0515
568.00,0.0509
565.00,0.0511
562.00,0.0516
559.00,0.0515
556.00,0.0500
553.00,0.0491
550.00,0.0496
547.00,0.0503
544.00,0.0496
541.00,0.0487
538.00,0.0483
535.00,0.0486
532.00,0.0496
529.00,0.0490
526.00,0.0480
523.00,0.0475
520.00,0.0470
517.00,0.0464
514.00,0.0464
511.00,0.0468
508.00,0.0466
505.00,0.0467
502.00,0.0467
499.00,0.0473
496.00,0.0474
493.00,0.0473
490.00,0.0475
487.00,0.0477
484.00,0.0471
481.00,0.0475
478.00,0.0481
475.00,0.0481
472.00,0.0473
469.00,0.0479
466.00,0.0485
463.00,0.0483
460.00,0.0474
457.00,0.0470
454.00,0.0457
451.00,0.0463
448.00,0.0459
445.00,0.0453
442.00,0.0439
439.00,0.0439
436.00,0.0437
433.00,0.0426
430.00,0.0427
427.00,0.0418
424.00,0.0413
421.00,0.0403
418.00,0.0379
415.00,0.0398
412.00,0.0405
409.00,0.0416
406.00,0.0405
403.00,0.0406
400.00,0.0402