File: FTIR/Olivia/2025_07_29_CBN_PVP90kDa_MC_1to3_Powder_scan3.csv
Created as New Dataset,Sample 956 By YargerLab Date Tuesday, July 29 2025
cm-1,A
4000.00,0.0066
3997.00,0.0065
3994.00,0.0065
3991.00,0.0065
3988.00,0.0066
3985.00,0.0066
3982.00,0.0065
3979.00,0.0065
3976.00,0.0066
3973.00,0.0066
3970.00,0.0067
3967.00,0.0067
3964.00,0.0066
3961.00,0.0066
3958.00,0.0065
3955.00,0.0065
3952.00,0.0065
3949.00,0.0065
3946.00,0.0065
3943.00,0.0065
3940.00,0.0065
3937.00,0.0065
3934.00,0.0065
3931.00,0.0065
3928.00,0.0065
3925.00,0.0065
3922.00,0.0066
3919.00,0.0066
3916.00,0.0066
3913.00,0.0065
3910.00,0.0065
3907.00,0.0065
3904.00,0.0065
3901.00,0.0065
3898.00,0.0065
3895.00,0.0064
3892.00,0.0064
3889.00,0.0064
3886.00,0.0064
3883.00,0.0064
3880.00,0.0063
3877.00,0.0064
3874.00,0.0064
3871.00,0.0064
3868.00,0.0064
3865.00,0.0063
3862.00,0.0064
3859.00,0.0064
3856.00,0.0066
3853.00,0.0065
3850.00,0.0064
3847.00,0.0063
3844.00,0.0063
3841.00,0.0062
3838.00,0.0062
3835.00,0.0063
3832.00,0.0063
3829.00,0.0062
3826.00,0.0062
3823.00,0.0062
3820.00,0.0062
3817.00,0.0062
3814.00,0.0063
3811.00,0.0063
3808.00,0.0063
3805.00,0.0062
3802.00,0.0062
3799.00,0.0062
3796.00,0.0062
3793.00,0.0063
3790.00,0.0062
3787.00,0.0062
3784.00,0.0062
3781.00,0.0063
3778.00,0.0063
3775.00,0.0063
3772.00,0.0063
3769.00,0.0062
3766.00,0.0062
3763.00,0.0063
3760.00,0.0062
3757.00,0.0062
3754.00,0.0062
3751.00,0.0062
3748.00,0.0062
3745.00,0.0062
3742.00,0.0062
3739.00,0.0061
3736.00,0.0060
3733.00,0.0061
3730.00,0.0061
3727.00,0.0060
3724.00,0.0060
3721.00,0.0060
3718.00,0.0060
3715.00,0.0060
3712.00,0.0060
3709.00,0.0059
3706.00,0.0059
3703.00,0.0059
3700.00,0.0059
3697.00,0.0059
3694.00,0.0059
3691.00,0.0059
3688.00,0.0058
3685.00,0.0058
3682.00,0.0059
3679.00,0.0058
3676.00,0.0058
3673.00,0.0059
3670.00,0.0059
3667.00,0.0060
3664.00,0.0059
3661.00,0.0059
3658.00,0.0059
3655.00,0.0059
3652.00,0.0059
3649.00,0.0058
3646.00,0.0058
3643.00,0.0058
3640.00,0.0058
3637.00,0.0059
3634.00,0.0059
3631.00,0.0060
3628.00,0.0060
3625.00,0.0059
3622.00,0.0059
3619.00,0.0060
3616.00,0.0060
3613.00,0.0061
3610.00,0.0061
3607.00,0.0062
3604.00,0.0062
3601.00,0.0062
3598.00,0.0063
3595.00,0.0063
3592.00,0.0063
3589.00,0.0063
3586.00,0.0064
3583.00,0.0065
3580.00,0.0066
3577.00,0.0066
3574.00,0.0067
3571.00,0.0067
3568.00,0.0068
3565.00,0.0070
3562.00,0.0071
3559.00,0.0072
3556.00,0.0074
3553.00,0.0075
3550.00,0.0077
3547.00,0.0078
3544.00,0.0080
3541.00,0.0082
3538.00,0.0084
3535.00,0.0086
3532.00,0.0088
3529.00,0.0090
3526.00,0.0092
3523.00,0.0094
3520.00,0.0097
3517.00,0.0099
3514.00,0.0100
3511.00,0.0101
3508.00,0.0104
3505.00,0.0106
3502.00,0.0109
3499.00,0.0111
3496.00,0.0114
3493.00,0.0117
3490.00,0.0120
3487.00,0.0124
3484.00,0.0128
3481.00,0.0133
3478.00,0.0138
3475.00,0.0143
3472.00,0.0148
3469.00,0.0153
3466.00,0.0159
3463.00,0.0165
3460.00,0.0172
3457.00,0.0178
3454.00,0.0185
3451.00,0.0192
3448.00,0.0199
3445.00,0.0207
3442.00,0.0215
3439.00,0.0224
3436.00,0.0234
3433.00,0.0244
3430.00,0.0255
3427.00,0.0266
3424.00,0.0278
3421.00,0.0290
3418.00,0.0303
3415.00,0.0315
3412.00,0.0325
3409.00,0.0334
3406.00,0.0342
3403.00,0.0349
3400.00,0.0351
3397.00,0.0351
3394.00,0.0349
3391.00,0.0346
3388.00,0.0340
3385.00,0.0335
3382.00,0.0327
3379.00,0.0320
3376.00,0.0312
3373.00,0.0305
3370.00,0.0299
3367.00,0.0293
3364.00,0.0286
3361.00,0.0281
3358.00,0.0277
3355.00,0.0272
3352.00,0.0268
3349.00,0.0264
3346.00,0.0262
3343.00,0.0260
3340.00,0.0258
3337.00,0.0256
3334.00,0.0257
3331.00,0.0256
3328.00,0.0256
3325.00,0.0256
3322.00,0.0258
3319.00,0.0259
3316.00,0.0261
3313.00,0.0264
3310.00,0.0266
3307.00,0.0269
3304.00,0.0273
3301.00,0.0276
3298.00,0.0280
3295.00,0.0284
3292.00,0.0288
3289.00,0.0292
3286.00,0.0297
3283.00,0.0302
3280.00,0.0307
3277.00,0.0311
3274.00,0.0316
3271.00,0.0321
3268.00,0.0325
3265.00,0.0330
3262.00,0.0335
3259.00,0.0341
3256.00,0.0346
3253.00,0.0352
3250.00,0.0356
3247.00,0.0359
3244.00,0.0365
3241.00,0.0368
3238.00,0.0369
3235.00,0.0369
3232.00,0.0370
3229.00,0.0371
3226.00,0.0372
3223.00,0.0371
3220.00,0.0369
3217.00,0.0366
3214.00,0.0363
3211.00,0.0359
3208.00,0.0354
3205.00,0.0348
3202.00,0.0342
3199.00,0.0336
3196.00,0.0330
3193.00,0.0323
3190.00,0.0316
3187.00,0.0310
3184.00,0.0304
3181.00,0.0297
3178.00,0.0290
3175.00,0.0283
3172.00,0.0275
3169.00,0.0269
3166.00,0.0262
3163.00,0.0255
3160.00,0.0247
3157.00,0.0239
3154.00,0.0231
3151.00,0.0225
3148.00,0.0219
3145.00,0.0213
3142.00,0.0207
3139.00,0.0201
3136.00,0.0196
3133.00,0.0191
3130.00,0.0187
3127.00,0.0184
3124.00,0.0180
3121.00,0.0176
3118.00,0.0172
3115.00,0.0168
3112.00,0.0164
3109.00,0.0158
3106.00,0.0154
3103.00,0.0151
3100.00,0.0148
3097.00,0.0146
3094.00,0.0146
3091.00,0.0148
3088.00,0.0150
3085.00,0.0150
3082.00,0.0150
3079.00,0.0148
3076.00,0.0146
3073.00,0.0144
3070.00,0.0142
3067.00,0.0141
3064.00,0.0141
3061.00,0.0143
3058.00,0.0144
3055.00,0.0145
3052.00,0.0144
3049.00,0.0143
3046.00,0.0142
3043.00,0.0142
3040.00,0.0146
3037.00,0.0150
3034.00,0.0154
3031.00,0.0155
3028.00,0.0151
3025.00,0.0144
3022.00,0.0138
3019.00,0.0133
3016.00,0.0130
3013.00,0.0130
3010.00,0.0132
3007.00,0.0137
3004.00,0.0147
3001.00,0.0160
2998.00,0.0180
2995.00,0.0204
2992.00,0.0221
2989.00,0.0235
2986.00,0.0254
2983.00,0.0288
2980.00,0.0331
2977.00,0.0350
2974.00,0.0374
2971.00,0.0427
2968.00,0.0458
2965.00,0.0480
2962.00,0.0510
2959.00,0.0517
2956.00,0.0480
2953.00,0.0429
2950.00,0.0394
2947.00,0.0390
2944.00,0.0413
2941.00,0.0457
2938.00,0.0521
2935.00,0.0615
2932.00,0.0726
2929.00,0.0818
2926.00,0.0850
2923.00,0.0813
2920.00,0.0743
2917.00,0.0665
2914.00,0.0593
2911.00,0.0535
2908.00,0.0489
2905.00,0.0451
2902.00,0.0417
2899.00,0.0388
2896.00,0.0363
2893.00,0.0342
2890.00,0.0325
2887.00,0.0311
2884.00,0.0302
2881.00,0.0306
2878.00,0.0331
2875.00,0.0370
2872.00,0.0393
2869.00,0.0390
2866.00,0.0393
2863.00,0.0438
2860.00,0.0522
2857.00,0.0594
2854.00,0.0607
2851.00,0.0571
2848.00,0.0486
2845.00,0.0394
2842.00,0.0324
2839.00,0.0276
2836.00,0.0245
2833.00,0.0224
2830.00,0.0208
2827.00,0.0195
2824.00,0.0185
2821.00,0.0176
2818.00,0.0169
2815.00,0.0164
2812.00,0.0158
2809.00,0.0154
2806.00,0.0151
2803.00,0.0148
2800.00,0.0145
2797.00,0.0141
2794.00,0.0139
2791.00,0.0135
2788.00,0.0132
2785.00,0.0130
2782.00,0.0128
2779.00,0.0126
2776.00,0.0124
2773.00,0.0123
2770.00,0.0122
2767.00,0.0121
2764.00,0.0120
2761.00,0.0120
2758.00,0.0121
2755.00,0.0121
2752.00,0.0121
2749.00,0.0121
2746.00,0.0122
2743.00,0.0123
2740.00,0.0125
2737.00,0.0128
2734.00,0.0131
2731.00,0.0134
2728.00,0.0134
2725.00,0.0131
2722.00,0.0129
2719.00,0.0128
2716.00,0.0125
2713.00,0.0124
2710.00,0.0123
2707.00,0.0123
2704.00,0.0122
2701.00,0.0121
2698.00,0.0120
2695.00,0.0119
2692.00,0.0118
2689.00,0.0116
2686.00,0.0115
2683.00,0.0114
2680.00,0.0113
2677.00,0.0114
2674.00,0.0114
2671.00,0.0115
2668.00,0.0117
2665.00,0.0119
2662.00,0.0121
2659.00,0.0121
2656.00,0.0122
2653.00,0.0122
2650.00,0.0123
2647.00,0.0122
2644.00,0.0122
2641.00,0.0121
2638.00,0.0120
2635.00,0.0118
2632.00,0.0116
2629.00,0.0113
2626.00,0.0112
2623.00,0.0111
2620.00,0.0110
2617.00,0.0109
2614.00,0.0110
2611.00,0.0109
2608.00,0.0110
2605.00,0.0110
2602.00,0.0111
2599.00,0.0112
2596.00,0.0112
2593.00,0.0112
2590.00,0.0113
2587.00,0.0114
2584.00,0.0114
2581.00,0.0113
2578.00,0.0111
2575.00,0.0110
2572.00,0.0110
2569.00,0.0110
2566.00,0.0110
2563.00,0.0109
2560.00,0.0107
2557.00,0.0104
2554.00,0.0103
2551.00,0.0102
2548.00,0.0102
2545.00,0.0103
2542.00,0.0103
2539.00,0.0103
2536.00,0.0104
2533.00,0.0103
2530.00,0.0103
2527.00,0.0101
2524.00,0.0100
2521.00,0.0099
2518.00,0.0098
2515.00,0.0097
2512.00,0.0096
2509.00,0.0095
2506.00,0.0095
2503.00,0.0094
2500.00,0.0093
2497.00,0.0093
2494.00,0.0092
2491.00,0.0091
2488.00,0.0091
2485.00,0.0090
2482.00,0.0090
2479.00,0.0090
2476.00,0.0089
2473.00,0.0088
2470.00,0.0088
2467.00,0.0087
2464.00,0.0087
2461.00,0.0088
2458.00,0.0088
2455.00,0.0089
2452.00,0.0089
2449.00,0.0089
2446.00,0.0088
2443.00,0.0086
2440.00,0.0086
2437.00,0.0084
2434.00,0.0084
2431.00,0.0084
2428.00,0.0084
2425.00,0.0083
2422.00,0.0082
2419.00,0.0082
2416.00,0.0082
2413.00,0.0082
2410.00,0.0082
2407.00,0.0082
2404.00,0.0082
2401.00,0.0081
2398.00,0.0081
2395.00,0.0081
2392.00,0.0081
2389.00,0.0080
2386.00,0.0079
2383.00,0.0078
2380.00,0.0075
2377.00,0.0075
2374.00,0.0076
2371.00,0.0077
2368.00,0.0077
2365.00,0.0076
2362.00,0.0076
2359.00,0.0077
2356.00,0.0077
2353.00,0.0077
2350.00,0.0077
2347.00,0.0078
2344.00,0.0078
2341.00,0.0079
2338.00,0.0079
2335.00,0.0078
2332.00,0.0077
2329.00,0.0080
2326.00,0.0090
2323.00,0.0087
2320.00,0.0082
2317.00,0.0082
2314.00,0.0080
2311.00,0.0077
2308.00,0.0077
2305.00,0.0078
2302.00,0.0079
2299.00,0.0081
2296.00,0.0083
2293.00,0.0086
2290.00,0.0088
2287.00,0.0089
2284.00,0.0088
2281.00,0.0084
2278.00,0.0083
2275.00,0.0082
2272.00,0.0079
2269.00,0.0077
2266.00,0.0075
2263.00,0.0073
2260.00,0.0073
2257.00,0.0071
2254.00,0.0069
2251.00,0.0070
2248.00,0.0071
2245.00,0.0072
2242.00,0.0072
2239.00,0.0072
2236.00,0.0074
2233.00,0.0075
2230.00,0.0074
2227.00,0.0073
2224.00,0.0074
2221.00,0.0073
2218.00,0.0072
2215.00,0.0072
2212.00,0.0072
2209.00,0.0070
2206.00,0.0073
2203.00,0.0073
2200.00,0.0068
2197.00,0.0069
2194.00,0.0071
2191.00,0.0070
2188.00,0.0071
2185.00,0.0068
2182.00,0.0064
2179.00,0.0069
2176.00,0.0064
2173.00,0.0062
2170.00,0.0071
2167.00,0.0079
2164.00,0.0082
2161.00,0.0065
2158.00,0.0035
2155.00,0.0039
2152.00,0.0051
2149.00,0.0051
2146.00,0.0048
2143.00,0.0049
2140.00,0.0051
2137.00,0.0048
2134.00,0.0042
2131.00,0.0048
2128.00,0.0053
2125.00,0.0055
2122.00,0.0055
2119.00,0.0057
2116.00,0.0060
2113.00,0.0060
2110.00,0.0059
2107.00,0.0059
2104.00,0.0059
2101.00,0.0057
2098.00,0.0055
2095.00,0.0051
2092.00,0.0055
2089.00,0.0058
2086.00,0.0059
2083.00,0.0062
2080.00,0.0063
2077.00,0.0062
2074.00,0.0062
2071.00,0.0061
2068.00,0.0058
2065.00,0.0057
2062.00,0.0057
2059.00,0.0057
2056.00,0.0056
2053.00,0.0061
2050.00,0.0057
2047.00,0.0051
2044.00,0.0053
2041.00,0.0057
2038.00,0.0061
2035.00,0.0056
2032.00,0.0052
2029.00,0.0049
2026.00,0.0051
2023.00,0.0052
2020.00,0.0051
2017.00,0.0053
2014.00,0.0050
2011.00,0.0049
2008.00,0.0044
2005.00,0.0042
2002.00,0.0043
1999.00,0.0048
1996.00,0.0054
1993.00,0.0053
1990.00,0.0057
1987.00,0.0056
1984.00,0.0062
1981.00,0.0070
1978.00,0.0055
1975.00,0.0045
1972.00,0.0045
1969.00,0.0046
1966.00,0.0048
1963.00,0.0050
1960.00,0.0047
1957.00,0.0049
1954.00,0.0051
1951.00,0.0051
1948.00,0.0053
1945.00,0.0053
1942.00,0.0051
1939.00,0.0051
1936.00,0.0054
1933.00,0.0055
1930.00,0.0056
1927.00,0.0057
1924.00,0.0058
1921.00,0.0059
1918.00,0.0061
1915.00,0.0063
1912.00,0.0071
1909.00,0.0086
1906.00,0.0082
1903.00,0.0071
1900.00,0.0067
1897.00,0.0068
1894.00,0.0074
1891.00,0.0072
1888.00,0.0066
1885.00,0.0062
1882.00,0.0062
1879.00,0.0061
1876.00,0.0061
1873.00,0.0062
1870.00,0.0061
1867.00,0.0062
1864.00,0.0062
1861.00,0.0063
1858.00,0.0064
1855.00,0.0064
1852.00,0.0065
1849.00,0.0069
1846.00,0.0073
1843.00,0.0070
1840.00,0.0066
1837.00,0.0063
1834.00,0.0062
1831.00,0.0062
1828.00,0.0061
1825.00,0.0062
1822.00,0.0061
1819.00,0.0060
1816.00,0.0060
1813.00,0.0061
1810.00,0.0062
1807.00,0.0063
1804.00,0.0064
1801.00,0.0065
1798.00,0.0067
1795.00,0.0069
1792.00,0.0068
1789.00,0.0067
1786.00,0.0067
1783.00,0.0066
1780.00,0.0068
1777.00,0.0071
1774.00,0.0075
1771.00,0.0073
1768.00,0.0072
1765.00,0.0070
1762.00,0.0073
1759.00,0.0075
1756.00,0.0072
1753.00,0.0069
1750.00,0.0069
1747.00,0.0068
1744.00,0.0070
1741.00,0.0069
1738.00,0.0068
1735.00,0.0070
1732.00,0.0072
1729.00,0.0077
1726.00,0.0080
1723.00,0.0083
1720.00,0.0084
1717.00,0.0088
1714.00,0.0091
1711.00,0.0096
1708.00,0.0098
1705.00,0.0099
1702.00,0.0102
1699.00,0.0107
1696.00,0.0119
1693.00,0.0126
1690.00,0.0137
1687.00,0.0145
1684.00,0.0153
1681.00,0.0161
1678.00,0.0170
1675.00,0.0178
1672.00,0.0188
1669.00,0.0201
1666.00,0.0210
1663.00,0.0218
1660.00,0.0224
1657.00,0.0224
1654.00,0.0221
1651.00,0.0219
1648.00,0.0219
1645.00,0.0223
1642.00,0.0230
1639.00,0.0237
1636.00,0.0251
1633.00,0.0311
1630.00,0.0444
1627.00,0.0696
1624.00,0.0917
1621.00,0.1029
1618.00,0.0951
1615.00,0.0804
1612.00,0.0803
1609.00,0.0796
1606.00,0.0670
1603.00,0.0521
1600.00,0.0414
1597.00,0.0366
1594.00,0.0388
1591.00,0.0501
1588.00,0.0687
1585.00,0.0833
1582.00,0.0858
1579.00,0.0791
1576.00,0.0676
1573.00,0.0577
1570.00,0.0524
1567.00,0.0475
1564.00,0.0393
1561.00,0.0318
1558.00,0.0247
1555.00,0.0222
1552.00,0.0207
1549.00,0.0198
1546.00,0.0188
1543.00,0.0180
1540.00,0.0168
1537.00,0.0163
1534.00,0.0159
1531.00,0.0156
1528.00,0.0157
1525.00,0.0164
1522.00,0.0174
1519.00,0.0193
1516.00,0.0224
1513.00,0.0253
1510.00,0.0270
1507.00,0.0277
1504.00,0.0285
1501.00,0.0334
1498.00,0.0485
1495.00,0.0576
1492.00,0.0466
1489.00,0.0340
1486.00,0.0268
1483.00,0.0233
1480.00,0.0220
1477.00,0.0222
1474.00,0.0245
1471.00,0.0341
1468.00,0.0491
1465.00,0.0576
1462.00,0.0555
1459.00,0.0555
1456.00,0.0541
1453.00,0.0507
1450.00,0.0514
1447.00,0.0548
1444.00,0.0607
1441.00,0.0674
1438.00,0.0718
1435.00,0.0788
1432.00,0.0857
1429.00,0.0896
1426.00,0.0861
1423.00,0.0798
1420.00,0.0733
1417.00,0.0665
1414.00,0.0618
1411.00,0.0628
1408.00,0.0711
1405.00,0.0870
1402.00,0.1021
1399.00,0.1058
1396.00,0.0948
1393.00,0.0770
1390.00,0.0671
1387.00,0.0714
1384.00,0.0673
1381.00,0.0638
1378.00,0.0638
1375.00,0.0565
1372.00,0.0472
1369.00,0.0514
1366.00,0.0662
1363.00,0.0746
1360.00,0.0874
1357.00,0.0788
1354.00,0.0669
1351.00,0.0639
1348.00,0.0651
1345.00,0.0637
1342.00,0.0574
1339.00,0.0498
1336.00,0.0460
1333.00,0.0482
1330.00,0.0510
1327.00,0.0501
1324.00,0.0468
1321.00,0.0445
1318.00,0.0423
1315.00,0.0389
1312.00,0.0380
1309.00,0.0423
1306.00,0.0529
1303.00,0.0699
1300.00,0.0789
1297.00,0.0729
1294.00,0.0694
1291.00,0.0657
1288.00,0.0672
1285.00,0.0766
1282.00,0.0796
1279.00,0.0679
1276.00,0.0540
1273.00,0.0459
1270.00,0.0408
1267.00,0.0377
1264.00,0.0355
1261.00,0.0327
1258.00,0.0304
1255.00,0.0297
1252.00,0.0314
1249.00,0.0372
1246.00,0.0475
1243.00,0.0566
1240.00,0.0624
1237.00,0.0728
1234.00,0.0831
1231.00,0.0796
1228.00,0.0671
1225.00,0.0570
1222.00,0.0520
1219.00,0.0533
1216.00,0.0591
1213.00,0.0607
1210.00,0.0522
1207.00,0.0439
1204.00,0.0447
1201.00,0.0558
1198.00,0.0735
1195.00,0.0902
1192.00,0.0887
1189.00,0.0726
1186.00,0.0545
1183.00,0.0419
1180.00,0.0351
1177.00,0.0316
1174.00,0.0296
1171.00,0.0287
1168.00,0.0286
1165.00,0.0303
1162.00,0.0367
1159.00,0.0543
1156.00,0.0829
1153.00,0.0870
1150.00,0.0585
1147.00,0.0383
1144.00,0.0320
1141.00,0.0312
1138.00,0.0346
1135.00,0.0467
1132.00,0.0755
1129.00,0.1062
1126.00,0.1067
1123.00,0.0849
1120.00,0.0609
1117.00,0.0497
1114.00,0.0471
1111.00,0.0431
1108.00,0.0392
1105.00,0.0429
1102.00,0.0602
1099.00,0.0731
1096.00,0.0594
1093.00,0.0404
1090.00,0.0307
1087.00,0.0267
1084.00,0.0249
1081.00,0.0245
1078.00,0.0250
1075.00,0.0260
1072.00,0.0282
1069.00,0.0321
1066.00,0.0377
1063.00,0.0473
1060.00,0.0680
1057.00,0.1039
1054.00,0.1363
1051.00,0.1487
1048.00,0.1479
1045.00,0.1267
1042.00,0.0965
1039.00,0.0763
1036.00,0.0728
1033.00,0.0781
1030.00,0.1008
1027.00,0.1326
1024.00,0.1228
1021.00,0.0879
1018.00,0.0635
1015.00,0.0499
1012.00,0.0437
1009.00,0.0467
1006.00,0.0588
1003.00,0.0676
1000.00,0.0634
997.00,0.0570
994.00,0.0528
991.00,0.0463
988.00,0.0382
985.00,0.0330
982.00,0.0303
979.00,0.0295
976.00,0.0297
973.00,0.0295
970.00,0.0288
967.00,0.0287
964.00,0.0305
961.00,0.0313
958.00,0.0263
955.00,0.0223
952.00,0.0206
949.00,0.0223
946.00,0.0227
943.00,0.0232
940.00,0.0268
937.00,0.0294
934.00,0.0320
931.00,0.0329
928.00,0.0306
925.00,0.0326
922.00,0.0383
919.00,0.0347
916.00,0.0258
913.00,0.0212
910.00,0.0196
907.00,0.0202
904.00,0.0248
901.00,0.0358
898.00,0.0403
895.00,0.0328
892.00,0.0354
889.00,0.0404
886.00,0.0280
883.00,0.0241
880.00,0.0274
877.00,0.0395
874.00,0.0641
871.00,0.0917
868.00,0.0944
865.00,0.0758
862.00,0.0573
859.00,0.0453
856.00,0.0502
853.00,0.0643
850.00,0.0792
847.00,0.0781
844.00,0.0616
841.00,0.0531
838.00,0.0602
835.00,0.0793
832.00,0.0846
829.00,0.0678
826.00,0.0479
823.00,0.0593
820.00,0.1008
817.00,0.1183
814.00,0.1136
811.00,0.0632
808.00,0.0399
805.00,0.0306
802.00,0.0264
799.00,0.0242
796.00,0.0229
793.00,0.0219
790.00,0.0214
787.00,0.0209
784.00,0.0207
781.00,0.0210
778.00,0.0242
775.00,0.0338
772.00,0.0316
769.00,0.0251
766.00,0.0237
763.00,0.0256
760.00,0.0297
757.00,0.0291
754.00,0.0260
751.00,0.0251
748.00,0.0257
745.00,0.0272
742.00,0.0308
739.00,0.0411
736.00,0.0627
733.00,0.0673
730.00,0.0638
727.00,0.0625
724.00,0.0470
721.00,0.0391
718.00,0.0432
715.00,0.0517
712.00,0.0494
709.00,0.0431
706.00,0.0413
703.00,0.0442
700.00,0.0494
697.00,0.0515
694.00,0.0473
691.00,0.0492
688.00,0.0575
685.00,0.0528
682.00,0.0480
679.00,0.0496
676.00,0.0558
673.00,0.0649
670.00,0.0685
667.00,0.0639
664.00,0.0638
661.00,0.0663
658.00,0.0604
655.00,0.0526
652.00,0.0491
649.00,0.0474
646.00,0.0464
643.00,0.0452
640.00,0.0442
637.00,0.0438
634.00,0.0437
631.00,0.0439
628.00,0.0453
625.00,0.0497
622.00,0.0568
619.00,0.0607
616.00,0.0536
613.00,0.0452
610.00,0.0450
607.00,0.0581
604.00,0.0751
601.00,0.0822
598.00,0.0822
595.00,0.0803
592.00,0.0775
589.00,0.0731
586.00,0.0693
583.00,0.0689
580.00,0.0738
577.00,0.0864
574.00,0.0826
571.00,0.0678
568.00,0.0601
565.00,0.0630
562.00,0.0741
559.00,0.0819
556.00,0.0748
553.00,0.0685
550.00,0.0741
547.00,0.0867
544.00,0.0870
541.00,0.0770
538.00,0.0701
535.00,0.0720
532.00,0.0824
529.00,0.0815
526.00,0.0682
523.00,0.0574
520.00,0.0516
517.00,0.0489
514.00,0.0470
511.00,0.0470
508.00,0.0497
505.00,0.0514
502.00,0.0474
499.00,0.0433
496.00,0.0442
493.00,0.0488
490.00,0.0484
487.00,0.0442
484.00,0.0413
481.00,0.0392
478.00,0.0375
475.00,0.0364
472.00,0.0356
469.00,0.0355
466.00,0.0350
463.00,0.0339
460.00,0.0343
457.00,0.0353
454.00,0.0345
451.00,0.0331
448.00,0.0325
445.00,0.0329
442.00,0.0330
439.00,0.0339
436.00,0.0329
433.00,0.0317
430.00,0.0298
427.00,0.0286
424.00,0.0287
421.00,0.0282
418.00,0.0286
415.00,0.0314
412.00,0.0372
409.00,0.0438
406.00,0.0387
403.00,0.0309
400.00,0.0326