File: FTIR/Olivia/2025_08_01_1CBN_3PVP90_mortar_dry_scan2.csv
Created as New Dataset,Sample 1027 By YargerLab Date Friday, August 01 2025
cm-1,A
4000.00,0.0035
3997.00,0.0035
3994.00,0.0035
3991.00,0.0034
3988.00,0.0034
3985.00,0.0035
3982.00,0.0035
3979.00,0.0035
3976.00,0.0035
3973.00,0.0035
3970.00,0.0035
3967.00,0.0035
3964.00,0.0035
3961.00,0.0034
3958.00,0.0034
3955.00,0.0035
3952.00,0.0035
3949.00,0.0035
3946.00,0.0035
3943.00,0.0035
3940.00,0.0034
3937.00,0.0035
3934.00,0.0035
3931.00,0.0035
3928.00,0.0035
3925.00,0.0035
3922.00,0.0035
3919.00,0.0035
3916.00,0.0035
3913.00,0.0034
3910.00,0.0034
3907.00,0.0035
3904.00,0.0036
3901.00,0.0037
3898.00,0.0036
3895.00,0.0036
3892.00,0.0035
3889.00,0.0035
3886.00,0.0035
3883.00,0.0036
3880.00,0.0035
3877.00,0.0035
3874.00,0.0035
3871.00,0.0036
3868.00,0.0036
3865.00,0.0036
3862.00,0.0035
3859.00,0.0035
3856.00,0.0036
3853.00,0.0038
3850.00,0.0038
3847.00,0.0036
3844.00,0.0036
3841.00,0.0037
3838.00,0.0037
3835.00,0.0037
3832.00,0.0036
3829.00,0.0035
3826.00,0.0034
3823.00,0.0035
3820.00,0.0036
3817.00,0.0037
3814.00,0.0036
3811.00,0.0035
3808.00,0.0036
3805.00,0.0036
3802.00,0.0037
3799.00,0.0036
3796.00,0.0035
3793.00,0.0034
3790.00,0.0034
3787.00,0.0034
3784.00,0.0034
3781.00,0.0034
3778.00,0.0034
3775.00,0.0034
3772.00,0.0035
3769.00,0.0036
3766.00,0.0035
3763.00,0.0035
3760.00,0.0035
3757.00,0.0035
3754.00,0.0036
3751.00,0.0038
3748.00,0.0038
3745.00,0.0038
3742.00,0.0037
3739.00,0.0036
3736.00,0.0036
3733.00,0.0035
3730.00,0.0034
3727.00,0.0034
3724.00,0.0034
3721.00,0.0034
3718.00,0.0034
3715.00,0.0034
3712.00,0.0035
3709.00,0.0035
3706.00,0.0034
3703.00,0.0033
3700.00,0.0033
3697.00,0.0033
3694.00,0.0033
3691.00,0.0034
3688.00,0.0034
3685.00,0.0034
3682.00,0.0033
3679.00,0.0033
3676.00,0.0034
3673.00,0.0035
3670.00,0.0035
3667.00,0.0034
3664.00,0.0033
3661.00,0.0033
3658.00,0.0034
3655.00,0.0034
3652.00,0.0036
3649.00,0.0035
3646.00,0.0035
3643.00,0.0033
3640.00,0.0033
3637.00,0.0033
3634.00,0.0033
3631.00,0.0035
3628.00,0.0035
3625.00,0.0034
3622.00,0.0035
3619.00,0.0036
3616.00,0.0036
3613.00,0.0036
3610.00,0.0037
3607.00,0.0036
3604.00,0.0035
3601.00,0.0035
3598.00,0.0035
3595.00,0.0036
3592.00,0.0036
3589.00,0.0037
3586.00,0.0037
3583.00,0.0037
3580.00,0.0037
3577.00,0.0037
3574.00,0.0037
3571.00,0.0037
3568.00,0.0039
3565.00,0.0039
3562.00,0.0039
3559.00,0.0039
3556.00,0.0039
3553.00,0.0039
3550.00,0.0039
3547.00,0.0040
3544.00,0.0041
3541.00,0.0041
3538.00,0.0041
3535.00,0.0042
3532.00,0.0042
3529.00,0.0042
3526.00,0.0042
3523.00,0.0043
3520.00,0.0044
3517.00,0.0044
3514.00,0.0045
3511.00,0.0046
3508.00,0.0047
3505.00,0.0047
3502.00,0.0047
3499.00,0.0049
3496.00,0.0048
3493.00,0.0049
3490.00,0.0050
3487.00,0.0052
3484.00,0.0053
3481.00,0.0054
3478.00,0.0055
3475.00,0.0056
3472.00,0.0058
3469.00,0.0059
3466.00,0.0061
3463.00,0.0063
3460.00,0.0064
3457.00,0.0066
3454.00,0.0068
3451.00,0.0070
3448.00,0.0072
3445.00,0.0074
3442.00,0.0076
3439.00,0.0078
3436.00,0.0081
3433.00,0.0084
3430.00,0.0087
3427.00,0.0090
3424.00,0.0093
3421.00,0.0098
3418.00,0.0101
3415.00,0.0104
3412.00,0.0107
3409.00,0.0110
3406.00,0.0111
3403.00,0.0112
3400.00,0.0113
3397.00,0.0112
3394.00,0.0111
3391.00,0.0110
3388.00,0.0108
3385.00,0.0106
3382.00,0.0104
3379.00,0.0101
3376.00,0.0099
3373.00,0.0098
3370.00,0.0096
3367.00,0.0094
3364.00,0.0093
3361.00,0.0091
3358.00,0.0090
3355.00,0.0089
3352.00,0.0088
3349.00,0.0087
3346.00,0.0087
3343.00,0.0086
3340.00,0.0085
3337.00,0.0086
3334.00,0.0086
3331.00,0.0086
3328.00,0.0086
3325.00,0.0087
3322.00,0.0088
3319.00,0.0089
3316.00,0.0089
3313.00,0.0090
3310.00,0.0091
3307.00,0.0092
3304.00,0.0093
3301.00,0.0095
3298.00,0.0096
3295.00,0.0097
3292.00,0.0099
3289.00,0.0100
3286.00,0.0102
3283.00,0.0104
3280.00,0.0106
3277.00,0.0108
3274.00,0.0109
3271.00,0.0110
3268.00,0.0111
3265.00,0.0113
3262.00,0.0114
3259.00,0.0116
3256.00,0.0118
3253.00,0.0120
3250.00,0.0121
3247.00,0.0122
3244.00,0.0123
3241.00,0.0124
3238.00,0.0125
3235.00,0.0125
3232.00,0.0124
3229.00,0.0124
3226.00,0.0124
3223.00,0.0124
3220.00,0.0124
3217.00,0.0123
3214.00,0.0121
3211.00,0.0119
3208.00,0.0117
3205.00,0.0116
3202.00,0.0114
3199.00,0.0113
3196.00,0.0110
3193.00,0.0108
3190.00,0.0106
3187.00,0.0104
3184.00,0.0102
3181.00,0.0100
3178.00,0.0099
3175.00,0.0097
3172.00,0.0094
3169.00,0.0093
3166.00,0.0090
3163.00,0.0088
3160.00,0.0085
3157.00,0.0083
3154.00,0.0081
3151.00,0.0080
3148.00,0.0079
3145.00,0.0077
3142.00,0.0075
3139.00,0.0073
3136.00,0.0072
3133.00,0.0071
3130.00,0.0069
3127.00,0.0069
3124.00,0.0068
3121.00,0.0067
3118.00,0.0066
3115.00,0.0065
3112.00,0.0063
3109.00,0.0062
3106.00,0.0061
3103.00,0.0060
3100.00,0.0059
3097.00,0.0058
3094.00,0.0059
3091.00,0.0059
3088.00,0.0059
3085.00,0.0060
3082.00,0.0060
3079.00,0.0059
3076.00,0.0059
3073.00,0.0058
3070.00,0.0058
3067.00,0.0057
3064.00,0.0057
3061.00,0.0057
3058.00,0.0058
3055.00,0.0058
3052.00,0.0058
3049.00,0.0057
3046.00,0.0057
3043.00,0.0057
3040.00,0.0057
3037.00,0.0059
3034.00,0.0060
3031.00,0.0060
3028.00,0.0059
3025.00,0.0057
3022.00,0.0055
3019.00,0.0054
3016.00,0.0053
3013.00,0.0053
3010.00,0.0053
3007.00,0.0054
3004.00,0.0057
3001.00,0.0060
2998.00,0.0064
2995.00,0.0071
2992.00,0.0076
2989.00,0.0079
2986.00,0.0082
2983.00,0.0089
2980.00,0.0100
2977.00,0.0104
2974.00,0.0107
2971.00,0.0121
2968.00,0.0130
2965.00,0.0137
2962.00,0.0150
2959.00,0.0157
2956.00,0.0149
2953.00,0.0136
2950.00,0.0126
2947.00,0.0125
2944.00,0.0130
2941.00,0.0141
2938.00,0.0157
2935.00,0.0182
2932.00,0.0213
2929.00,0.0241
2926.00,0.0251
2923.00,0.0241
2920.00,0.0221
2917.00,0.0199
2914.00,0.0178
2911.00,0.0161
2908.00,0.0148
2905.00,0.0137
2902.00,0.0128
2899.00,0.0120
2896.00,0.0113
2893.00,0.0108
2890.00,0.0103
2887.00,0.0100
2884.00,0.0098
2881.00,0.0099
2878.00,0.0104
2875.00,0.0115
2872.00,0.0121
2869.00,0.0121
2866.00,0.0121
2863.00,0.0131
2860.00,0.0154
2857.00,0.0175
2854.00,0.0180
2851.00,0.0170
2848.00,0.0147
2845.00,0.0121
2842.00,0.0101
2839.00,0.0088
2836.00,0.0080
2833.00,0.0075
2830.00,0.0071
2827.00,0.0067
2824.00,0.0064
2821.00,0.0062
2818.00,0.0061
2815.00,0.0059
2812.00,0.0058
2809.00,0.0057
2806.00,0.0055
2803.00,0.0055
2800.00,0.0054
2797.00,0.0053
2794.00,0.0052
2791.00,0.0052
2788.00,0.0051
2785.00,0.0051
2782.00,0.0050
2779.00,0.0049
2776.00,0.0049
2773.00,0.0049
2770.00,0.0049
2767.00,0.0048
2764.00,0.0048
2761.00,0.0048
2758.00,0.0048
2755.00,0.0048
2752.00,0.0049
2749.00,0.0049
2746.00,0.0049
2743.00,0.0049
2740.00,0.0049
2737.00,0.0050
2734.00,0.0051
2731.00,0.0052
2728.00,0.0051
2725.00,0.0051
2722.00,0.0050
2719.00,0.0050
2716.00,0.0050
2713.00,0.0049
2710.00,0.0049
2707.00,0.0049
2704.00,0.0049
2701.00,0.0048
2698.00,0.0048
2695.00,0.0048
2692.00,0.0047
2689.00,0.0047
2686.00,0.0047
2683.00,0.0047
2680.00,0.0046
2677.00,0.0046
2674.00,0.0047
2671.00,0.0047
2668.00,0.0047
2665.00,0.0048
2662.00,0.0049
2659.00,0.0050
2656.00,0.0051
2653.00,0.0051
2650.00,0.0051
2647.00,0.0051
2644.00,0.0051
2641.00,0.0050
2638.00,0.0050
2635.00,0.0050
2632.00,0.0049
2629.00,0.0048
2626.00,0.0048
2623.00,0.0048
2620.00,0.0047
2617.00,0.0046
2614.00,0.0047
2611.00,0.0047
2608.00,0.0046
2605.00,0.0046
2602.00,0.0047
2599.00,0.0047
2596.00,0.0048
2593.00,0.0047
2590.00,0.0047
2587.00,0.0047
2584.00,0.0047
2581.00,0.0047
2578.00,0.0046
2575.00,0.0045
2572.00,0.0045
2569.00,0.0046
2566.00,0.0045
2563.00,0.0044
2560.00,0.0045
2557.00,0.0044
2554.00,0.0043
2551.00,0.0042
2548.00,0.0043
2545.00,0.0043
2542.00,0.0043
2539.00,0.0043
2536.00,0.0043
2533.00,0.0043
2530.00,0.0042
2527.00,0.0042
2524.00,0.0042
2521.00,0.0042
2518.00,0.0042
2515.00,0.0042
2512.00,0.0042
2509.00,0.0041
2506.00,0.0040
2503.00,0.0040
2500.00,0.0040
2497.00,0.0040
2494.00,0.0040
2491.00,0.0040
2488.00,0.0040
2485.00,0.0039
2482.00,0.0038
2479.00,0.0039
2476.00,0.0039
2473.00,0.0039
2470.00,0.0039
2467.00,0.0039
2464.00,0.0039
2461.00,0.0039
2458.00,0.0040
2455.00,0.0041
2452.00,0.0040
2449.00,0.0040
2446.00,0.0039
2443.00,0.0038
2440.00,0.0038
2437.00,0.0038
2434.00,0.0038
2431.00,0.0038
2428.00,0.0038
2425.00,0.0037
2422.00,0.0037
2419.00,0.0037
2416.00,0.0036
2413.00,0.0036
2410.00,0.0037
2407.00,0.0036
2404.00,0.0036
2401.00,0.0035
2398.00,0.0035
2395.00,0.0035
2392.00,0.0035
2389.00,0.0035
2386.00,0.0034
2383.00,0.0033
2380.00,0.0030
2377.00,0.0029
2374.00,0.0030
2371.00,0.0030
2368.00,0.0029
2365.00,0.0030
2362.00,0.0030
2359.00,0.0029
2356.00,0.0030
2353.00,0.0029
2350.00,0.0037
2347.00,0.0039
2344.00,0.0040
2341.00,0.0032
2338.00,0.0032
2335.00,0.0033
2332.00,0.0032
2329.00,0.0034
2326.00,0.0041
2323.00,0.0040
2320.00,0.0036
2317.00,0.0035
2314.00,0.0035
2311.00,0.0033
2308.00,0.0033
2305.00,0.0034
2302.00,0.0036
2299.00,0.0036
2296.00,0.0037
2293.00,0.0041
2290.00,0.0044
2287.00,0.0044
2284.00,0.0043
2281.00,0.0041
2278.00,0.0042
2275.00,0.0041
2272.00,0.0040
2269.00,0.0039
2266.00,0.0037
2263.00,0.0036
2260.00,0.0036
2257.00,0.0035
2254.00,0.0035
2251.00,0.0036
2248.00,0.0038
2245.00,0.0037
2242.00,0.0036
2239.00,0.0037
2236.00,0.0037
2233.00,0.0037
2230.00,0.0037
2227.00,0.0037
2224.00,0.0037
2221.00,0.0035
2218.00,0.0035
2215.00,0.0036
2212.00,0.0037
2209.00,0.0036
2206.00,0.0036
2203.00,0.0035
2200.00,0.0035
2197.00,0.0035
2194.00,0.0036
2191.00,0.0036
2188.00,0.0039
2185.00,0.0037
2182.00,0.0036
2179.00,0.0033
2176.00,0.0029
2173.00,0.0032
2170.00,0.0038
2167.00,0.0044
2164.00,0.0046
2161.00,0.0032
2158.00,0.0007
2155.00,0.0013
2152.00,0.0019
2149.00,0.0020
2146.00,0.0020
2143.00,0.0023
2140.00,0.0024
2137.00,0.0019
2134.00,0.0017
2131.00,0.0022
2128.00,0.0025
2125.00,0.0026
2122.00,0.0027
2119.00,0.0029
2116.00,0.0031
2113.00,0.0030
2110.00,0.0032
2107.00,0.0032
2104.00,0.0031
2101.00,0.0032
2098.00,0.0031
2095.00,0.0027
2092.00,0.0030
2089.00,0.0031
2086.00,0.0031
2083.00,0.0033
2080.00,0.0034
2077.00,0.0035
2074.00,0.0032
2071.00,0.0033
2068.00,0.0033
2065.00,0.0033
2062.00,0.0031
2059.00,0.0031
2056.00,0.0029
2053.00,0.0032
2050.00,0.0035
2047.00,0.0029
2044.00,0.0030
2041.00,0.0033
2038.00,0.0030
2035.00,0.0030
2032.00,0.0029
2029.00,0.0027
2026.00,0.0027
2023.00,0.0028
2020.00,0.0028
2017.00,0.0031
2014.00,0.0028
2011.00,0.0028
2008.00,0.0023
2005.00,0.0022
2002.00,0.0026
1999.00,0.0028
1996.00,0.0030
1993.00,0.0029
1990.00,0.0030
1987.00,0.0031
1984.00,0.0035
1981.00,0.0042
1978.00,0.0031
1975.00,0.0024
1972.00,0.0022
1969.00,0.0023
1966.00,0.0023
1963.00,0.0025
1960.00,0.0024
1957.00,0.0021
1954.00,0.0024
1951.00,0.0026
1948.00,0.0025
1945.00,0.0026
1942.00,0.0025
1939.00,0.0024
1936.00,0.0025
1933.00,0.0026
1930.00,0.0026
1927.00,0.0026
1924.00,0.0027
1921.00,0.0028
1918.00,0.0028
1915.00,0.0029
1912.00,0.0032
1909.00,0.0033
1906.00,0.0033
1903.00,0.0032
1900.00,0.0030
1897.00,0.0030
1894.00,0.0032
1891.00,0.0031
1888.00,0.0031
1885.00,0.0031
1882.00,0.0030
1879.00,0.0029
1876.00,0.0029
1873.00,0.0029
1870.00,0.0029
1867.00,0.0031
1864.00,0.0030
1861.00,0.0029
1858.00,0.0030
1855.00,0.0031
1852.00,0.0030
1849.00,0.0031
1846.00,0.0032
1843.00,0.0032
1840.00,0.0030
1837.00,0.0030
1834.00,0.0030
1831.00,0.0031
1828.00,0.0031
1825.00,0.0030
1822.00,0.0030
1819.00,0.0030
1816.00,0.0029
1813.00,0.0029
1810.00,0.0030
1807.00,0.0031
1804.00,0.0031
1801.00,0.0031
1798.00,0.0032
1795.00,0.0033
1792.00,0.0032
1789.00,0.0031
1786.00,0.0032
1783.00,0.0032
1780.00,0.0033
1777.00,0.0033
1774.00,0.0034
1771.00,0.0035
1768.00,0.0032
1765.00,0.0032
1762.00,0.0033
1759.00,0.0034
1756.00,0.0033
1753.00,0.0033
1750.00,0.0033
1747.00,0.0033
1744.00,0.0034
1741.00,0.0034
1738.00,0.0034
1735.00,0.0034
1732.00,0.0035
1729.00,0.0036
1726.00,0.0038
1723.00,0.0039
1720.00,0.0039
1717.00,0.0040
1714.00,0.0041
1711.00,0.0042
1708.00,0.0044
1705.00,0.0048
1702.00,0.0050
1699.00,0.0056
1696.00,0.0066
1693.00,0.0077
1690.00,0.0089
1687.00,0.0100
1684.00,0.0109
1681.00,0.0113
1678.00,0.0118
1675.00,0.0120
1672.00,0.0121
1669.00,0.0124
1666.00,0.0127
1663.00,0.0130
1660.00,0.0132
1657.00,0.0134
1654.00,0.0132
1651.00,0.0131
1648.00,0.0132
1645.00,0.0128
1642.00,0.0125
1639.00,0.0123
1636.00,0.0120
1633.00,0.0125
1630.00,0.0153
1627.00,0.0216
1624.00,0.0274
1621.00,0.0304
1618.00,0.0287
1615.00,0.0240
1612.00,0.0237
1609.00,0.0233
1606.00,0.0198
1603.00,0.0158
1600.00,0.0129
1597.00,0.0114
1594.00,0.0118
1591.00,0.0144
1588.00,0.0192
1585.00,0.0234
1582.00,0.0243
1579.00,0.0226
1576.00,0.0194
1573.00,0.0165
1570.00,0.0152
1567.00,0.0139
1564.00,0.0119
1561.00,0.0102
1558.00,0.0083
1555.00,0.0075
1552.00,0.0071
1549.00,0.0069
1546.00,0.0067
1543.00,0.0065
1540.00,0.0064
1537.00,0.0061
1534.00,0.0060
1531.00,0.0058
1528.00,0.0059
1525.00,0.0060
1522.00,0.0063
1519.00,0.0066
1516.00,0.0074
1513.00,0.0080
1510.00,0.0085
1507.00,0.0088
1504.00,0.0090
1501.00,0.0102
1498.00,0.0141
1495.00,0.0168
1492.00,0.0144
1489.00,0.0109
1486.00,0.0088
1483.00,0.0078
1480.00,0.0073
1477.00,0.0073
1474.00,0.0078
1471.00,0.0101
1468.00,0.0142
1465.00,0.0169
1462.00,0.0169
1459.00,0.0172
1456.00,0.0161
1453.00,0.0150
1450.00,0.0153
1447.00,0.0163
1444.00,0.0182
1441.00,0.0204
1438.00,0.0218
1435.00,0.0232
1432.00,0.0251
1429.00,0.0262
1426.00,0.0258
1423.00,0.0247
1420.00,0.0232
1417.00,0.0204
1414.00,0.0187
1411.00,0.0183
1408.00,0.0201
1405.00,0.0242
1402.00,0.0284
1399.00,0.0294
1396.00,0.0262
1393.00,0.0211
1390.00,0.0184
1387.00,0.0194
1384.00,0.0183
1381.00,0.0173
1378.00,0.0174
1375.00,0.0157
1372.00,0.0134
1369.00,0.0143
1366.00,0.0179
1363.00,0.0200
1360.00,0.0234
1357.00,0.0213
1354.00,0.0182
1351.00,0.0172
1348.00,0.0174
1345.00,0.0171
1342.00,0.0155
1339.00,0.0135
1336.00,0.0126
1333.00,0.0132
1330.00,0.0140
1327.00,0.0141
1324.00,0.0135
1321.00,0.0132
1318.00,0.0128
1315.00,0.0119
1312.00,0.0114
1309.00,0.0121
1306.00,0.0145
1303.00,0.0188
1300.00,0.0217
1297.00,0.0210
1294.00,0.0211
1291.00,0.0210
1288.00,0.0214
1285.00,0.0235
1282.00,0.0240
1279.00,0.0212
1276.00,0.0180
1273.00,0.0162
1270.00,0.0149
1267.00,0.0137
1264.00,0.0127
1261.00,0.0116
1258.00,0.0107
1255.00,0.0102
1252.00,0.0105
1249.00,0.0119
1246.00,0.0146
1243.00,0.0170
1240.00,0.0182
1237.00,0.0204
1234.00,0.0229
1231.00,0.0219
1228.00,0.0187
1225.00,0.0164
1222.00,0.0154
1219.00,0.0158
1216.00,0.0175
1213.00,0.0180
1210.00,0.0157
1207.00,0.0133
1204.00,0.0132
1201.00,0.0157
1198.00,0.0201
1195.00,0.0245
1192.00,0.0241
1189.00,0.0199
1186.00,0.0153
1183.00,0.0122
1180.00,0.0106
1177.00,0.0099
1174.00,0.0094
1171.00,0.0091
1168.00,0.0087
1165.00,0.0088
1162.00,0.0101
1159.00,0.0146
1156.00,0.0224
1153.00,0.0235
1150.00,0.0159
1147.00,0.0107
1144.00,0.0092
1141.00,0.0089
1138.00,0.0095
1135.00,0.0123
1132.00,0.0195
1129.00,0.0273
1126.00,0.0266
1123.00,0.0207
1120.00,0.0153
1117.00,0.0128
1114.00,0.0124
1111.00,0.0116
1108.00,0.0107
1105.00,0.0115
1102.00,0.0157
1099.00,0.0193
1096.00,0.0160
1093.00,0.0113
1090.00,0.0091
1087.00,0.0083
1084.00,0.0079
1081.00,0.0080
1078.00,0.0082
1075.00,0.0085
1072.00,0.0091
1069.00,0.0102
1066.00,0.0117
1063.00,0.0141
1060.00,0.0196
1057.00,0.0296
1054.00,0.0379
1051.00,0.0400
1048.00,0.0390
1045.00,0.0329
1042.00,0.0249
1039.00,0.0198
1036.00,0.0191
1033.00,0.0204
1030.00,0.0263
1027.00,0.0352
1024.00,0.0325
1021.00,0.0233
1018.00,0.0173
1015.00,0.0140
1012.00,0.0124
1009.00,0.0129
1006.00,0.0158
1003.00,0.0180
1000.00,0.0171
997.00,0.0154
994.00,0.0143
991.00,0.0127
988.00,0.0108
985.00,0.0097
982.00,0.0091
979.00,0.0088
976.00,0.0088
973.00,0.0087
970.00,0.0085
967.00,0.0084
964.00,0.0086
961.00,0.0085
958.00,0.0067
955.00,0.0050
952.00,0.0041
949.00,0.0044
946.00,0.0049
943.00,0.0057
940.00,0.0071
937.00,0.0082
934.00,0.0089
931.00,0.0091
928.00,0.0086
925.00,0.0091
922.00,0.0105
919.00,0.0097
916.00,0.0078
913.00,0.0069
910.00,0.0065
907.00,0.0067
904.00,0.0077
901.00,0.0101
898.00,0.0113
895.00,0.0096
892.00,0.0101
889.00,0.0112
886.00,0.0084
883.00,0.0075
880.00,0.0081
877.00,0.0108
874.00,0.0165
871.00,0.0233
868.00,0.0241
865.00,0.0195
862.00,0.0151
859.00,0.0122
856.00,0.0133
853.00,0.0167
850.00,0.0198
847.00,0.0195
844.00,0.0161
841.00,0.0141
838.00,0.0157
835.00,0.0202
832.00,0.0215
829.00,0.0176
826.00,0.0127
823.00,0.0151
820.00,0.0244
817.00,0.0273
814.00,0.0260
811.00,0.0144
808.00,0.0098
805.00,0.0084
802.00,0.0077
799.00,0.0073
796.00,0.0070
793.00,0.0070
790.00,0.0069
787.00,0.0067
784.00,0.0067
781.00,0.0069
778.00,0.0075
775.00,0.0094
772.00,0.0090
769.00,0.0078
766.00,0.0075
763.00,0.0080
760.00,0.0089
757.00,0.0089
754.00,0.0084
751.00,0.0082
748.00,0.0084
745.00,0.0088
742.00,0.0096
739.00,0.0119
736.00,0.0166
733.00,0.0178
730.00,0.0164
727.00,0.0160
724.00,0.0126
721.00,0.0107
718.00,0.0114
715.00,0.0130
712.00,0.0125
709.00,0.0115
706.00,0.0113
703.00,0.0117
700.00,0.0128
697.00,0.0135
694.00,0.0127
691.00,0.0127
688.00,0.0146
685.00,0.0139
682.00,0.0129
679.00,0.0133
676.00,0.0147
673.00,0.0166
670.00,0.0176
667.00,0.0167
664.00,0.0167
661.00,0.0175
658.00,0.0160
655.00,0.0145
652.00,0.0140
649.00,0.0136
646.00,0.0133
643.00,0.0130
640.00,0.0128
637.00,0.0126
634.00,0.0125
631.00,0.0124
628.00,0.0127
625.00,0.0137
622.00,0.0149
619.00,0.0155
616.00,0.0141
613.00,0.0125
610.00,0.0123
607.00,0.0151
604.00,0.0189
601.00,0.0204
598.00,0.0201
595.00,0.0197
592.00,0.0194
589.00,0.0188
586.00,0.0181
583.00,0.0184
580.00,0.0193
577.00,0.0216
574.00,0.0211
571.00,0.0179
568.00,0.0167
565.00,0.0175
562.00,0.0193
559.00,0.0208
556.00,0.0192
553.00,0.0180
550.00,0.0190
547.00,0.0214
544.00,0.0219
541.00,0.0194
538.00,0.0175
535.00,0.0182
532.00,0.0207
529.00,0.0206
526.00,0.0178
523.00,0.0158
520.00,0.0149
517.00,0.0144
514.00,0.0139
511.00,0.0134
508.00,0.0144
505.00,0.0150
502.00,0.0140
499.00,0.0133
496.00,0.0134
493.00,0.0142
490.00,0.0140
487.00,0.0126
484.00,0.0120
481.00,0.0126
478.00,0.0126
475.00,0.0120
472.00,0.0121
469.00,0.0121
466.00,0.0114
463.00,0.0115
460.00,0.0115
457.00,0.0119
454.00,0.0112
451.00,0.0106
448.00,0.0106
445.00,0.0108
442.00,0.0105
439.00,0.0106
436.00,0.0099
433.00,0.0091
430.00,0.0089
427.00,0.0092
424.00,0.0097
421.00,0.0089
418.00,0.0084
415.00,0.0094
412.00,0.0124
409.00,0.0140
406.00,0.0088
403.00,0.0073
400.00,0.0093