File: FTIR/Olivia/2025_08_04_1CBN_3PVP40kDa_MortPest_powder_scan1.csv
Created as New Dataset,Sample 1048 By YargerLab Date Monday, August 04 2025
cm-1,A
4000.00,0.0032
3997.00,0.0031
3994.00,0.0031
3991.00,0.0031
3988.00,0.0032
3985.00,0.0032
3982.00,0.0031
3979.00,0.0031
3976.00,0.0031
3973.00,0.0031
3970.00,0.0031
3967.00,0.0032
3964.00,0.0031
3961.00,0.0031
3958.00,0.0031
3955.00,0.0031
3952.00,0.0031
3949.00,0.0031
3946.00,0.0031
3943.00,0.0031
3940.00,0.0031
3937.00,0.0031
3934.00,0.0031
3931.00,0.0030
3928.00,0.0030
3925.00,0.0031
3922.00,0.0031
3919.00,0.0031
3916.00,0.0031
3913.00,0.0031
3910.00,0.0031
3907.00,0.0031
3904.00,0.0030
3901.00,0.0030
3898.00,0.0030
3895.00,0.0030
3892.00,0.0031
3889.00,0.0030
3886.00,0.0030
3883.00,0.0030
3880.00,0.0030
3877.00,0.0030
3874.00,0.0030
3871.00,0.0030
3868.00,0.0030
3865.00,0.0030
3862.00,0.0030
3859.00,0.0030
3856.00,0.0030
3853.00,0.0029
3850.00,0.0029
3847.00,0.0030
3844.00,0.0030
3841.00,0.0030
3838.00,0.0029
3835.00,0.0029
3832.00,0.0031
3829.00,0.0030
3826.00,0.0031
3823.00,0.0030
3820.00,0.0031
3817.00,0.0030
3814.00,0.0031
3811.00,0.0031
3808.00,0.0031
3805.00,0.0031
3802.00,0.0030
3799.00,0.0030
3796.00,0.0031
3793.00,0.0031
3790.00,0.0031
3787.00,0.0031
3784.00,0.0032
3781.00,0.0031
3778.00,0.0032
3775.00,0.0031
3772.00,0.0031
3769.00,0.0031
3766.00,0.0031
3763.00,0.0031
3760.00,0.0031
3757.00,0.0031
3754.00,0.0031
3751.00,0.0031
3748.00,0.0029
3745.00,0.0029
3742.00,0.0029
3739.00,0.0030
3736.00,0.0030
3733.00,0.0029
3730.00,0.0030
3727.00,0.0030
3724.00,0.0031
3721.00,0.0031
3718.00,0.0030
3715.00,0.0030
3712.00,0.0030
3709.00,0.0030
3706.00,0.0031
3703.00,0.0030
3700.00,0.0031
3697.00,0.0031
3694.00,0.0032
3691.00,0.0031
3688.00,0.0032
3685.00,0.0032
3682.00,0.0034
3679.00,0.0033
3676.00,0.0033
3673.00,0.0033
3670.00,0.0034
3667.00,0.0035
3664.00,0.0036
3661.00,0.0037
3658.00,0.0037
3655.00,0.0038
3652.00,0.0038
3649.00,0.0039
3646.00,0.0039
3643.00,0.0041
3640.00,0.0042
3637.00,0.0044
3634.00,0.0046
3631.00,0.0046
3628.00,0.0047
3625.00,0.0049
3622.00,0.0051
3619.00,0.0052
3616.00,0.0053
3613.00,0.0055
3610.00,0.0056
3607.00,0.0059
3604.00,0.0061
3601.00,0.0063
3598.00,0.0065
3595.00,0.0067
3592.00,0.0069
3589.00,0.0072
3586.00,0.0074
3583.00,0.0077
3580.00,0.0080
3577.00,0.0082
3574.00,0.0085
3571.00,0.0087
3568.00,0.0088
3565.00,0.0092
3562.00,0.0095
3559.00,0.0099
3556.00,0.0101
3553.00,0.0103
3550.00,0.0106
3547.00,0.0109
3544.00,0.0112
3541.00,0.0114
3538.00,0.0116
3535.00,0.0119
3532.00,0.0121
3529.00,0.0122
3526.00,0.0124
3523.00,0.0127
3520.00,0.0129
3517.00,0.0131
3514.00,0.0132
3511.00,0.0134
3508.00,0.0135
3505.00,0.0137
3502.00,0.0139
3499.00,0.0140
3496.00,0.0142
3493.00,0.0143
3490.00,0.0145
3487.00,0.0147
3484.00,0.0148
3481.00,0.0149
3478.00,0.0151
3475.00,0.0152
3472.00,0.0154
3469.00,0.0156
3466.00,0.0158
3463.00,0.0159
3460.00,0.0161
3457.00,0.0162
3454.00,0.0164
3451.00,0.0165
3448.00,0.0167
3445.00,0.0168
3442.00,0.0170
3439.00,0.0172
3436.00,0.0174
3433.00,0.0175
3430.00,0.0177
3427.00,0.0179
3424.00,0.0181
3421.00,0.0183
3418.00,0.0185
3415.00,0.0187
3412.00,0.0189
3409.00,0.0190
3406.00,0.0190
3403.00,0.0190
3400.00,0.0190
3397.00,0.0190
3394.00,0.0189
3391.00,0.0188
3388.00,0.0187
3385.00,0.0185
3382.00,0.0183
3379.00,0.0180
3376.00,0.0178
3373.00,0.0177
3370.00,0.0174
3367.00,0.0172
3364.00,0.0171
3361.00,0.0169
3358.00,0.0167
3355.00,0.0165
3352.00,0.0163
3349.00,0.0161
3346.00,0.0161
3343.00,0.0160
3340.00,0.0158
3337.00,0.0157
3334.00,0.0158
3331.00,0.0158
3328.00,0.0156
3325.00,0.0155
3322.00,0.0155
3319.00,0.0155
3316.00,0.0155
3313.00,0.0155
3310.00,0.0153
3307.00,0.0152
3304.00,0.0153
3301.00,0.0155
3298.00,0.0154
3295.00,0.0153
3292.00,0.0154
3289.00,0.0156
3286.00,0.0156
3283.00,0.0156
3280.00,0.0156
3277.00,0.0155
3274.00,0.0154
3271.00,0.0153
3268.00,0.0154
3265.00,0.0155
3262.00,0.0155
3259.00,0.0154
3256.00,0.0153
3253.00,0.0153
3250.00,0.0152
3247.00,0.0151
3244.00,0.0150
3241.00,0.0150
3238.00,0.0149
3235.00,0.0147
3232.00,0.0146
3229.00,0.0145
3226.00,0.0143
3223.00,0.0142
3220.00,0.0139
3217.00,0.0138
3214.00,0.0136
3211.00,0.0134
3208.00,0.0131
3205.00,0.0130
3202.00,0.0127
3199.00,0.0125
3196.00,0.0123
3193.00,0.0121
3190.00,0.0118
3187.00,0.0116
3184.00,0.0115
3181.00,0.0112
3178.00,0.0110
3175.00,0.0108
3172.00,0.0106
3169.00,0.0104
3166.00,0.0102
3163.00,0.0100
3160.00,0.0098
3157.00,0.0096
3154.00,0.0093
3151.00,0.0091
3148.00,0.0091
3145.00,0.0089
3142.00,0.0087
3139.00,0.0086
3136.00,0.0085
3133.00,0.0083
3130.00,0.0081
3127.00,0.0080
3124.00,0.0078
3121.00,0.0078
3118.00,0.0078
3115.00,0.0076
3112.00,0.0075
3109.00,0.0074
3106.00,0.0073
3103.00,0.0072
3100.00,0.0071
3097.00,0.0070
3094.00,0.0069
3091.00,0.0069
3088.00,0.0069
3085.00,0.0069
3082.00,0.0067
3079.00,0.0067
3076.00,0.0067
3073.00,0.0066
3070.00,0.0065
3067.00,0.0065
3064.00,0.0065
3061.00,0.0064
3058.00,0.0064
3055.00,0.0064
3052.00,0.0064
3049.00,0.0063
3046.00,0.0063
3043.00,0.0063
3040.00,0.0063
3037.00,0.0063
3034.00,0.0064
3031.00,0.0064
3028.00,0.0064
3025.00,0.0063
3022.00,0.0063
3019.00,0.0063
3016.00,0.0063
3013.00,0.0063
3010.00,0.0066
3007.00,0.0068
3004.00,0.0073
3001.00,0.0078
2998.00,0.0084
2995.00,0.0091
2992.00,0.0099
2989.00,0.0105
2986.00,0.0112
2983.00,0.0118
2980.00,0.0127
2977.00,0.0135
2974.00,0.0142
2971.00,0.0154
2968.00,0.0163
2965.00,0.0171
2962.00,0.0179
2959.00,0.0184
2956.00,0.0181
2953.00,0.0175
2950.00,0.0171
2947.00,0.0170
2944.00,0.0171
2941.00,0.0175
2938.00,0.0184
2935.00,0.0197
2932.00,0.0213
2929.00,0.0227
2926.00,0.0232
2923.00,0.0226
2920.00,0.0214
2917.00,0.0200
2914.00,0.0186
2911.00,0.0174
2908.00,0.0165
2905.00,0.0158
2902.00,0.0152
2899.00,0.0149
2896.00,0.0147
2893.00,0.0145
2890.00,0.0143
2887.00,0.0141
2884.00,0.0140
2881.00,0.0140
2878.00,0.0143
2875.00,0.0147
2872.00,0.0149
2869.00,0.0148
2866.00,0.0147
2863.00,0.0151
2860.00,0.0160
2857.00,0.0167
2854.00,0.0165
2851.00,0.0154
2848.00,0.0137
2845.00,0.0121
2842.00,0.0107
2839.00,0.0097
2836.00,0.0091
2833.00,0.0087
2830.00,0.0082
2827.00,0.0078
2824.00,0.0074
2821.00,0.0071
2818.00,0.0069
2815.00,0.0067
2812.00,0.0065
2809.00,0.0064
2806.00,0.0063
2803.00,0.0062
2800.00,0.0061
2797.00,0.0060
2794.00,0.0059
2791.00,0.0058
2788.00,0.0058
2785.00,0.0058
2782.00,0.0057
2779.00,0.0056
2776.00,0.0056
2773.00,0.0055
2770.00,0.0055
2767.00,0.0054
2764.00,0.0054
2761.00,0.0054
2758.00,0.0054
2755.00,0.0054
2752.00,0.0054
2749.00,0.0054
2746.00,0.0054
2743.00,0.0054
2740.00,0.0055
2737.00,0.0055
2734.00,0.0055
2731.00,0.0056
2728.00,0.0055
2725.00,0.0055
2722.00,0.0054
2719.00,0.0054
2716.00,0.0054
2713.00,0.0053
2710.00,0.0053
2707.00,0.0052
2704.00,0.0052
2701.00,0.0052
2698.00,0.0052
2695.00,0.0052
2692.00,0.0051
2689.00,0.0051
2686.00,0.0051
2683.00,0.0051
2680.00,0.0051
2677.00,0.0051
2674.00,0.0051
2671.00,0.0051
2668.00,0.0051
2665.00,0.0052
2662.00,0.0053
2659.00,0.0054
2656.00,0.0055
2653.00,0.0055
2650.00,0.0055
2647.00,0.0055
2644.00,0.0055
2641.00,0.0055
2638.00,0.0055
2635.00,0.0055
2632.00,0.0054
2629.00,0.0054
2626.00,0.0053
2623.00,0.0053
2620.00,0.0052
2617.00,0.0052
2614.00,0.0052
2611.00,0.0052
2608.00,0.0051
2605.00,0.0051
2602.00,0.0051
2599.00,0.0052
2596.00,0.0052
2593.00,0.0052
2590.00,0.0052
2587.00,0.0052
2584.00,0.0052
2581.00,0.0052
2578.00,0.0052
2575.00,0.0051
2572.00,0.0050
2569.00,0.0050
2566.00,0.0051
2563.00,0.0051
2560.00,0.0051
2557.00,0.0050
2554.00,0.0049
2551.00,0.0048
2548.00,0.0049
2545.00,0.0049
2542.00,0.0049
2539.00,0.0049
2536.00,0.0049
2533.00,0.0048
2530.00,0.0048
2527.00,0.0048
2524.00,0.0047
2521.00,0.0047
2518.00,0.0047
2515.00,0.0046
2512.00,0.0047
2509.00,0.0046
2506.00,0.0046
2503.00,0.0046
2500.00,0.0046
2497.00,0.0045
2494.00,0.0046
2491.00,0.0045
2488.00,0.0045
2485.00,0.0045
2482.00,0.0045
2479.00,0.0045
2476.00,0.0044
2473.00,0.0044
2470.00,0.0045
2467.00,0.0046
2464.00,0.0046
2461.00,0.0045
2458.00,0.0046
2455.00,0.0046
2452.00,0.0046
2449.00,0.0045
2446.00,0.0045
2443.00,0.0045
2440.00,0.0045
2437.00,0.0045
2434.00,0.0044
2431.00,0.0044
2428.00,0.0045
2425.00,0.0044
2422.00,0.0044
2419.00,0.0045
2416.00,0.0044
2413.00,0.0045
2410.00,0.0045
2407.00,0.0043
2404.00,0.0043
2401.00,0.0043
2398.00,0.0043
2395.00,0.0043
2392.00,0.0044
2389.00,0.0043
2386.00,0.0042
2383.00,0.0042
2380.00,0.0042
2377.00,0.0042
2374.00,0.0042
2371.00,0.0042
2368.00,0.0042
2365.00,0.0043
2362.00,0.0043
2359.00,0.0043
2356.00,0.0044
2353.00,0.0043
2350.00,0.0044
2347.00,0.0045
2344.00,0.0045
2341.00,0.0046
2338.00,0.0047
2335.00,0.0047
2332.00,0.0045
2329.00,0.0047
2326.00,0.0056
2323.00,0.0056
2320.00,0.0052
2317.00,0.0051
2314.00,0.0049
2311.00,0.0049
2308.00,0.0049
2305.00,0.0049
2302.00,0.0049
2299.00,0.0050
2296.00,0.0052
2293.00,0.0053
2290.00,0.0055
2287.00,0.0057
2284.00,0.0055
2281.00,0.0052
2278.00,0.0052
2275.00,0.0052
2272.00,0.0052
2269.00,0.0050
2266.00,0.0049
2263.00,0.0049
2260.00,0.0050
2257.00,0.0048
2254.00,0.0046
2251.00,0.0048
2248.00,0.0046
2245.00,0.0048
2242.00,0.0050
2239.00,0.0050
2236.00,0.0047
2233.00,0.0047
2230.00,0.0047
2227.00,0.0047
2224.00,0.0048
2221.00,0.0048
2218.00,0.0049
2215.00,0.0050
2212.00,0.0048
2209.00,0.0047
2206.00,0.0048
2203.00,0.0048
2200.00,0.0048
2197.00,0.0049
2194.00,0.0049
2191.00,0.0051
2188.00,0.0051
2185.00,0.0049
2182.00,0.0047
2179.00,0.0050
2176.00,0.0048
2173.00,0.0048
2170.00,0.0051
2167.00,0.0054
2164.00,0.0063
2161.00,0.0050
2158.00,0.0023
2155.00,0.0028
2152.00,0.0032
2149.00,0.0033
2146.00,0.0034
2143.00,0.0032
2140.00,0.0034
2137.00,0.0034
2134.00,0.0031
2131.00,0.0033
2128.00,0.0036
2125.00,0.0038
2122.00,0.0041
2119.00,0.0045
2116.00,0.0048
2113.00,0.0047
2110.00,0.0046
2107.00,0.0046
2104.00,0.0046
2101.00,0.0046
2098.00,0.0044
2095.00,0.0041
2092.00,0.0042
2089.00,0.0044
2086.00,0.0046
2083.00,0.0046
2080.00,0.0048
2077.00,0.0048
2074.00,0.0047
2071.00,0.0047
2068.00,0.0046
2065.00,0.0046
2062.00,0.0046
2059.00,0.0046
2056.00,0.0043
2053.00,0.0049
2050.00,0.0050
2047.00,0.0045
2044.00,0.0048
2041.00,0.0047
2038.00,0.0047
2035.00,0.0041
2032.00,0.0037
2029.00,0.0039
2026.00,0.0037
2023.00,0.0038
2020.00,0.0036
2017.00,0.0040
2014.00,0.0037
2011.00,0.0035
2008.00,0.0036
2005.00,0.0033
2002.00,0.0036
1999.00,0.0038
1996.00,0.0040
1993.00,0.0042
1990.00,0.0042
1987.00,0.0042
1984.00,0.0044
1981.00,0.0051
1978.00,0.0037
1975.00,0.0030
1972.00,0.0031
1969.00,0.0029
1966.00,0.0029
1963.00,0.0032
1960.00,0.0032
1957.00,0.0033
1954.00,0.0034
1951.00,0.0034
1948.00,0.0035
1945.00,0.0034
1942.00,0.0035
1939.00,0.0035
1936.00,0.0036
1933.00,0.0035
1930.00,0.0035
1927.00,0.0036
1924.00,0.0037
1921.00,0.0037
1918.00,0.0038
1915.00,0.0037
1912.00,0.0038
1909.00,0.0040
1906.00,0.0039
1903.00,0.0039
1900.00,0.0039
1897.00,0.0039
1894.00,0.0039
1891.00,0.0039
1888.00,0.0038
1885.00,0.0037
1882.00,0.0038
1879.00,0.0039
1876.00,0.0038
1873.00,0.0038
1870.00,0.0039
1867.00,0.0038
1864.00,0.0039
1861.00,0.0040
1858.00,0.0039
1855.00,0.0040
1852.00,0.0040
1849.00,0.0040
1846.00,0.0040
1843.00,0.0040
1840.00,0.0040
1837.00,0.0039
1834.00,0.0038
1831.00,0.0039
1828.00,0.0039
1825.00,0.0039
1822.00,0.0039
1819.00,0.0038
1816.00,0.0037
1813.00,0.0039
1810.00,0.0039
1807.00,0.0039
1804.00,0.0040
1801.00,0.0040
1798.00,0.0041
1795.00,0.0041
1792.00,0.0041
1789.00,0.0041
1786.00,0.0042
1783.00,0.0041
1780.00,0.0042
1777.00,0.0042
1774.00,0.0042
1771.00,0.0042
1768.00,0.0043
1765.00,0.0043
1762.00,0.0044
1759.00,0.0045
1756.00,0.0045
1753.00,0.0046
1750.00,0.0046
1747.00,0.0048
1744.00,0.0049
1741.00,0.0049
1738.00,0.0050
1735.00,0.0052
1732.00,0.0054
1729.00,0.0057
1726.00,0.0060
1723.00,0.0063
1720.00,0.0065
1717.00,0.0070
1714.00,0.0075
1711.00,0.0083
1708.00,0.0091
1705.00,0.0105
1702.00,0.0118
1699.00,0.0148
1696.00,0.0183
1693.00,0.0225
1690.00,0.0272
1687.00,0.0320
1684.00,0.0382
1681.00,0.0440
1678.00,0.0488
1675.00,0.0542
1672.00,0.0590
1669.00,0.0641
1666.00,0.0685
1663.00,0.0727
1660.00,0.0766
1657.00,0.0794
1654.00,0.0814
1651.00,0.0828
1648.00,0.0828
1645.00,0.0810
1642.00,0.0785
1639.00,0.0747
1636.00,0.0694
1633.00,0.0641
1630.00,0.0607
1627.00,0.0587
1624.00,0.0572
1621.00,0.0546
1618.00,0.0501
1615.00,0.0443
1612.00,0.0414
1609.00,0.0385
1606.00,0.0343
1603.00,0.0301
1600.00,0.0268
1597.00,0.0246
1594.00,0.0234
1591.00,0.0238
1588.00,0.0253
1585.00,0.0262
1582.00,0.0254
1579.00,0.0235
1576.00,0.0211
1573.00,0.0193
1570.00,0.0180
1567.00,0.0170
1564.00,0.0157
1561.00,0.0142
1558.00,0.0129
1555.00,0.0128
1552.00,0.0125
1549.00,0.0122
1546.00,0.0118
1543.00,0.0113
1540.00,0.0109
1537.00,0.0108
1534.00,0.0107
1531.00,0.0106
1528.00,0.0105
1525.00,0.0104
1522.00,0.0106
1519.00,0.0109
1516.00,0.0114
1513.00,0.0120
1510.00,0.0127
1507.00,0.0135
1504.00,0.0156
1501.00,0.0185
1498.00,0.0229
1495.00,0.0261
1492.00,0.0250
1489.00,0.0216
1486.00,0.0181
1483.00,0.0158
1480.00,0.0146
1477.00,0.0147
1474.00,0.0163
1471.00,0.0213
1468.00,0.0282
1465.00,0.0358
1462.00,0.0401
1459.00,0.0400
1456.00,0.0348
1453.00,0.0312
1450.00,0.0307
1447.00,0.0339
1444.00,0.0393
1441.00,0.0448
1438.00,0.0484
1435.00,0.0504
1432.00,0.0510
1429.00,0.0528
1426.00,0.0563
1423.00,0.0596
1420.00,0.0582
1417.00,0.0505
1414.00,0.0419
1411.00,0.0350
1408.00,0.0313
1405.00,0.0301
1402.00,0.0298
1399.00,0.0286
1396.00,0.0261
1393.00,0.0233
1390.00,0.0223
1387.00,0.0235
1384.00,0.0242
1381.00,0.0252
1378.00,0.0266
1375.00,0.0268
1372.00,0.0259
1369.00,0.0257
1366.00,0.0261
1363.00,0.0256
1360.00,0.0255
1357.00,0.0233
1354.00,0.0210
1351.00,0.0201
1348.00,0.0199
1345.00,0.0194
1342.00,0.0188
1339.00,0.0182
1336.00,0.0181
1333.00,0.0191
1330.00,0.0206
1327.00,0.0223
1324.00,0.0243
1321.00,0.0264
1318.00,0.0276
1315.00,0.0271
1312.00,0.0257
1309.00,0.0249
1306.00,0.0257
1303.00,0.0289
1300.00,0.0338
1297.00,0.0404
1294.00,0.0496
1291.00,0.0582
1288.00,0.0639
1285.00,0.0657
1282.00,0.0636
1279.00,0.0605
1276.00,0.0595
1273.00,0.0597
1270.00,0.0583
1267.00,0.0544
1264.00,0.0490
1261.00,0.0435
1258.00,0.0387
1255.00,0.0351
1252.00,0.0326
1249.00,0.0315
1246.00,0.0316
1243.00,0.0323
1240.00,0.0332
1237.00,0.0351
1234.00,0.0372
1231.00,0.0374
1228.00,0.0362
1225.00,0.0350
1222.00,0.0342
1219.00,0.0341
1216.00,0.0342
1213.00,0.0334
1210.00,0.0311
1207.00,0.0289
1204.00,0.0279
1201.00,0.0283
1198.00,0.0297
1195.00,0.0309
1192.00,0.0300
1189.00,0.0276
1186.00,0.0253
1183.00,0.0239
1180.00,0.0235
1177.00,0.0237
1174.00,0.0244
1171.00,0.0248
1168.00,0.0249
1165.00,0.0245
1162.00,0.0244
1159.00,0.0255
1156.00,0.0279
1153.00,0.0274
1150.00,0.0232
1147.00,0.0204
1144.00,0.0192
1141.00,0.0186
1138.00,0.0185
1135.00,0.0199
1132.00,0.0235
1129.00,0.0272
1126.00,0.0268
1123.00,0.0240
1120.00,0.0215
1117.00,0.0205
1114.00,0.0204
1111.00,0.0201
1108.00,0.0198
1105.00,0.0203
1102.00,0.0222
1099.00,0.0236
1096.00,0.0220
1093.00,0.0200
1090.00,0.0190
1087.00,0.0186
1084.00,0.0184
1081.00,0.0186
1078.00,0.0190
1075.00,0.0194
1072.00,0.0197
1069.00,0.0200
1066.00,0.0204
1063.00,0.0215
1060.00,0.0242
1057.00,0.0286
1054.00,0.0320
1051.00,0.0326
1048.00,0.0314
1045.00,0.0282
1042.00,0.0249
1039.00,0.0229
1036.00,0.0227
1033.00,0.0235
1030.00,0.0263
1027.00,0.0301
1024.00,0.0292
1021.00,0.0262
1018.00,0.0244
1015.00,0.0227
1012.00,0.0209
1009.00,0.0205
1006.00,0.0221
1003.00,0.0237
1000.00,0.0232
997.00,0.0218
994.00,0.0207
991.00,0.0194
988.00,0.0181
985.00,0.0174
982.00,0.0168
979.00,0.0164
976.00,0.0162
973.00,0.0160
970.00,0.0157
967.00,0.0154
964.00,0.0155
961.00,0.0155
958.00,0.0150
955.00,0.0146
952.00,0.0144
949.00,0.0146
946.00,0.0146
943.00,0.0148
940.00,0.0158
937.00,0.0171
934.00,0.0181
931.00,0.0179
928.00,0.0170
925.00,0.0169
922.00,0.0171
919.00,0.0165
916.00,0.0155
913.00,0.0149
910.00,0.0148
907.00,0.0150
904.00,0.0158
901.00,0.0175
898.00,0.0185
895.00,0.0180
892.00,0.0182
889.00,0.0183
886.00,0.0167
883.00,0.0161
880.00,0.0161
877.00,0.0175
874.00,0.0202
871.00,0.0232
868.00,0.0236
865.00,0.0219
862.00,0.0205
859.00,0.0204
856.00,0.0221
853.00,0.0249
850.00,0.0276
847.00,0.0283
844.00,0.0271
841.00,0.0263
838.00,0.0265
835.00,0.0275
832.00,0.0272
829.00,0.0248
826.00,0.0222
823.00,0.0228
820.00,0.0269
817.00,0.0282
814.00,0.0271
811.00,0.0221
808.00,0.0200
805.00,0.0191
802.00,0.0189
799.00,0.0188
796.00,0.0189
793.00,0.0190
790.00,0.0191
787.00,0.0192
784.00,0.0195
781.00,0.0199
778.00,0.0204
775.00,0.0215
772.00,0.0219
769.00,0.0219
766.00,0.0225
763.00,0.0233
760.00,0.0245
757.00,0.0255
754.00,0.0263
751.00,0.0273
748.00,0.0284
745.00,0.0296
742.00,0.0311
739.00,0.0329
736.00,0.0358
733.00,0.0366
730.00,0.0359
727.00,0.0348
724.00,0.0327
721.00,0.0314
718.00,0.0314
715.00,0.0319
712.00,0.0318
709.00,0.0316
706.00,0.0317
703.00,0.0321
700.00,0.0329
697.00,0.0337
694.00,0.0339
691.00,0.0347
688.00,0.0361
685.00,0.0366
682.00,0.0370
679.00,0.0377
676.00,0.0391
673.00,0.0409
670.00,0.0421
667.00,0.0433
664.00,0.0447
661.00,0.0465
658.00,0.0478
655.00,0.0494
652.00,0.0511
649.00,0.0525
646.00,0.0530
643.00,0.0525
640.00,0.0517
637.00,0.0508
634.00,0.0500
631.00,0.0493
628.00,0.0491
625.00,0.0490
622.00,0.0492
619.00,0.0495
616.00,0.0492
613.00,0.0484
610.00,0.0481
607.00,0.0495
604.00,0.0513
601.00,0.0524
598.00,0.0526
595.00,0.0531
592.00,0.0538
589.00,0.0545
586.00,0.0556
583.00,0.0575
580.00,0.0595
577.00,0.0619
574.00,0.0628
571.00,0.0623
568.00,0.0618
565.00,0.0613
562.00,0.0614
559.00,0.0611
556.00,0.0600
553.00,0.0593
550.00,0.0590
547.00,0.0594
544.00,0.0590
541.00,0.0584
538.00,0.0573
535.00,0.0573
532.00,0.0583
529.00,0.0584
526.00,0.0571
523.00,0.0563
520.00,0.0561
517.00,0.0558
514.00,0.0555
511.00,0.0550
508.00,0.0558
505.00,0.0558
502.00,0.0556
499.00,0.0555
496.00,0.0559
493.00,0.0562
490.00,0.0556
487.00,0.0555
484.00,0.0558
481.00,0.0564
478.00,0.0563
475.00,0.0558
472.00,0.0564
469.00,0.0562
466.00,0.0551
463.00,0.0550
460.00,0.0555
457.00,0.0558
454.00,0.0553
451.00,0.0541
448.00,0.0539
445.00,0.0545
442.00,0.0535
439.00,0.0529
436.00,0.0532
433.00,0.0537
430.00,0.0523
427.00,0.0524
424.00,0.0522
421.00,0.0523
418.00,0.0506
415.00,0.0490
412.00,0.0507
409.00,0.0521
406.00,0.0522
403.00,0.0485
400.00,0.0497