File: FTIR/Olivia/2025_07_31_Polystyrene_Std_scan2.csv
Created as New Dataset,Sample 1002 By YargerLab Date Thursday, July 31 2025
cm-1,A
4000.00,0.0003
3997.00,0.0003
3994.00,0.0004
3991.00,0.0003
3988.00,0.0003
3985.00,0.0003
3982.00,0.0003
3979.00,0.0003
3976.00,0.0003
3973.00,0.0003
3970.00,0.0003
3967.00,0.0003
3964.00,0.0003
3961.00,0.0003
3958.00,0.0003
3955.00,0.0003
3952.00,0.0003
3949.00,0.0003
3946.00,0.0003
3943.00,0.0003
3940.00,0.0004
3937.00,0.0003
3934.00,0.0003
3931.00,0.0003
3928.00,0.0003
3925.00,0.0003
3922.00,0.0003
3919.00,0.0003
3916.00,0.0003
3913.00,0.0003
3910.00,0.0004
3907.00,0.0003
3904.00,0.0003
3901.00,0.0002
3898.00,0.0002
3895.00,0.0002
3892.00,0.0003
3889.00,0.0003
3886.00,0.0003
3883.00,0.0002
3880.00,0.0002
3877.00,0.0002
3874.00,0.0003
3871.00,0.0002
3868.00,0.0002
3865.00,0.0002
3862.00,0.0002
3859.00,0.0002
3856.00,0.0002
3853.00,0.0002
3850.00,0.0001
3847.00,0.0003
3844.00,0.0003
3841.00,0.0002
3838.00,0.0003
3835.00,0.0003
3832.00,0.0003
3829.00,0.0003
3826.00,0.0003
3823.00,0.0003
3820.00,0.0003
3817.00,0.0002
3814.00,0.0003
3811.00,0.0003
3808.00,0.0003
3805.00,0.0003
3802.00,0.0003
3799.00,0.0003
3796.00,0.0003
3793.00,0.0004
3790.00,0.0004
3787.00,0.0004
3784.00,0.0004
3781.00,0.0003
3778.00,0.0003
3775.00,0.0004
3772.00,0.0004
3769.00,0.0004
3766.00,0.0003
3763.00,0.0004
3760.00,0.0004
3757.00,0.0003
3754.00,0.0003
3751.00,0.0002
3748.00,0.0002
3745.00,0.0002
3742.00,0.0002
3739.00,0.0002
3736.00,0.0002
3733.00,0.0002
3730.00,0.0002
3727.00,0.0002
3724.00,0.0002
3721.00,0.0003
3718.00,0.0003
3715.00,0.0002
3712.00,0.0002
3709.00,0.0002
3706.00,0.0003
3703.00,0.0003
3700.00,0.0003
3697.00,0.0002
3694.00,0.0002
3691.00,0.0002
3688.00,0.0001
3685.00,0.0001
3682.00,0.0002
3679.00,0.0002
3676.00,0.0001
3673.00,0.0000
3670.00,0.0001
3667.00,0.0002
3664.00,0.0002
3661.00,0.0002
3658.00,0.0002
3655.00,0.0002
3652.00,0.0001
3649.00,0.0000
3646.00,-0.0000
3643.00,0.0002
3640.00,0.0003
3637.00,0.0002
3634.00,0.0002
3631.00,0.0001
3628.00,0.0001
3625.00,0.0001
3622.00,0.0002
3619.00,0.0002
3616.00,0.0002
3613.00,0.0002
3610.00,0.0002
3607.00,0.0002
3604.00,0.0002
3601.00,0.0003
3598.00,0.0002
3595.00,0.0002
3592.00,0.0003
3589.00,0.0002
3586.00,0.0002
3583.00,0.0002
3580.00,0.0003
3577.00,0.0003
3574.00,0.0003
3571.00,0.0003
3568.00,0.0003
3565.00,0.0002
3562.00,0.0003
3559.00,0.0004
3556.00,0.0004
3553.00,0.0004
3550.00,0.0004
3547.00,0.0004
3544.00,0.0004
3541.00,0.0004
3538.00,0.0004
3535.00,0.0004
3532.00,0.0005
3529.00,0.0005
3526.00,0.0005
3523.00,0.0005
3520.00,0.0004
3517.00,0.0005
3514.00,0.0005
3511.00,0.0005
3508.00,0.0005
3505.00,0.0005
3502.00,0.0006
3499.00,0.0006
3496.00,0.0005
3493.00,0.0005
3490.00,0.0005
3487.00,0.0006
3484.00,0.0006
3481.00,0.0006
3478.00,0.0006
3475.00,0.0006
3472.00,0.0006
3469.00,0.0006
3466.00,0.0006
3463.00,0.0006
3460.00,0.0006
3457.00,0.0006
3454.00,0.0006
3451.00,0.0006
3448.00,0.0006
3445.00,0.0006
3442.00,0.0006
3439.00,0.0006
3436.00,0.0006
3433.00,0.0006
3430.00,0.0006
3427.00,0.0006
3424.00,0.0006
3421.00,0.0006
3418.00,0.0006
3415.00,0.0006
3412.00,0.0006
3409.00,0.0006
3406.00,0.0006
3403.00,0.0006
3400.00,0.0006
3397.00,0.0007
3394.00,0.0006
3391.00,0.0007
3388.00,0.0006
3385.00,0.0006
3382.00,0.0006
3379.00,0.0006
3376.00,0.0006
3373.00,0.0006
3370.00,0.0006
3367.00,0.0006
3364.00,0.0006
3361.00,0.0006
3358.00,0.0006
3355.00,0.0006
3352.00,0.0006
3349.00,0.0006
3346.00,0.0007
3343.00,0.0006
3340.00,0.0006
3337.00,0.0006
3334.00,0.0006
3331.00,0.0006
3328.00,0.0006
3325.00,0.0006
3322.00,0.0006
3319.00,0.0006
3316.00,0.0006
3313.00,0.0006
3310.00,0.0006
3307.00,0.0006
3304.00,0.0006
3301.00,0.0006
3298.00,0.0006
3295.00,0.0006
3292.00,0.0006
3289.00,0.0006
3286.00,0.0006
3283.00,0.0006
3280.00,0.0006
3277.00,0.0006
3274.00,0.0006
3271.00,0.0006
3268.00,0.0005
3265.00,0.0005
3262.00,0.0006
3259.00,0.0006
3256.00,0.0005
3253.00,0.0005
3250.00,0.0005
3247.00,0.0005
3244.00,0.0005
3241.00,0.0006
3238.00,0.0005
3235.00,0.0005
3232.00,0.0006
3229.00,0.0005
3226.00,0.0005
3223.00,0.0005
3220.00,0.0005
3217.00,0.0004
3214.00,0.0004
3211.00,0.0005
3208.00,0.0005
3205.00,0.0005
3202.00,0.0005
3199.00,0.0005
3196.00,0.0004
3193.00,0.0004
3190.00,0.0004
3187.00,0.0005
3184.00,0.0005
3181.00,0.0004
3178.00,0.0004
3175.00,0.0004
3172.00,0.0005
3169.00,0.0004
3166.00,0.0005
3163.00,0.0005
3160.00,0.0004
3157.00,0.0004
3154.00,0.0004
3151.00,0.0004
3148.00,0.0004
3145.00,0.0004
3142.00,0.0004
3139.00,0.0004
3136.00,0.0004
3133.00,0.0004
3130.00,0.0004
3127.00,0.0004
3124.00,0.0005
3121.00,0.0005
3118.00,0.0005
3115.00,0.0006
3112.00,0.0007
3109.00,0.0009
3106.00,0.0011
3103.00,0.0012
3100.00,0.0012
3097.00,0.0012
3094.00,0.0012
3091.00,0.0014
3088.00,0.0019
3085.00,0.0026
3082.00,0.0030
3079.00,0.0029
3076.00,0.0025
3073.00,0.0022
3070.00,0.0023
3067.00,0.0028
3064.00,0.0034
3061.00,0.0040
3058.00,0.0041
3055.00,0.0036
3052.00,0.0029
3049.00,0.0024
3046.00,0.0022
3043.00,0.0022
3040.00,0.0024
3037.00,0.0030
3034.00,0.0039
3031.00,0.0054
3028.00,0.0071
3025.00,0.0081
3022.00,0.0073
3019.00,0.0053
3016.00,0.0035
3013.00,0.0024
3010.00,0.0018
3007.00,0.0017
3004.00,0.0018
3001.00,0.0019
2998.00,0.0016
2995.00,0.0012
2992.00,0.0008
2989.00,0.0006
2986.00,0.0004
2983.00,0.0002
2980.00,0.0002
2977.00,0.0004
2974.00,0.0004
2971.00,0.0004
2968.00,0.0005
2965.00,0.0007
2962.00,0.0009
2959.00,0.0011
2956.00,0.0014
2953.00,0.0017
2950.00,0.0021
2947.00,0.0027
2944.00,0.0033
2941.00,0.0040
2938.00,0.0048
2935.00,0.0056
2932.00,0.0065
2929.00,0.0074
2926.00,0.0081
2923.00,0.0085
2920.00,0.0086
2917.00,0.0084
2914.00,0.0080
2911.00,0.0075
2908.00,0.0069
2905.00,0.0062
2902.00,0.0054
2899.00,0.0047
2896.00,0.0040
2893.00,0.0035
2890.00,0.0032
2887.00,0.0029
2884.00,0.0027
2881.00,0.0025
2878.00,0.0023
2875.00,0.0021
2872.00,0.0020
2869.00,0.0020
2866.00,0.0020
2863.00,0.0022
2860.00,0.0025
2857.00,0.0028
2854.00,0.0032
2851.00,0.0036
2848.00,0.0037
2845.00,0.0035
2842.00,0.0031
2839.00,0.0024
2836.00,0.0017
2833.00,0.0013
2830.00,0.0010
2827.00,0.0009
2824.00,0.0008
2821.00,0.0007
2818.00,0.0007
2815.00,0.0007
2812.00,0.0007
2809.00,0.0007
2806.00,0.0007
2803.00,0.0006
2800.00,0.0006
2797.00,0.0006
2794.00,0.0006
2791.00,0.0006
2788.00,0.0006
2785.00,0.0006
2782.00,0.0006
2779.00,0.0006
2776.00,0.0005
2773.00,0.0005
2770.00,0.0006
2767.00,0.0005
2764.00,0.0005
2761.00,0.0004
2758.00,0.0004
2755.00,0.0005
2752.00,0.0005
2749.00,0.0005
2746.00,0.0005
2743.00,0.0005
2740.00,0.0005
2737.00,0.0005
2734.00,0.0005
2731.00,0.0005
2728.00,0.0005
2725.00,0.0005
2722.00,0.0005
2719.00,0.0005
2716.00,0.0005
2713.00,0.0005
2710.00,0.0005
2707.00,0.0005
2704.00,0.0005
2701.00,0.0005
2698.00,0.0005
2695.00,0.0005
2692.00,0.0005
2689.00,0.0005
2686.00,0.0005
2683.00,0.0005
2680.00,0.0005
2677.00,0.0005
2674.00,0.0005
2671.00,0.0004
2668.00,0.0005
2665.00,0.0006
2662.00,0.0007
2659.00,0.0008
2656.00,0.0009
2653.00,0.0009
2650.00,0.0009
2647.00,0.0009
2644.00,0.0009
2641.00,0.0009
2638.00,0.0009
2635.00,0.0009
2632.00,0.0010
2629.00,0.0009
2626.00,0.0009
2623.00,0.0008
2620.00,0.0008
2617.00,0.0008
2614.00,0.0008
2611.00,0.0008
2608.00,0.0008
2605.00,0.0007
2602.00,0.0008
2599.00,0.0007
2596.00,0.0007
2593.00,0.0006
2590.00,0.0006
2587.00,0.0006
2584.00,0.0006
2581.00,0.0006
2578.00,0.0006
2575.00,0.0006
2572.00,0.0005
2569.00,0.0005
2566.00,0.0005
2563.00,0.0005
2560.00,0.0005
2557.00,0.0005
2554.00,0.0004
2551.00,0.0004
2548.00,0.0004
2545.00,0.0005
2542.00,0.0005
2539.00,0.0004
2536.00,0.0004
2533.00,0.0003
2530.00,0.0003
2527.00,0.0003
2524.00,0.0003
2521.00,0.0002
2518.00,0.0003
2515.00,0.0003
2512.00,0.0004
2509.00,0.0003
2506.00,0.0003
2503.00,0.0004
2500.00,0.0003
2497.00,0.0003
2494.00,0.0003
2491.00,0.0003
2488.00,0.0003
2485.00,0.0003
2482.00,0.0003
2479.00,0.0003
2476.00,0.0003
2473.00,0.0002
2470.00,0.0001
2467.00,0.0002
2464.00,0.0003
2461.00,0.0003
2458.00,0.0004
2455.00,0.0004
2452.00,0.0004
2449.00,0.0003
2446.00,0.0003
2443.00,0.0003
2440.00,0.0003
2437.00,0.0002
2434.00,0.0001
2431.00,0.0002
2428.00,0.0002
2425.00,0.0001
2422.00,0.0001
2419.00,0.0002
2416.00,0.0001
2413.00,0.0001
2410.00,0.0001
2407.00,-0.0001
2404.00,-0.0001
2401.00,-0.0001
2398.00,-0.0001
2395.00,-0.0000
2392.00,-0.0001
2389.00,-0.0001
2386.00,-0.0001
2383.00,-0.0001
2380.00,-0.0001
2377.00,-0.0001
2374.00,-0.0001
2371.00,-0.0001
2368.00,-0.0001
2365.00,0.0000
2362.00,0.0001
2359.00,0.0003
2356.00,0.0003
2353.00,0.0002
2350.00,0.0003
2347.00,0.0003
2344.00,0.0005
2341.00,0.0006
2338.00,0.0005
2335.00,0.0005
2332.00,0.0005
2329.00,0.0006
2326.00,0.0015
2323.00,0.0014
2320.00,0.0011
2317.00,0.0010
2314.00,0.0009
2311.00,0.0009
2308.00,0.0008
2305.00,0.0007
2302.00,0.0008
2299.00,0.0008
2296.00,0.0008
2293.00,0.0010
2290.00,0.0011
2287.00,0.0011
2284.00,0.0010
2281.00,0.0009
2278.00,0.0008
2275.00,0.0007
2272.00,0.0007
2269.00,0.0007
2266.00,0.0005
2263.00,0.0005
2260.00,0.0007
2257.00,0.0006
2254.00,0.0005
2251.00,0.0006
2248.00,0.0004
2245.00,0.0003
2242.00,0.0002
2239.00,0.0002
2236.00,0.0002
2233.00,0.0005
2230.00,0.0004
2227.00,0.0002
2224.00,0.0003
2221.00,0.0005
2218.00,0.0002
2215.00,0.0004
2212.00,0.0003
2209.00,0.0002
2206.00,0.0003
2203.00,0.0004
2200.00,0.0003
2197.00,0.0005
2194.00,0.0006
2191.00,0.0007
2188.00,0.0007
2185.00,0.0006
2182.00,0.0001
2179.00,0.0002
2176.00,-0.0003
2173.00,0.0000
2170.00,0.0007
2167.00,0.0008
2164.00,0.0009
2161.00,0.0000
2158.00,-0.0023
2155.00,-0.0019
2152.00,-0.0016
2149.00,-0.0012
2146.00,-0.0014
2143.00,-0.0012
2140.00,-0.0011
2137.00,-0.0014
2134.00,-0.0019
2131.00,-0.0016
2128.00,-0.0010
2125.00,-0.0008
2122.00,-0.0005
2119.00,-0.0004
2116.00,-0.0001
2113.00,-0.0000
2110.00,-0.0000
2107.00,-0.0001
2104.00,-0.0001
2101.00,-0.0000
2098.00,-0.0003
2095.00,-0.0004
2092.00,-0.0001
2089.00,0.0000
2086.00,-0.0000
2083.00,0.0002
2080.00,0.0003
2077.00,0.0002
2074.00,0.0001
2071.00,0.0001
2068.00,0.0001
2065.00,-0.0001
2062.00,-0.0002
2059.00,0.0000
2056.00,0.0002
2053.00,0.0007
2050.00,0.0010
2047.00,0.0003
2044.00,0.0002
2041.00,0.0004
2038.00,0.0003
2035.00,-0.0000
2032.00,-0.0003
2029.00,-0.0006
2026.00,-0.0005
2023.00,-0.0005
2020.00,-0.0005
2017.00,-0.0006
2014.00,-0.0005
2011.00,-0.0005
2008.00,-0.0007
2005.00,-0.0010
2002.00,-0.0006
1999.00,-0.0003
1996.00,-0.0001
1993.00,0.0001
1990.00,0.0000
1987.00,0.0002
1984.00,0.0008
1981.00,0.0010
1978.00,0.0000
1975.00,-0.0005
1972.00,-0.0008
1969.00,-0.0005
1966.00,-0.0006
1963.00,-0.0007
1960.00,-0.0005
1957.00,-0.0003
1954.00,-0.0002
1951.00,-0.0001
1948.00,0.0002
1945.00,0.0004
1942.00,0.0005
1939.00,0.0003
1936.00,0.0002
1933.00,0.0001
1930.00,-0.0002
1927.00,-0.0002
1924.00,-0.0003
1921.00,-0.0003
1918.00,-0.0002
1915.00,-0.0002
1912.00,-0.0003
1909.00,-0.0002
1906.00,-0.0002
1903.00,-0.0003
1900.00,-0.0002
1897.00,-0.0002
1894.00,-0.0001
1891.00,0.0001
1888.00,0.0002
1885.00,0.0003
1882.00,0.0004
1879.00,0.0004
1876.00,0.0006
1873.00,0.0007
1870.00,0.0007
1867.00,0.0006
1864.00,0.0005
1861.00,0.0003
1858.00,0.0001
1855.00,0.0000
1852.00,-0.0000
1849.00,-0.0000
1846.00,-0.0002
1843.00,-0.0002
1840.00,-0.0001
1837.00,-0.0001
1834.00,-0.0000
1831.00,-0.0000
1828.00,0.0001
1825.00,0.0002
1822.00,0.0003
1819.00,0.0002
1816.00,0.0003
1813.00,0.0005
1810.00,0.0007
1807.00,0.0008
1804.00,0.0010
1801.00,0.0010
1798.00,0.0010
1795.00,0.0008
1792.00,0.0007
1789.00,0.0006
1786.00,0.0005
1783.00,0.0004
1780.00,0.0004
1777.00,0.0004
1774.00,0.0005
1771.00,0.0005
1768.00,0.0005
1765.00,0.0006
1762.00,0.0007
1759.00,0.0007
1756.00,0.0009
1753.00,0.0011
1750.00,0.0012
1747.00,0.0013
1744.00,0.0014
1741.00,0.0015
1738.00,0.0015
1735.00,0.0015
1732.00,0.0014
1729.00,0.0013
1726.00,0.0012
1723.00,0.0011
1720.00,0.0011
1717.00,0.0010
1714.00,0.0009
1711.00,0.0008
1708.00,0.0009
1705.00,0.0008
1702.00,0.0008
1699.00,0.0008
1696.00,0.0009
1693.00,0.0009
1690.00,0.0011
1687.00,0.0013
1684.00,0.0013
1681.00,0.0014
1678.00,0.0014
1675.00,0.0015
1672.00,0.0014
1669.00,0.0015
1666.00,0.0015
1663.00,0.0014
1660.00,0.0014
1657.00,0.0013
1654.00,0.0012
1651.00,0.0012
1648.00,0.0011
1645.00,0.0010
1642.00,0.0010
1639.00,0.0009
1636.00,0.0009
1633.00,0.0009
1630.00,0.0009
1627.00,0.0010
1624.00,0.0010
1621.00,0.0010
1618.00,0.0011
1615.00,0.0013
1612.00,0.0016
1609.00,0.0026
1606.00,0.0048
1603.00,0.0076
1600.00,0.0084
1597.00,0.0062
1594.00,0.0039
1591.00,0.0028
1588.00,0.0025
1585.00,0.0032
1582.00,0.0034
1579.00,0.0024
1576.00,0.0015
1573.00,0.0011
1570.00,0.0009
1567.00,0.0008
1564.00,0.0008
1561.00,0.0007
1558.00,0.0007
1555.00,0.0009
1552.00,0.0010
1549.00,0.0012
1546.00,0.0013
1543.00,0.0013
1540.00,0.0013
1537.00,0.0012
1534.00,0.0011
1531.00,0.0010
1528.00,0.0009
1525.00,0.0009
1522.00,0.0008
1519.00,0.0008
1516.00,0.0009
1513.00,0.0011
1510.00,0.0012
1507.00,0.0013
1504.00,0.0018
1501.00,0.0029
1498.00,0.0063
1495.00,0.0156
1492.00,0.0222
1489.00,0.0138
1486.00,0.0070
1483.00,0.0043
1480.00,0.0029
1477.00,0.0024
1474.00,0.0022
1471.00,0.0021
1468.00,0.0023
1465.00,0.0026
1462.00,0.0031
1459.00,0.0047
1456.00,0.0113
1453.00,0.0202
1450.00,0.0212
1447.00,0.0160
1444.00,0.0125
1441.00,0.0098
1438.00,0.0079
1435.00,0.0053
1432.00,0.0040
1429.00,0.0030
1426.00,0.0026
1423.00,0.0022
1420.00,0.0022
1417.00,0.0019
1414.00,0.0018
1411.00,0.0017
1408.00,0.0017
1405.00,0.0017
1402.00,0.0016
1399.00,0.0016
1396.00,0.0017
1393.00,0.0019
1390.00,0.0023
1387.00,0.0028
1384.00,0.0033
1381.00,0.0037
1378.00,0.0041
1375.00,0.0045
1372.00,0.0047
1369.00,0.0047
1366.00,0.0046
1363.00,0.0046
1360.00,0.0044
1357.00,0.0042
1354.00,0.0040
1351.00,0.0040
1348.00,0.0040
1345.00,0.0039
1342.00,0.0037
1339.00,0.0035
1336.00,0.0036
1333.00,0.0039
1330.00,0.0042
1327.00,0.0042
1324.00,0.0040
1321.00,0.0039
1318.00,0.0039
1315.00,0.0041
1312.00,0.0041
1309.00,0.0040
1306.00,0.0038
1303.00,0.0036
1300.00,0.0034
1297.00,0.0034
1294.00,0.0033
1291.00,0.0033
1288.00,0.0032
1285.00,0.0031
1282.00,0.0031
1279.00,0.0030
1276.00,0.0028
1273.00,0.0026
1270.00,0.0025
1267.00,0.0023
1264.00,0.0021
1261.00,0.0021
1258.00,0.0021
1255.00,0.0021
1252.00,0.0021
1249.00,0.0022
1246.00,0.0022
1243.00,0.0022
1240.00,0.0022
1237.00,0.0022
1234.00,0.0022
1231.00,0.0023
1228.00,0.0023
1225.00,0.0023
1222.00,0.0023
1219.00,0.0023
1216.00,0.0024
1213.00,0.0025
1210.00,0.0027
1207.00,0.0028
1204.00,0.0031
1201.00,0.0034
1198.00,0.0036
1195.00,0.0037
1192.00,0.0038
1189.00,0.0039
1186.00,0.0043
1183.00,0.0049
1180.00,0.0051
1177.00,0.0042
1174.00,0.0033
1171.00,0.0030
1168.00,0.0029
1165.00,0.0030
1162.00,0.0032
1159.00,0.0039
1156.00,0.0050
1153.00,0.0051
1150.00,0.0039
1147.00,0.0030
1144.00,0.0026
1141.00,0.0022
1138.00,0.0020
1135.00,0.0020
1132.00,0.0021
1129.00,0.0021
1126.00,0.0022
1123.00,0.0023
1120.00,0.0025
1117.00,0.0028
1114.00,0.0032
1111.00,0.0033
1108.00,0.0033
1105.00,0.0033
1102.00,0.0033
1099.00,0.0033
1096.00,0.0035
1093.00,0.0035
1090.00,0.0037
1087.00,0.0040
1084.00,0.0044
1081.00,0.0050
1078.00,0.0055
1075.00,0.0062
1072.00,0.0072
1069.00,0.0078
1066.00,0.0075
1063.00,0.0067
1060.00,0.0058
1057.00,0.0053
1054.00,0.0049
1051.00,0.0046
1048.00,0.0043
1045.00,0.0042
1042.00,0.0042
1039.00,0.0046
1036.00,0.0061
1033.00,0.0090
1030.00,0.0124
1027.00,0.0131
1024.00,0.0109
1021.00,0.0086
1018.00,0.0073
1015.00,0.0064
1012.00,0.0058
1009.00,0.0055
1006.00,0.0057
1003.00,0.0060
1000.00,0.0053
997.00,0.0045
994.00,0.0043
991.00,0.0043
988.00,0.0046
985.00,0.0049
982.00,0.0054
979.00,0.0054
976.00,0.0050
973.00,0.0048
970.00,0.0049
967.00,0.0054
964.00,0.0057
961.00,0.0052
958.00,0.0045
955.00,0.0040
952.00,0.0039
949.00,0.0040
946.00,0.0043
943.00,0.0044
940.00,0.0043
937.00,0.0039
934.00,0.0035
931.00,0.0032
928.00,0.0030
925.00,0.0031
922.00,0.0035
919.00,0.0039
916.00,0.0046
913.00,0.0061
910.00,0.0079
907.00,0.0090
904.00,0.0086
901.00,0.0069
898.00,0.0050
895.00,0.0039
892.00,0.0033
889.00,0.0031
886.00,0.0028
883.00,0.0027
880.00,0.0025
877.00,0.0024
874.00,0.0025
871.00,0.0023
868.00,0.0023
865.00,0.0021
862.00,0.0022
859.00,0.0023
856.00,0.0023
853.00,0.0025
850.00,0.0030
847.00,0.0038
844.00,0.0045
841.00,0.0047
838.00,0.0042
835.00,0.0033
832.00,0.0025
829.00,0.0021
826.00,0.0020
823.00,0.0019
820.00,0.0019
817.00,0.0020
814.00,0.0021
811.00,0.0022
808.00,0.0022
805.00,0.0022
802.00,0.0024
799.00,0.0027
796.00,0.0031
793.00,0.0037
790.00,0.0043
787.00,0.0052
784.00,0.0063
781.00,0.0076
778.00,0.0096
775.00,0.0125
772.00,0.0162
769.00,0.0205
766.00,0.0250
763.00,0.0293
760.00,0.0338
757.00,0.0372
754.00,0.0383
751.00,0.0378
748.00,0.0375
745.00,0.0345
742.00,0.0277
739.00,0.0206
736.00,0.0148
733.00,0.0100
730.00,0.0068
727.00,0.0052
724.00,0.0048
721.00,0.0045
718.00,0.0049
715.00,0.0060
712.00,0.0088
709.00,0.0159
706.00,0.0300
703.00,0.0521
700.00,0.0785
697.00,0.1036
694.00,0.1103
691.00,0.0846
688.00,0.0558
685.00,0.0393
682.00,0.0303
679.00,0.0246
676.00,0.0208
673.00,0.0184
670.00,0.0170
667.00,0.0148
664.00,0.0132
661.00,0.0116
658.00,0.0102
655.00,0.0091
652.00,0.0081
649.00,0.0073
646.00,0.0066
643.00,0.0063
640.00,0.0063
637.00,0.0067
634.00,0.0071
631.00,0.0076
628.00,0.0080
625.00,0.0084
622.00,0.0087
619.00,0.0087
616.00,0.0077
613.00,0.0068
610.00,0.0070
607.00,0.0067
604.00,0.0067
601.00,0.0068
598.00,0.0071
595.00,0.0074
592.00,0.0080
589.00,0.0084
586.00,0.0087
583.00,0.0093
580.00,0.0104
577.00,0.0115
574.00,0.0130
571.00,0.0147
568.00,0.0166
565.00,0.0181
562.00,0.0198
559.00,0.0216
556.00,0.0231
553.00,0.0252
550.00,0.0277
547.00,0.0309
544.00,0.0348
541.00,0.0388
538.00,0.0409
535.00,0.0389
532.00,0.0339
529.00,0.0284
526.00,0.0235
523.00,0.0192
520.00,0.0166
517.00,0.0148
514.00,0.0136
511.00,0.0127
508.00,0.0112
505.00,0.0100
502.00,0.0096
499.00,0.0089
496.00,0.0083
493.00,0.0076
490.00,0.0077
487.00,0.0076
484.00,0.0071
481.00,0.0072
478.00,0.0072
475.00,0.0068
472.00,0.0068
469.00,0.0066
466.00,0.0074
463.00,0.0067
460.00,0.0063
457.00,0.0071
454.00,0.0068
451.00,0.0056
448.00,0.0055
445.00,0.0046
442.00,0.0044
439.00,0.0062
436.00,0.0059
433.00,0.0047
430.00,0.0047
427.00,0.0043
424.00,0.0038
421.00,0.0041
418.00,0.0050
415.00,0.0050
412.00,0.0049
409.00,0.0069
406.00,0.0049
403.00,0.0054
400.00,0.0084