File: FTIR/Olivia/2025_08_05_Polystyrene_film_scan1.csv
Created as New Dataset,Sample 1066 By YargerLab Date Monday, August 04 2025
cm-1,A
4000.00,0.0004
3997.00,0.0004
3994.00,0.0004
3991.00,0.0004
3988.00,0.0004
3985.00,0.0004
3982.00,0.0003
3979.00,0.0003
3976.00,0.0004
3973.00,0.0003
3970.00,0.0004
3967.00,0.0003
3964.00,0.0003
3961.00,0.0004
3958.00,0.0004
3955.00,0.0004
3952.00,0.0004
3949.00,0.0003
3946.00,0.0003
3943.00,0.0003
3940.00,0.0003
3937.00,0.0003
3934.00,0.0003
3931.00,0.0003
3928.00,0.0003
3925.00,0.0003
3922.00,0.0003
3919.00,0.0003
3916.00,0.0004
3913.00,0.0004
3910.00,0.0004
3907.00,0.0003
3904.00,0.0002
3901.00,0.0002
3898.00,0.0002
3895.00,0.0002
3892.00,0.0003
3889.00,0.0003
3886.00,0.0003
3883.00,0.0003
3880.00,0.0003
3877.00,0.0002
3874.00,0.0002
3871.00,0.0001
3868.00,0.0002
3865.00,0.0002
3862.00,0.0002
3859.00,0.0002
3856.00,0.0002
3853.00,0.0001
3850.00,0.0001
3847.00,0.0002
3844.00,0.0002
3841.00,0.0001
3838.00,0.0001
3835.00,0.0002
3832.00,0.0003
3829.00,0.0003
3826.00,0.0003
3823.00,0.0002
3820.00,0.0002
3817.00,0.0002
3814.00,0.0003
3811.00,0.0003
3808.00,0.0003
3805.00,0.0002
3802.00,0.0001
3799.00,0.0001
3796.00,0.0002
3793.00,0.0003
3790.00,0.0004
3787.00,0.0004
3784.00,0.0004
3781.00,0.0003
3778.00,0.0004
3775.00,0.0003
3772.00,0.0003
3769.00,0.0003
3766.00,0.0003
3763.00,0.0003
3760.00,0.0003
3757.00,0.0002
3754.00,0.0001
3751.00,0.0002
3748.00,0.0001
3745.00,0.0001
3742.00,0.0001
3739.00,0.0001
3736.00,0.0001
3733.00,0.0000
3730.00,0.0001
3727.00,0.0003
3724.00,0.0002
3721.00,0.0002
3718.00,0.0003
3715.00,0.0003
3712.00,0.0002
3709.00,0.0001
3706.00,0.0002
3703.00,0.0003
3700.00,0.0003
3697.00,0.0003
3694.00,0.0002
3691.00,0.0001
3688.00,0.0001
3685.00,0.0001
3682.00,0.0002
3679.00,0.0002
3676.00,0.0002
3673.00,0.0001
3670.00,0.0001
3667.00,0.0002
3664.00,0.0003
3661.00,0.0003
3658.00,0.0003
3655.00,0.0003
3652.00,0.0001
3649.00,-0.0000
3646.00,0.0001
3643.00,0.0002
3640.00,0.0002
3637.00,0.0002
3634.00,0.0001
3631.00,0.0001
3628.00,0.0001
3625.00,0.0002
3622.00,0.0002
3619.00,0.0002
3616.00,0.0001
3613.00,0.0002
3610.00,0.0002
3607.00,0.0003
3604.00,0.0002
3601.00,0.0003
3598.00,0.0003
3595.00,0.0003
3592.00,0.0004
3589.00,0.0003
3586.00,0.0003
3583.00,0.0003
3580.00,0.0004
3577.00,0.0004
3574.00,0.0005
3571.00,0.0005
3568.00,0.0003
3565.00,0.0003
3562.00,0.0004
3559.00,0.0005
3556.00,0.0005
3553.00,0.0005
3550.00,0.0004
3547.00,0.0005
3544.00,0.0005
3541.00,0.0005
3538.00,0.0006
3535.00,0.0006
3532.00,0.0006
3529.00,0.0005
3526.00,0.0005
3523.00,0.0005
3520.00,0.0006
3517.00,0.0007
3514.00,0.0007
3511.00,0.0007
3508.00,0.0007
3505.00,0.0007
3502.00,0.0007
3499.00,0.0007
3496.00,0.0008
3493.00,0.0008
3490.00,0.0008
3487.00,0.0008
3484.00,0.0008
3481.00,0.0009
3478.00,0.0008
3475.00,0.0008
3472.00,0.0009
3469.00,0.0009
3466.00,0.0009
3463.00,0.0009
3460.00,0.0009
3457.00,0.0010
3454.00,0.0009
3451.00,0.0009
3448.00,0.0010
3445.00,0.0010
3442.00,0.0010
3439.00,0.0010
3436.00,0.0010
3433.00,0.0011
3430.00,0.0010
3427.00,0.0010
3424.00,0.0010
3421.00,0.0010
3418.00,0.0010
3415.00,0.0010
3412.00,0.0010
3409.00,0.0011
3406.00,0.0010
3403.00,0.0010
3400.00,0.0011
3397.00,0.0010
3394.00,0.0010
3391.00,0.0010
3388.00,0.0010
3385.00,0.0010
3382.00,0.0010
3379.00,0.0010
3376.00,0.0010
3373.00,0.0010
3370.00,0.0010
3367.00,0.0011
3364.00,0.0010
3361.00,0.0010
3358.00,0.0010
3355.00,0.0010
3352.00,0.0010
3349.00,0.0010
3346.00,0.0010
3343.00,0.0010
3340.00,0.0010
3337.00,0.0010
3334.00,0.0010
3331.00,0.0010
3328.00,0.0010
3325.00,0.0009
3322.00,0.0009
3319.00,0.0009
3316.00,0.0010
3313.00,0.0009
3310.00,0.0010
3307.00,0.0010
3304.00,0.0010
3301.00,0.0009
3298.00,0.0009
3295.00,0.0009
3292.00,0.0009
3289.00,0.0009
3286.00,0.0009
3283.00,0.0009
3280.00,0.0009
3277.00,0.0009
3274.00,0.0009
3271.00,0.0009
3268.00,0.0009
3265.00,0.0009
3262.00,0.0009
3259.00,0.0009
3256.00,0.0008
3253.00,0.0008
3250.00,0.0008
3247.00,0.0008
3244.00,0.0008
3241.00,0.0008
3238.00,0.0008
3235.00,0.0008
3232.00,0.0007
3229.00,0.0007
3226.00,0.0007
3223.00,0.0007
3220.00,0.0007
3217.00,0.0007
3214.00,0.0007
3211.00,0.0007
3208.00,0.0006
3205.00,0.0007
3202.00,0.0007
3199.00,0.0007
3196.00,0.0007
3193.00,0.0007
3190.00,0.0007
3187.00,0.0007
3184.00,0.0007
3181.00,0.0006
3178.00,0.0006
3175.00,0.0006
3172.00,0.0006
3169.00,0.0006
3166.00,0.0006
3163.00,0.0006
3160.00,0.0007
3157.00,0.0007
3154.00,0.0006
3151.00,0.0005
3148.00,0.0005
3145.00,0.0005
3142.00,0.0005
3139.00,0.0005
3136.00,0.0005
3133.00,0.0005
3130.00,0.0005
3127.00,0.0006
3124.00,0.0006
3121.00,0.0006
3118.00,0.0007
3115.00,0.0008
3112.00,0.0009
3109.00,0.0012
3106.00,0.0014
3103.00,0.0016
3100.00,0.0015
3097.00,0.0015
3094.00,0.0015
3091.00,0.0019
3088.00,0.0026
3085.00,0.0035
3082.00,0.0039
3079.00,0.0037
3076.00,0.0032
3073.00,0.0029
3070.00,0.0031
3067.00,0.0036
3064.00,0.0045
3061.00,0.0052
3058.00,0.0053
3055.00,0.0046
3052.00,0.0038
3049.00,0.0031
3046.00,0.0028
3043.00,0.0028
3040.00,0.0032
3037.00,0.0039
3034.00,0.0052
3031.00,0.0071
3028.00,0.0093
3025.00,0.0105
3022.00,0.0094
3019.00,0.0067
3016.00,0.0045
3013.00,0.0032
3010.00,0.0026
3007.00,0.0026
3004.00,0.0028
3001.00,0.0029
2998.00,0.0026
2995.00,0.0020
2992.00,0.0017
2989.00,0.0015
2986.00,0.0015
2983.00,0.0016
2980.00,0.0018
2977.00,0.0020
2974.00,0.0022
2971.00,0.0024
2968.00,0.0025
2965.00,0.0025
2962.00,0.0026
2959.00,0.0027
2956.00,0.0029
2953.00,0.0033
2950.00,0.0037
2947.00,0.0043
2944.00,0.0050
2941.00,0.0060
2938.00,0.0071
2935.00,0.0084
2932.00,0.0096
2929.00,0.0108
2926.00,0.0118
2923.00,0.0124
2920.00,0.0124
2917.00,0.0121
2914.00,0.0114
2911.00,0.0105
2908.00,0.0095
2905.00,0.0086
2902.00,0.0076
2899.00,0.0066
2896.00,0.0059
2893.00,0.0053
2890.00,0.0048
2887.00,0.0044
2884.00,0.0041
2881.00,0.0038
2878.00,0.0035
2875.00,0.0033
2872.00,0.0031
2869.00,0.0030
2866.00,0.0031
2863.00,0.0033
2860.00,0.0037
2857.00,0.0042
2854.00,0.0048
2851.00,0.0053
2848.00,0.0054
2845.00,0.0049
2842.00,0.0041
2839.00,0.0031
2836.00,0.0022
2833.00,0.0017
2830.00,0.0014
2827.00,0.0012
2824.00,0.0011
2821.00,0.0010
2818.00,0.0010
2815.00,0.0009
2812.00,0.0009
2809.00,0.0009
2806.00,0.0009
2803.00,0.0009
2800.00,0.0008
2797.00,0.0008
2794.00,0.0008
2791.00,0.0007
2788.00,0.0007
2785.00,0.0007
2782.00,0.0007
2779.00,0.0007
2776.00,0.0007
2773.00,0.0007
2770.00,0.0006
2767.00,0.0006
2764.00,0.0005
2761.00,0.0005
2758.00,0.0005
2755.00,0.0006
2752.00,0.0006
2749.00,0.0006
2746.00,0.0006
2743.00,0.0006
2740.00,0.0006
2737.00,0.0006
2734.00,0.0006
2731.00,0.0006
2728.00,0.0006
2725.00,0.0006
2722.00,0.0006
2719.00,0.0006
2716.00,0.0006
2713.00,0.0006
2710.00,0.0006
2707.00,0.0006
2704.00,0.0006
2701.00,0.0006
2698.00,0.0006
2695.00,0.0006
2692.00,0.0006
2689.00,0.0006
2686.00,0.0006
2683.00,0.0006
2680.00,0.0006
2677.00,0.0006
2674.00,0.0006
2671.00,0.0006
2668.00,0.0006
2665.00,0.0008
2662.00,0.0009
2659.00,0.0010
2656.00,0.0011
2653.00,0.0011
2650.00,0.0011
2647.00,0.0011
2644.00,0.0011
2641.00,0.0011
2638.00,0.0011
2635.00,0.0011
2632.00,0.0011
2629.00,0.0011
2626.00,0.0011
2623.00,0.0010
2620.00,0.0010
2617.00,0.0010
2614.00,0.0009
2611.00,0.0009
2608.00,0.0009
2605.00,0.0009
2602.00,0.0009
2599.00,0.0009
2596.00,0.0008
2593.00,0.0008
2590.00,0.0007
2587.00,0.0007
2584.00,0.0007
2581.00,0.0008
2578.00,0.0008
2575.00,0.0007
2572.00,0.0006
2569.00,0.0007
2566.00,0.0006
2563.00,0.0006
2560.00,0.0006
2557.00,0.0006
2554.00,0.0006
2551.00,0.0005
2548.00,0.0006
2545.00,0.0005
2542.00,0.0005
2539.00,0.0004
2536.00,0.0004
2533.00,0.0005
2530.00,0.0004
2527.00,0.0004
2524.00,0.0004
2521.00,0.0004
2518.00,0.0004
2515.00,0.0005
2512.00,0.0005
2509.00,0.0005
2506.00,0.0005
2503.00,0.0004
2500.00,0.0004
2497.00,0.0004
2494.00,0.0004
2491.00,0.0003
2488.00,0.0004
2485.00,0.0003
2482.00,0.0003
2479.00,0.0003
2476.00,0.0002
2473.00,0.0002
2470.00,0.0002
2467.00,0.0002
2464.00,0.0002
2461.00,0.0003
2458.00,0.0004
2455.00,0.0005
2452.00,0.0004
2449.00,0.0003
2446.00,0.0004
2443.00,0.0004
2440.00,0.0003
2437.00,0.0003
2434.00,0.0002
2431.00,0.0002
2428.00,0.0001
2425.00,-0.0000
2422.00,0.0000
2419.00,0.0002
2416.00,0.0001
2413.00,0.0001
2410.00,0.0001
2407.00,-0.0000
2404.00,-0.0000
2401.00,-0.0000
2398.00,-0.0000
2395.00,-0.0001
2392.00,-0.0001
2389.00,-0.0001
2386.00,-0.0001
2383.00,-0.0002
2380.00,-0.0002
2377.00,-0.0001
2374.00,-0.0001
2371.00,-0.0001
2368.00,-0.0002
2365.00,-0.0001
2362.00,0.0001
2359.00,0.0001
2356.00,0.0001
2353.00,0.0001
2350.00,0.0002
2347.00,0.0003
2344.00,0.0005
2341.00,0.0005
2338.00,0.0005
2335.00,0.0006
2332.00,0.0005
2329.00,0.0008
2326.00,0.0017
2323.00,0.0017
2320.00,0.0013
2317.00,0.0011
2314.00,0.0010
2311.00,0.0010
2308.00,0.0009
2305.00,0.0008
2302.00,0.0008
2299.00,0.0009
2296.00,0.0011
2293.00,0.0012
2290.00,0.0014
2287.00,0.0015
2284.00,0.0012
2281.00,0.0010
2278.00,0.0010
2275.00,0.0009
2272.00,0.0009
2269.00,0.0008
2266.00,0.0006
2263.00,0.0006
2260.00,0.0008
2257.00,0.0006
2254.00,0.0004
2251.00,0.0004
2248.00,0.0005
2245.00,0.0005
2242.00,0.0004
2239.00,0.0004
2236.00,0.0005
2233.00,0.0005
2230.00,0.0005
2227.00,0.0005
2224.00,0.0004
2221.00,0.0004
2218.00,0.0003
2215.00,0.0002
2212.00,0.0003
2209.00,0.0003
2206.00,0.0004
2203.00,0.0004
2200.00,0.0002
2197.00,0.0003
2194.00,0.0005
2191.00,0.0006
2188.00,0.0006
2185.00,0.0005
2182.00,0.0000
2179.00,0.0000
2176.00,-0.0004
2173.00,-0.0001
2170.00,0.0007
2167.00,0.0012
2164.00,0.0013
2161.00,0.0004
2158.00,-0.0028
2155.00,-0.0025
2152.00,-0.0019
2149.00,-0.0017
2146.00,-0.0017
2143.00,-0.0016
2140.00,-0.0014
2137.00,-0.0016
2134.00,-0.0021
2131.00,-0.0016
2128.00,-0.0012
2125.00,-0.0008
2122.00,-0.0004
2119.00,-0.0003
2116.00,-0.0001
2113.00,0.0001
2110.00,0.0000
2107.00,-0.0001
2104.00,0.0001
2101.00,0.0001
2098.00,-0.0002
2095.00,-0.0006
2092.00,-0.0004
2089.00,-0.0002
2086.00,0.0000
2083.00,0.0002
2080.00,0.0003
2077.00,0.0002
2074.00,0.0003
2071.00,0.0003
2068.00,0.0001
2065.00,-0.0001
2062.00,-0.0002
2059.00,-0.0001
2056.00,-0.0000
2053.00,0.0007
2050.00,0.0009
2047.00,0.0001
2044.00,0.0000
2041.00,0.0000
2038.00,0.0004
2035.00,-0.0001
2032.00,-0.0004
2029.00,-0.0007
2026.00,-0.0005
2023.00,-0.0005
2020.00,-0.0008
2017.00,-0.0006
2014.00,-0.0006
2011.00,-0.0003
2008.00,-0.0008
2005.00,-0.0013
2002.00,-0.0008
1999.00,-0.0002
1996.00,-0.0002
1993.00,0.0001
1990.00,-0.0000
1987.00,0.0001
1984.00,0.0006
1981.00,0.0012
1978.00,-0.0003
1975.00,-0.0011
1972.00,-0.0011
1969.00,-0.0007
1966.00,-0.0006
1963.00,-0.0006
1960.00,-0.0007
1957.00,-0.0003
1954.00,0.0001
1951.00,0.0003
1948.00,0.0004
1945.00,0.0005
1942.00,0.0007
1939.00,0.0006
1936.00,0.0004
1933.00,0.0001
1930.00,-0.0002
1927.00,-0.0004
1924.00,-0.0004
1921.00,-0.0003
1918.00,-0.0002
1915.00,-0.0002
1912.00,-0.0003
1909.00,-0.0003
1906.00,-0.0004
1903.00,-0.0003
1900.00,-0.0003
1897.00,-0.0001
1894.00,0.0001
1891.00,0.0002
1888.00,0.0004
1885.00,0.0005
1882.00,0.0006
1879.00,0.0007
1876.00,0.0008
1873.00,0.0008
1870.00,0.0008
1867.00,0.0008
1864.00,0.0007
1861.00,0.0006
1858.00,0.0003
1855.00,0.0001
1852.00,0.0001
1849.00,-0.0000
1846.00,0.0000
1843.00,-0.0001
1840.00,-0.0002
1837.00,-0.0001
1834.00,-0.0000
1831.00,0.0001
1828.00,0.0003
1825.00,0.0004
1822.00,0.0005
1819.00,0.0004
1816.00,0.0004
1813.00,0.0007
1810.00,0.0010
1807.00,0.0012
1804.00,0.0013
1801.00,0.0013
1798.00,0.0012
1795.00,0.0011
1792.00,0.0009
1789.00,0.0007
1786.00,0.0006
1783.00,0.0006
1780.00,0.0006
1777.00,0.0006
1774.00,0.0007
1771.00,0.0008
1768.00,0.0008
1765.00,0.0008
1762.00,0.0009
1759.00,0.0010
1756.00,0.0012
1753.00,0.0014
1750.00,0.0015
1747.00,0.0016
1744.00,0.0017
1741.00,0.0017
1738.00,0.0016
1735.00,0.0016
1732.00,0.0014
1729.00,0.0014
1726.00,0.0013
1723.00,0.0013
1720.00,0.0013
1717.00,0.0012
1714.00,0.0011
1711.00,0.0011
1708.00,0.0011
1705.00,0.0011
1702.00,0.0012
1699.00,0.0009
1696.00,0.0009
1693.00,0.0009
1690.00,0.0010
1687.00,0.0011
1684.00,0.0012
1681.00,0.0014
1678.00,0.0017
1675.00,0.0019
1672.00,0.0021
1669.00,0.0024
1666.00,0.0024
1663.00,0.0025
1660.00,0.0023
1657.00,0.0022
1654.00,0.0020
1651.00,0.0017
1648.00,0.0016
1645.00,0.0013
1642.00,0.0013
1639.00,0.0012
1636.00,0.0011
1633.00,0.0011
1630.00,0.0012
1627.00,0.0012
1624.00,0.0012
1621.00,0.0013
1618.00,0.0014
1615.00,0.0016
1612.00,0.0021
1609.00,0.0034
1606.00,0.0061
1603.00,0.0097
1600.00,0.0107
1597.00,0.0077
1594.00,0.0049
1591.00,0.0035
1588.00,0.0031
1585.00,0.0041
1582.00,0.0044
1579.00,0.0030
1576.00,0.0018
1573.00,0.0014
1570.00,0.0012
1567.00,0.0011
1564.00,0.0011
1561.00,0.0011
1558.00,0.0011
1555.00,0.0012
1552.00,0.0013
1549.00,0.0015
1546.00,0.0017
1543.00,0.0018
1540.00,0.0017
1537.00,0.0016
1534.00,0.0015
1531.00,0.0013
1528.00,0.0012
1525.00,0.0011
1522.00,0.0012
1519.00,0.0012
1516.00,0.0013
1513.00,0.0014
1510.00,0.0015
1507.00,0.0018
1504.00,0.0024
1501.00,0.0039
1498.00,0.0084
1495.00,0.0205
1492.00,0.0283
1489.00,0.0176
1486.00,0.0089
1483.00,0.0055
1480.00,0.0038
1477.00,0.0033
1474.00,0.0030
1471.00,0.0030
1468.00,0.0033
1465.00,0.0037
1462.00,0.0044
1459.00,0.0064
1456.00,0.0152
1453.00,0.0263
1450.00,0.0271
1447.00,0.0204
1444.00,0.0160
1441.00,0.0125
1438.00,0.0100
1435.00,0.0067
1432.00,0.0050
1429.00,0.0038
1426.00,0.0032
1423.00,0.0028
1420.00,0.0027
1417.00,0.0025
1414.00,0.0024
1411.00,0.0023
1408.00,0.0023
1405.00,0.0024
1402.00,0.0024
1399.00,0.0024
1396.00,0.0026
1393.00,0.0030
1390.00,0.0035
1387.00,0.0041
1384.00,0.0048
1381.00,0.0054
1378.00,0.0060
1375.00,0.0065
1372.00,0.0066
1369.00,0.0065
1366.00,0.0063
1363.00,0.0061
1360.00,0.0058
1357.00,0.0056
1354.00,0.0053
1351.00,0.0052
1348.00,0.0052
1345.00,0.0050
1342.00,0.0048
1339.00,0.0046
1336.00,0.0046
1333.00,0.0050
1330.00,0.0054
1327.00,0.0055
1324.00,0.0053
1321.00,0.0051
1318.00,0.0050
1315.00,0.0053
1312.00,0.0054
1309.00,0.0053
1306.00,0.0051
1303.00,0.0049
1300.00,0.0046
1297.00,0.0045
1294.00,0.0045
1291.00,0.0044
1288.00,0.0042
1285.00,0.0040
1282.00,0.0040
1279.00,0.0038
1276.00,0.0036
1273.00,0.0034
1270.00,0.0031
1267.00,0.0029
1264.00,0.0029
1261.00,0.0029
1258.00,0.0028
1255.00,0.0029
1252.00,0.0029
1249.00,0.0030
1246.00,0.0029
1243.00,0.0029
1240.00,0.0029
1237.00,0.0029
1234.00,0.0028
1231.00,0.0028
1228.00,0.0029
1225.00,0.0029
1222.00,0.0029
1219.00,0.0029
1216.00,0.0030
1213.00,0.0032
1210.00,0.0033
1207.00,0.0035
1204.00,0.0039
1201.00,0.0043
1198.00,0.0046
1195.00,0.0047
1192.00,0.0048
1189.00,0.0049
1186.00,0.0055
1183.00,0.0063
1180.00,0.0065
1177.00,0.0053
1174.00,0.0043
1171.00,0.0040
1168.00,0.0039
1165.00,0.0041
1162.00,0.0046
1159.00,0.0056
1156.00,0.0068
1153.00,0.0068
1150.00,0.0053
1147.00,0.0041
1144.00,0.0035
1141.00,0.0032
1138.00,0.0031
1135.00,0.0031
1132.00,0.0031
1129.00,0.0032
1126.00,0.0031
1123.00,0.0031
1120.00,0.0033
1117.00,0.0036
1114.00,0.0039
1111.00,0.0040
1108.00,0.0039
1105.00,0.0040
1102.00,0.0041
1099.00,0.0042
1096.00,0.0043
1093.00,0.0045
1090.00,0.0048
1087.00,0.0050
1084.00,0.0056
1081.00,0.0063
1078.00,0.0070
1075.00,0.0079
1072.00,0.0090
1069.00,0.0096
1066.00,0.0092
1063.00,0.0080
1060.00,0.0071
1057.00,0.0064
1054.00,0.0058
1051.00,0.0052
1048.00,0.0049
1045.00,0.0048
1042.00,0.0047
1039.00,0.0052
1036.00,0.0070
1033.00,0.0109
1030.00,0.0150
1027.00,0.0160
1024.00,0.0131
1021.00,0.0104
1018.00,0.0086
1015.00,0.0075
1012.00,0.0067
1009.00,0.0064
1006.00,0.0066
1003.00,0.0070
1000.00,0.0062
997.00,0.0052
994.00,0.0050
991.00,0.0051
988.00,0.0053
985.00,0.0059
982.00,0.0065
979.00,0.0065
976.00,0.0062
973.00,0.0059
970.00,0.0062
967.00,0.0070
964.00,0.0073
961.00,0.0069
958.00,0.0063
955.00,0.0059
952.00,0.0059
949.00,0.0062
946.00,0.0063
943.00,0.0061
940.00,0.0057
937.00,0.0052
934.00,0.0047
931.00,0.0042
928.00,0.0040
925.00,0.0042
922.00,0.0044
919.00,0.0049
916.00,0.0060
913.00,0.0078
910.00,0.0101
907.00,0.0115
904.00,0.0108
901.00,0.0086
898.00,0.0062
895.00,0.0047
892.00,0.0040
889.00,0.0036
886.00,0.0034
883.00,0.0032
880.00,0.0030
877.00,0.0030
874.00,0.0028
871.00,0.0027
868.00,0.0028
865.00,0.0028
862.00,0.0028
859.00,0.0027
856.00,0.0027
853.00,0.0031
850.00,0.0039
847.00,0.0048
844.00,0.0058
841.00,0.0059
838.00,0.0053
835.00,0.0042
832.00,0.0032
829.00,0.0028
826.00,0.0026
823.00,0.0026
820.00,0.0028
817.00,0.0030
814.00,0.0029
811.00,0.0028
808.00,0.0028
805.00,0.0029
802.00,0.0031
799.00,0.0034
796.00,0.0040
793.00,0.0047
790.00,0.0056
787.00,0.0068
784.00,0.0082
781.00,0.0101
778.00,0.0127
775.00,0.0165
772.00,0.0214
769.00,0.0273
766.00,0.0331
763.00,0.0387
760.00,0.0446
757.00,0.0492
754.00,0.0503
751.00,0.0499
748.00,0.0496
745.00,0.0458
742.00,0.0365
739.00,0.0270
736.00,0.0193
733.00,0.0128
730.00,0.0086
727.00,0.0067
724.00,0.0060
721.00,0.0060
718.00,0.0065
715.00,0.0078
712.00,0.0117
709.00,0.0215
706.00,0.0410
703.00,0.0715
700.00,0.1088
697.00,0.1441
694.00,0.1526
691.00,0.1150
688.00,0.0752
685.00,0.0529
682.00,0.0406
679.00,0.0327
676.00,0.0277
673.00,0.0245
670.00,0.0225
667.00,0.0198
664.00,0.0177
661.00,0.0157
658.00,0.0137
655.00,0.0120
652.00,0.0107
649.00,0.0097
646.00,0.0088
643.00,0.0084
640.00,0.0082
637.00,0.0087
634.00,0.0094
631.00,0.0101
628.00,0.0105
625.00,0.0110
622.00,0.0116
619.00,0.0114
616.00,0.0104
613.00,0.0099
610.00,0.0093
607.00,0.0090
604.00,0.0091
601.00,0.0095
598.00,0.0096
595.00,0.0099
592.00,0.0104
589.00,0.0111
586.00,0.0116
583.00,0.0122
580.00,0.0136
577.00,0.0156
574.00,0.0177
571.00,0.0197
568.00,0.0218
565.00,0.0242
562.00,0.0264
559.00,0.0285
556.00,0.0310
553.00,0.0336
550.00,0.0366
547.00,0.0406
544.00,0.0460
541.00,0.0516
538.00,0.0542
535.00,0.0515
532.00,0.0447
529.00,0.0371
526.00,0.0304
523.00,0.0251
520.00,0.0216
517.00,0.0193
514.00,0.0176
511.00,0.0163
508.00,0.0151
505.00,0.0140
502.00,0.0126
499.00,0.0119
496.00,0.0112
493.00,0.0108
490.00,0.0102
487.00,0.0099
484.00,0.0093
481.00,0.0086
478.00,0.0083
475.00,0.0081
472.00,0.0085
469.00,0.0082
466.00,0.0085
463.00,0.0078
460.00,0.0074
457.00,0.0074
454.00,0.0074
451.00,0.0071
448.00,0.0071
445.00,0.0079
442.00,0.0081
439.00,0.0077
436.00,0.0070
433.00,0.0073
430.00,0.0077
427.00,0.0069
424.00,0.0070
421.00,0.0076
418.00,0.0059
415.00,0.0052
412.00,0.0082
409.00,0.0076
406.00,0.0073
403.00,0.0065
400.00,0.0076