File: FTIR/Olivia/2025_08_01_Polystyrene_Std_scan3.csv
Created as New Dataset,Sample 1011 By YargerLab Date Friday, August 01 2025
cm-1,A
4000.00,0.0005
3997.00,0.0005
3994.00,0.0005
3991.00,0.0005
3988.00,0.0005
3985.00,0.0005
3982.00,0.0005
3979.00,0.0005
3976.00,0.0005
3973.00,0.0005
3970.00,0.0005
3967.00,0.0005
3964.00,0.0005
3961.00,0.0005
3958.00,0.0006
3955.00,0.0006
3952.00,0.0006
3949.00,0.0006
3946.00,0.0005
3943.00,0.0005
3940.00,0.0005
3937.00,0.0005
3934.00,0.0006
3931.00,0.0005
3928.00,0.0005
3925.00,0.0005
3922.00,0.0005
3919.00,0.0005
3916.00,0.0005
3913.00,0.0005
3910.00,0.0005
3907.00,0.0005
3904.00,0.0005
3901.00,0.0005
3898.00,0.0005
3895.00,0.0005
3892.00,0.0004
3889.00,0.0005
3886.00,0.0005
3883.00,0.0005
3880.00,0.0005
3877.00,0.0005
3874.00,0.0005
3871.00,0.0004
3868.00,0.0004
3865.00,0.0004
3862.00,0.0005
3859.00,0.0005
3856.00,0.0004
3853.00,0.0004
3850.00,0.0003
3847.00,0.0004
3844.00,0.0005
3841.00,0.0004
3838.00,0.0004
3835.00,0.0005
3832.00,0.0004
3829.00,0.0005
3826.00,0.0005
3823.00,0.0005
3820.00,0.0004
3817.00,0.0003
3814.00,0.0005
3811.00,0.0005
3808.00,0.0005
3805.00,0.0006
3802.00,0.0005
3799.00,0.0005
3796.00,0.0005
3793.00,0.0006
3790.00,0.0006
3787.00,0.0006
3784.00,0.0006
3781.00,0.0005
3778.00,0.0006
3775.00,0.0006
3772.00,0.0006
3769.00,0.0005
3766.00,0.0005
3763.00,0.0006
3760.00,0.0005
3757.00,0.0005
3754.00,0.0004
3751.00,0.0005
3748.00,0.0004
3745.00,0.0004
3742.00,0.0005
3739.00,0.0004
3736.00,0.0004
3733.00,0.0002
3730.00,0.0004
3727.00,0.0004
3724.00,0.0005
3721.00,0.0005
3718.00,0.0004
3715.00,0.0004
3712.00,0.0004
3709.00,0.0004
3706.00,0.0004
3703.00,0.0004
3700.00,0.0005
3697.00,0.0005
3694.00,0.0004
3691.00,0.0004
3688.00,0.0004
3685.00,0.0004
3682.00,0.0005
3679.00,0.0005
3676.00,0.0004
3673.00,0.0004
3670.00,0.0004
3667.00,0.0004
3664.00,0.0005
3661.00,0.0005
3658.00,0.0004
3655.00,0.0005
3652.00,0.0004
3649.00,0.0004
3646.00,0.0004
3643.00,0.0005
3640.00,0.0005
3637.00,0.0005
3634.00,0.0004
3631.00,0.0004
3628.00,0.0004
3625.00,0.0004
3622.00,0.0004
3619.00,0.0004
3616.00,0.0004
3613.00,0.0004
3610.00,0.0004
3607.00,0.0005
3604.00,0.0004
3601.00,0.0005
3598.00,0.0005
3595.00,0.0005
3592.00,0.0005
3589.00,0.0005
3586.00,0.0005
3583.00,0.0005
3580.00,0.0006
3577.00,0.0005
3574.00,0.0005
3571.00,0.0006
3568.00,0.0006
3565.00,0.0005
3562.00,0.0006
3559.00,0.0006
3556.00,0.0007
3553.00,0.0007
3550.00,0.0006
3547.00,0.0006
3544.00,0.0006
3541.00,0.0007
3538.00,0.0007
3535.00,0.0007
3532.00,0.0007
3529.00,0.0007
3526.00,0.0007
3523.00,0.0008
3520.00,0.0008
3517.00,0.0008
3514.00,0.0008
3511.00,0.0008
3508.00,0.0008
3505.00,0.0008
3502.00,0.0009
3499.00,0.0009
3496.00,0.0009
3493.00,0.0009
3490.00,0.0009
3487.00,0.0009
3484.00,0.0009
3481.00,0.0009
3478.00,0.0009
3475.00,0.0009
3472.00,0.0009
3469.00,0.0010
3466.00,0.0010
3463.00,0.0010
3460.00,0.0010
3457.00,0.0009
3454.00,0.0010
3451.00,0.0010
3448.00,0.0010
3445.00,0.0010
3442.00,0.0010
3439.00,0.0010
3436.00,0.0011
3433.00,0.0011
3430.00,0.0011
3427.00,0.0010
3424.00,0.0010
3421.00,0.0010
3418.00,0.0010
3415.00,0.0010
3412.00,0.0011
3409.00,0.0011
3406.00,0.0011
3403.00,0.0011
3400.00,0.0011
3397.00,0.0010
3394.00,0.0010
3391.00,0.0011
3388.00,0.0010
3385.00,0.0010
3382.00,0.0011
3379.00,0.0011
3376.00,0.0011
3373.00,0.0011
3370.00,0.0011
3367.00,0.0010
3364.00,0.0011
3361.00,0.0011
3358.00,0.0011
3355.00,0.0011
3352.00,0.0011
3349.00,0.0011
3346.00,0.0011
3343.00,0.0011
3340.00,0.0011
3337.00,0.0010
3334.00,0.0010
3331.00,0.0011
3328.00,0.0011
3325.00,0.0011
3322.00,0.0011
3319.00,0.0011
3316.00,0.0011
3313.00,0.0010
3310.00,0.0011
3307.00,0.0011
3304.00,0.0011
3301.00,0.0011
3298.00,0.0010
3295.00,0.0011
3292.00,0.0011
3289.00,0.0010
3286.00,0.0010
3283.00,0.0010
3280.00,0.0010
3277.00,0.0010
3274.00,0.0010
3271.00,0.0011
3268.00,0.0010
3265.00,0.0010
3262.00,0.0010
3259.00,0.0010
3256.00,0.0010
3253.00,0.0009
3250.00,0.0010
3247.00,0.0009
3244.00,0.0009
3241.00,0.0009
3238.00,0.0009
3235.00,0.0009
3232.00,0.0009
3229.00,0.0009
3226.00,0.0009
3223.00,0.0009
3220.00,0.0008
3217.00,0.0009
3214.00,0.0009
3211.00,0.0009
3208.00,0.0009
3205.00,0.0009
3202.00,0.0009
3199.00,0.0008
3196.00,0.0008
3193.00,0.0009
3190.00,0.0009
3187.00,0.0008
3184.00,0.0008
3181.00,0.0007
3178.00,0.0007
3175.00,0.0008
3172.00,0.0008
3169.00,0.0008
3166.00,0.0008
3163.00,0.0008
3160.00,0.0008
3157.00,0.0009
3154.00,0.0008
3151.00,0.0007
3148.00,0.0007
3145.00,0.0008
3142.00,0.0007
3139.00,0.0007
3136.00,0.0008
3133.00,0.0008
3130.00,0.0008
3127.00,0.0008
3124.00,0.0008
3121.00,0.0009
3118.00,0.0009
3115.00,0.0011
3112.00,0.0012
3109.00,0.0016
3106.00,0.0020
3103.00,0.0021
3100.00,0.0020
3097.00,0.0019
3094.00,0.0020
3091.00,0.0025
3088.00,0.0035
3085.00,0.0047
3082.00,0.0053
3079.00,0.0048
3076.00,0.0041
3073.00,0.0038
3070.00,0.0041
3067.00,0.0049
3064.00,0.0060
3061.00,0.0070
3058.00,0.0071
3055.00,0.0061
3052.00,0.0049
3049.00,0.0040
3046.00,0.0036
3043.00,0.0037
3040.00,0.0042
3037.00,0.0052
3034.00,0.0069
3031.00,0.0096
3028.00,0.0125
3025.00,0.0140
3022.00,0.0125
3019.00,0.0089
3016.00,0.0059
3013.00,0.0042
3010.00,0.0034
3007.00,0.0033
3004.00,0.0037
3001.00,0.0038
2998.00,0.0034
2995.00,0.0026
2992.00,0.0021
2989.00,0.0018
2986.00,0.0018
2983.00,0.0017
2980.00,0.0017
2977.00,0.0018
2974.00,0.0019
2971.00,0.0019
2968.00,0.0021
2965.00,0.0023
2962.00,0.0025
2959.00,0.0027
2956.00,0.0032
2953.00,0.0038
2950.00,0.0045
2947.00,0.0053
2944.00,0.0064
2941.00,0.0076
2938.00,0.0090
2935.00,0.0105
2932.00,0.0123
2929.00,0.0139
2926.00,0.0151
2923.00,0.0158
2920.00,0.0160
2917.00,0.0156
2914.00,0.0148
2911.00,0.0137
2908.00,0.0125
2905.00,0.0113
2902.00,0.0099
2899.00,0.0087
2896.00,0.0076
2893.00,0.0068
2890.00,0.0062
2887.00,0.0057
2884.00,0.0052
2881.00,0.0049
2878.00,0.0045
2875.00,0.0042
2872.00,0.0039
2869.00,0.0038
2866.00,0.0039
2863.00,0.0042
2860.00,0.0047
2857.00,0.0054
2854.00,0.0061
2851.00,0.0067
2848.00,0.0069
2845.00,0.0064
2842.00,0.0054
2839.00,0.0041
2836.00,0.0030
2833.00,0.0022
2830.00,0.0018
2827.00,0.0016
2824.00,0.0015
2821.00,0.0014
2818.00,0.0014
2815.00,0.0013
2812.00,0.0013
2809.00,0.0012
2806.00,0.0012
2803.00,0.0011
2800.00,0.0011
2797.00,0.0011
2794.00,0.0010
2791.00,0.0010
2788.00,0.0010
2785.00,0.0010
2782.00,0.0010
2779.00,0.0010
2776.00,0.0010
2773.00,0.0010
2770.00,0.0009
2767.00,0.0009
2764.00,0.0009
2761.00,0.0009
2758.00,0.0008
2755.00,0.0008
2752.00,0.0008
2749.00,0.0008
2746.00,0.0009
2743.00,0.0009
2740.00,0.0008
2737.00,0.0008
2734.00,0.0009
2731.00,0.0009
2728.00,0.0008
2725.00,0.0008
2722.00,0.0009
2719.00,0.0009
2716.00,0.0009
2713.00,0.0008
2710.00,0.0008
2707.00,0.0008
2704.00,0.0008
2701.00,0.0008
2698.00,0.0008
2695.00,0.0008
2692.00,0.0009
2689.00,0.0008
2686.00,0.0008
2683.00,0.0008
2680.00,0.0008
2677.00,0.0009
2674.00,0.0009
2671.00,0.0009
2668.00,0.0009
2665.00,0.0010
2662.00,0.0011
2659.00,0.0012
2656.00,0.0013
2653.00,0.0014
2650.00,0.0013
2647.00,0.0013
2644.00,0.0013
2641.00,0.0014
2638.00,0.0013
2635.00,0.0014
2632.00,0.0014
2629.00,0.0013
2626.00,0.0013
2623.00,0.0012
2620.00,0.0012
2617.00,0.0011
2614.00,0.0011
2611.00,0.0011
2608.00,0.0011
2605.00,0.0011
2602.00,0.0011
2599.00,0.0010
2596.00,0.0010
2593.00,0.0010
2590.00,0.0010
2587.00,0.0010
2584.00,0.0010
2581.00,0.0010
2578.00,0.0009
2575.00,0.0009
2572.00,0.0008
2569.00,0.0008
2566.00,0.0008
2563.00,0.0007
2560.00,0.0007
2557.00,0.0007
2554.00,0.0008
2551.00,0.0007
2548.00,0.0007
2545.00,0.0007
2542.00,0.0007
2539.00,0.0007
2536.00,0.0007
2533.00,0.0006
2530.00,0.0006
2527.00,0.0007
2524.00,0.0006
2521.00,0.0006
2518.00,0.0006
2515.00,0.0006
2512.00,0.0006
2509.00,0.0006
2506.00,0.0006
2503.00,0.0006
2500.00,0.0006
2497.00,0.0006
2494.00,0.0006
2491.00,0.0006
2488.00,0.0005
2485.00,0.0005
2482.00,0.0005
2479.00,0.0005
2476.00,0.0005
2473.00,0.0005
2470.00,0.0004
2467.00,0.0004
2464.00,0.0005
2461.00,0.0006
2458.00,0.0006
2455.00,0.0006
2452.00,0.0005
2449.00,0.0005
2446.00,0.0006
2443.00,0.0005
2440.00,0.0004
2437.00,0.0004
2434.00,0.0004
2431.00,0.0003
2428.00,0.0003
2425.00,0.0003
2422.00,0.0003
2419.00,0.0003
2416.00,0.0003
2413.00,0.0003
2410.00,0.0002
2407.00,0.0001
2404.00,0.0001
2401.00,0.0002
2398.00,0.0001
2395.00,0.0001
2392.00,0.0001
2389.00,0.0001
2386.00,0.0000
2383.00,0.0000
2380.00,-0.0000
2377.00,0.0000
2374.00,0.0000
2371.00,-0.0000
2368.00,-0.0001
2365.00,0.0000
2362.00,0.0002
2359.00,0.0003
2356.00,0.0003
2353.00,0.0001
2350.00,0.0003
2347.00,0.0004
2344.00,0.0005
2341.00,0.0006
2338.00,0.0007
2335.00,0.0007
2332.00,0.0007
2329.00,0.0008
2326.00,0.0017
2323.00,0.0017
2320.00,0.0012
2317.00,0.0011
2314.00,0.0011
2311.00,0.0010
2308.00,0.0010
2305.00,0.0010
2302.00,0.0009
2299.00,0.0009
2296.00,0.0010
2293.00,0.0013
2290.00,0.0015
2287.00,0.0016
2284.00,0.0013
2281.00,0.0011
2278.00,0.0011
2275.00,0.0009
2272.00,0.0009
2269.00,0.0009
2266.00,0.0007
2263.00,0.0007
2260.00,0.0009
2257.00,0.0008
2254.00,0.0006
2251.00,0.0005
2248.00,0.0005
2245.00,0.0005
2242.00,0.0005
2239.00,0.0006
2236.00,0.0006
2233.00,0.0005
2230.00,0.0006
2227.00,0.0005
2224.00,0.0005
2221.00,0.0006
2218.00,0.0006
2215.00,0.0005
2212.00,0.0005
2209.00,0.0005
2206.00,0.0003
2203.00,0.0002
2200.00,0.0004
2197.00,0.0004
2194.00,0.0004
2191.00,0.0006
2188.00,0.0006
2185.00,0.0007
2182.00,-0.0000
2179.00,-0.0001
2176.00,-0.0003
2173.00,0.0002
2170.00,0.0011
2167.00,0.0015
2164.00,0.0018
2161.00,0.0003
2158.00,-0.0025
2155.00,-0.0023
2152.00,-0.0020
2149.00,-0.0016
2146.00,-0.0013
2143.00,-0.0011
2140.00,-0.0012
2137.00,-0.0014
2134.00,-0.0018
2131.00,-0.0015
2128.00,-0.0011
2125.00,-0.0007
2122.00,-0.0005
2119.00,-0.0002
2116.00,-0.0000
2113.00,0.0002
2110.00,0.0001
2107.00,0.0001
2104.00,0.0001
2101.00,0.0001
2098.00,-0.0001
2095.00,-0.0005
2092.00,-0.0003
2089.00,0.0001
2086.00,0.0001
2083.00,0.0003
2080.00,0.0004
2077.00,0.0003
2074.00,0.0002
2071.00,0.0000
2068.00,0.0001
2065.00,0.0000
2062.00,0.0001
2059.00,0.0002
2056.00,0.0002
2053.00,0.0008
2050.00,0.0011
2047.00,0.0003
2044.00,-0.0001
2041.00,0.0001
2038.00,0.0003
2035.00,0.0001
2032.00,-0.0001
2029.00,-0.0002
2026.00,-0.0005
2023.00,-0.0008
2020.00,-0.0007
2017.00,-0.0008
2014.00,-0.0006
2011.00,-0.0005
2008.00,-0.0009
2005.00,-0.0012
2002.00,-0.0006
1999.00,-0.0003
1996.00,-0.0003
1993.00,-0.0002
1990.00,0.0003
1987.00,0.0007
1984.00,0.0008
1981.00,0.0015
1978.00,0.0002
1975.00,-0.0007
1972.00,-0.0007
1969.00,-0.0006
1966.00,-0.0002
1963.00,0.0002
1960.00,-0.0001
1957.00,0.0001
1954.00,0.0006
1951.00,0.0008
1948.00,0.0009
1945.00,0.0012
1942.00,0.0012
1939.00,0.0011
1936.00,0.0007
1933.00,0.0003
1930.00,0.0003
1927.00,0.0001
1924.00,-0.0000
1921.00,-0.0002
1918.00,-0.0000
1915.00,-0.0000
1912.00,-0.0001
1909.00,-0.0002
1906.00,-0.0001
1903.00,-0.0001
1900.00,0.0001
1897.00,0.0003
1894.00,0.0004
1891.00,0.0006
1888.00,0.0009
1885.00,0.0011
1882.00,0.0011
1879.00,0.0012
1876.00,0.0014
1873.00,0.0014
1870.00,0.0015
1867.00,0.0013
1864.00,0.0011
1861.00,0.0009
1858.00,0.0007
1855.00,0.0004
1852.00,0.0003
1849.00,0.0002
1846.00,0.0001
1843.00,0.0001
1840.00,0.0001
1837.00,0.0001
1834.00,0.0001
1831.00,0.0002
1828.00,0.0003
1825.00,0.0006
1822.00,0.0007
1819.00,0.0008
1816.00,0.0008
1813.00,0.0012
1810.00,0.0015
1807.00,0.0017
1804.00,0.0019
1801.00,0.0019
1798.00,0.0018
1795.00,0.0015
1792.00,0.0013
1789.00,0.0010
1786.00,0.0009
1783.00,0.0008
1780.00,0.0007
1777.00,0.0007
1774.00,0.0008
1771.00,0.0009
1768.00,0.0009
1765.00,0.0009
1762.00,0.0011
1759.00,0.0012
1756.00,0.0014
1753.00,0.0017
1750.00,0.0018
1747.00,0.0020
1744.00,0.0021
1741.00,0.0020
1738.00,0.0019
1735.00,0.0019
1732.00,0.0016
1729.00,0.0015
1726.00,0.0014
1723.00,0.0014
1720.00,0.0014
1717.00,0.0013
1714.00,0.0012
1711.00,0.0012
1708.00,0.0013
1705.00,0.0012
1702.00,0.0013
1699.00,0.0013
1696.00,0.0013
1693.00,0.0014
1690.00,0.0016
1687.00,0.0017
1684.00,0.0018
1681.00,0.0019
1678.00,0.0021
1675.00,0.0022
1672.00,0.0022
1669.00,0.0022
1666.00,0.0022
1663.00,0.0022
1660.00,0.0021
1657.00,0.0020
1654.00,0.0020
1651.00,0.0018
1648.00,0.0017
1645.00,0.0015
1642.00,0.0015
1639.00,0.0014
1636.00,0.0014
1633.00,0.0014
1630.00,0.0014
1627.00,0.0014
1624.00,0.0015
1621.00,0.0017
1618.00,0.0019
1615.00,0.0021
1612.00,0.0028
1609.00,0.0045
1606.00,0.0082
1603.00,0.0131
1600.00,0.0141
1597.00,0.0101
1594.00,0.0064
1591.00,0.0045
1588.00,0.0041
1585.00,0.0053
1582.00,0.0057
1579.00,0.0038
1576.00,0.0023
1573.00,0.0017
1570.00,0.0014
1567.00,0.0012
1564.00,0.0012
1561.00,0.0012
1558.00,0.0012
1555.00,0.0014
1552.00,0.0017
1549.00,0.0019
1546.00,0.0020
1543.00,0.0021
1540.00,0.0020
1537.00,0.0019
1534.00,0.0018
1531.00,0.0016
1528.00,0.0014
1525.00,0.0013
1522.00,0.0013
1519.00,0.0014
1516.00,0.0015
1513.00,0.0017
1510.00,0.0019
1507.00,0.0022
1504.00,0.0030
1501.00,0.0049
1498.00,0.0109
1495.00,0.0277
1492.00,0.0376
1489.00,0.0229
1486.00,0.0115
1483.00,0.0070
1480.00,0.0047
1477.00,0.0039
1474.00,0.0035
1471.00,0.0034
1468.00,0.0037
1465.00,0.0042
1462.00,0.0052
1459.00,0.0079
1456.00,0.0204
1453.00,0.0352
1450.00,0.0357
1447.00,0.0269
1444.00,0.0210
1441.00,0.0163
1438.00,0.0128
1435.00,0.0088
1432.00,0.0066
1429.00,0.0049
1426.00,0.0040
1423.00,0.0036
1420.00,0.0033
1417.00,0.0030
1414.00,0.0029
1411.00,0.0028
1408.00,0.0027
1405.00,0.0028
1402.00,0.0028
1399.00,0.0029
1396.00,0.0031
1393.00,0.0035
1390.00,0.0041
1387.00,0.0050
1384.00,0.0058
1381.00,0.0065
1378.00,0.0072
1375.00,0.0079
1372.00,0.0081
1369.00,0.0081
1366.00,0.0079
1363.00,0.0078
1360.00,0.0073
1357.00,0.0070
1354.00,0.0068
1351.00,0.0067
1348.00,0.0067
1345.00,0.0064
1342.00,0.0061
1339.00,0.0059
1336.00,0.0059
1333.00,0.0063
1330.00,0.0069
1327.00,0.0070
1324.00,0.0067
1321.00,0.0064
1318.00,0.0065
1315.00,0.0066
1312.00,0.0068
1309.00,0.0066
1306.00,0.0063
1303.00,0.0059
1300.00,0.0056
1297.00,0.0054
1294.00,0.0054
1291.00,0.0053
1288.00,0.0051
1285.00,0.0050
1282.00,0.0049
1279.00,0.0047
1276.00,0.0045
1273.00,0.0041
1270.00,0.0038
1267.00,0.0036
1264.00,0.0034
1261.00,0.0034
1258.00,0.0034
1255.00,0.0033
1252.00,0.0034
1249.00,0.0035
1246.00,0.0035
1243.00,0.0035
1240.00,0.0035
1237.00,0.0035
1234.00,0.0035
1231.00,0.0034
1228.00,0.0035
1225.00,0.0035
1222.00,0.0035
1219.00,0.0035
1216.00,0.0035
1213.00,0.0037
1210.00,0.0039
1207.00,0.0042
1204.00,0.0047
1201.00,0.0052
1198.00,0.0056
1195.00,0.0057
1192.00,0.0058
1189.00,0.0060
1186.00,0.0066
1183.00,0.0078
1180.00,0.0080
1177.00,0.0065
1174.00,0.0052
1171.00,0.0046
1168.00,0.0045
1165.00,0.0046
1162.00,0.0051
1159.00,0.0063
1156.00,0.0080
1153.00,0.0081
1150.00,0.0062
1147.00,0.0046
1144.00,0.0039
1141.00,0.0034
1138.00,0.0031
1135.00,0.0030
1132.00,0.0030
1129.00,0.0030
1126.00,0.0031
1123.00,0.0033
1120.00,0.0037
1117.00,0.0042
1114.00,0.0046
1111.00,0.0046
1108.00,0.0046
1105.00,0.0047
1102.00,0.0048
1099.00,0.0049
1096.00,0.0052
1093.00,0.0055
1090.00,0.0058
1087.00,0.0062
1084.00,0.0069
1081.00,0.0078
1078.00,0.0088
1075.00,0.0100
1072.00,0.0116
1069.00,0.0124
1066.00,0.0119
1063.00,0.0105
1060.00,0.0092
1057.00,0.0083
1054.00,0.0077
1051.00,0.0071
1048.00,0.0067
1045.00,0.0065
1042.00,0.0064
1039.00,0.0071
1036.00,0.0095
1033.00,0.0146
1030.00,0.0201
1027.00,0.0214
1024.00,0.0176
1021.00,0.0140
1018.00,0.0117
1015.00,0.0101
1012.00,0.0091
1009.00,0.0087
1006.00,0.0090
1003.00,0.0095
1000.00,0.0084
997.00,0.0072
994.00,0.0068
991.00,0.0069
988.00,0.0072
985.00,0.0078
982.00,0.0083
979.00,0.0085
976.00,0.0081
973.00,0.0077
970.00,0.0081
967.00,0.0090
964.00,0.0094
961.00,0.0087
958.00,0.0074
955.00,0.0067
952.00,0.0065
949.00,0.0066
946.00,0.0070
943.00,0.0071
940.00,0.0069
937.00,0.0063
934.00,0.0056
931.00,0.0051
928.00,0.0049
925.00,0.0050
922.00,0.0055
919.00,0.0061
916.00,0.0074
913.00,0.0098
910.00,0.0127
907.00,0.0146
904.00,0.0139
901.00,0.0110
898.00,0.0079
895.00,0.0061
892.00,0.0052
889.00,0.0046
886.00,0.0043
883.00,0.0040
880.00,0.0038
877.00,0.0037
874.00,0.0036
871.00,0.0034
868.00,0.0033
865.00,0.0033
862.00,0.0033
859.00,0.0034
856.00,0.0036
853.00,0.0040
850.00,0.0049
847.00,0.0061
844.00,0.0072
841.00,0.0075
838.00,0.0068
835.00,0.0052
832.00,0.0040
829.00,0.0035
826.00,0.0033
823.00,0.0032
820.00,0.0033
817.00,0.0034
814.00,0.0035
811.00,0.0035
808.00,0.0036
805.00,0.0038
802.00,0.0040
799.00,0.0043
796.00,0.0050
793.00,0.0060
790.00,0.0071
787.00,0.0086
784.00,0.0103
781.00,0.0126
778.00,0.0159
775.00,0.0207
772.00,0.0269
769.00,0.0344
766.00,0.0419
763.00,0.0493
760.00,0.0571
757.00,0.0632
754.00,0.0649
751.00,0.0641
748.00,0.0635
745.00,0.0582
742.00,0.0462
739.00,0.0341
736.00,0.0246
733.00,0.0165
730.00,0.0110
727.00,0.0087
724.00,0.0079
721.00,0.0078
718.00,0.0083
715.00,0.0099
712.00,0.0147
709.00,0.0267
706.00,0.0512
703.00,0.0901
700.00,0.1390
697.00,0.1864
694.00,0.1972
691.00,0.1456
688.00,0.0932
685.00,0.0650
682.00,0.0496
679.00,0.0399
676.00,0.0339
673.00,0.0299
670.00,0.0274
667.00,0.0244
664.00,0.0218
661.00,0.0192
658.00,0.0168
655.00,0.0148
652.00,0.0132
649.00,0.0119
646.00,0.0108
643.00,0.0103
640.00,0.0103
637.00,0.0109
634.00,0.0118
631.00,0.0125
628.00,0.0131
625.00,0.0138
622.00,0.0144
619.00,0.0143
616.00,0.0131
613.00,0.0123
610.00,0.0117
607.00,0.0114
604.00,0.0116
601.00,0.0119
598.00,0.0120
595.00,0.0124
592.00,0.0129
589.00,0.0138
586.00,0.0146
583.00,0.0155
580.00,0.0172
577.00,0.0192
574.00,0.0218
571.00,0.0248
568.00,0.0275
565.00,0.0301
562.00,0.0329
559.00,0.0355
556.00,0.0384
553.00,0.0417
550.00,0.0455
547.00,0.0507
544.00,0.0578
541.00,0.0645
538.00,0.0678
535.00,0.0643
532.00,0.0555
529.00,0.0454
526.00,0.0371
523.00,0.0304
520.00,0.0264
517.00,0.0244
514.00,0.0222
511.00,0.0198
508.00,0.0181
505.00,0.0167
502.00,0.0153
499.00,0.0141
496.00,0.0130
493.00,0.0123
490.00,0.0118
487.00,0.0114
484.00,0.0113
481.00,0.0116
478.00,0.0104
475.00,0.0101
472.00,0.0100
469.00,0.0101
466.00,0.0098
463.00,0.0095
460.00,0.0091
457.00,0.0089
454.00,0.0093
451.00,0.0087
448.00,0.0084
445.00,0.0088
442.00,0.0087
439.00,0.0084
436.00,0.0088
433.00,0.0086
430.00,0.0081
427.00,0.0075
424.00,0.0078
421.00,0.0079
418.00,0.0081
415.00,0.0075
412.00,0.0068
409.00,0.0098
406.00,0.0081
403.00,0.0081
400.00,0.0065