File: FTIR/Olivia/2025_08_13_Polystyrene_Standard_scan2.csv
Created as New Dataset,Sample 054 By YargerLab Date Wednesday, August 13 2025
cm-1,A
4000.00,0.0013
3997.00,0.0013
3994.00,0.0012
3991.00,0.0012
3988.00,0.0012
3985.00,0.0012
3982.00,0.0012
3979.00,0.0012
3976.00,0.0011
3973.00,0.0012
3970.00,0.0012
3967.00,0.0011
3964.00,0.0011
3961.00,0.0011
3958.00,0.0012
3955.00,0.0011
3952.00,0.0011
3949.00,0.0011
3946.00,0.0011
3943.00,0.0011
3940.00,0.0011
3937.00,0.0011
3934.00,0.0011
3931.00,0.0012
3928.00,0.0012
3925.00,0.0012
3922.00,0.0011
3919.00,0.0011
3916.00,0.0011
3913.00,0.0011
3910.00,0.0011
3907.00,0.0011
3904.00,0.0009
3901.00,0.0009
3898.00,0.0010
3895.00,0.0011
3892.00,0.0010
3889.00,0.0010
3886.00,0.0010
3883.00,0.0009
3880.00,0.0010
3877.00,0.0010
3874.00,0.0010
3871.00,0.0009
3868.00,0.0009
3865.00,0.0010
3862.00,0.0010
3859.00,0.0010
3856.00,0.0008
3853.00,0.0009
3850.00,0.0009
3847.00,0.0010
3844.00,0.0010
3841.00,0.0009
3838.00,0.0009
3835.00,0.0009
3832.00,0.0010
3829.00,0.0011
3826.00,0.0011
3823.00,0.0010
3820.00,0.0009
3817.00,0.0009
3814.00,0.0010
3811.00,0.0011
3808.00,0.0010
3805.00,0.0010
3802.00,0.0010
3799.00,0.0010
3796.00,0.0011
3793.00,0.0011
3790.00,0.0011
3787.00,0.0010
3784.00,0.0010
3781.00,0.0010
3778.00,0.0010
3775.00,0.0011
3772.00,0.0011
3769.00,0.0010
3766.00,0.0010
3763.00,0.0010
3760.00,0.0010
3757.00,0.0009
3754.00,0.0008
3751.00,0.0009
3748.00,0.0008
3745.00,0.0007
3742.00,0.0007
3739.00,0.0008
3736.00,0.0008
3733.00,0.0009
3730.00,0.0009
3727.00,0.0010
3724.00,0.0010
3721.00,0.0010
3718.00,0.0011
3715.00,0.0010
3712.00,0.0009
3709.00,0.0009
3706.00,0.0010
3703.00,0.0010
3700.00,0.0010
3697.00,0.0010
3694.00,0.0009
3691.00,0.0009
3688.00,0.0009
3685.00,0.0010
3682.00,0.0010
3679.00,0.0010
3676.00,0.0009
3673.00,0.0008
3670.00,0.0009
3667.00,0.0009
3664.00,0.0011
3661.00,0.0011
3658.00,0.0011
3655.00,0.0010
3652.00,0.0009
3649.00,0.0009
3646.00,0.0010
3643.00,0.0011
3640.00,0.0011
3637.00,0.0011
3634.00,0.0010
3631.00,0.0009
3628.00,0.0009
3625.00,0.0010
3622.00,0.0010
3619.00,0.0010
3616.00,0.0010
3613.00,0.0010
3610.00,0.0009
3607.00,0.0010
3604.00,0.0011
3601.00,0.0012
3598.00,0.0011
3595.00,0.0011
3592.00,0.0011
3589.00,0.0010
3586.00,0.0010
3583.00,0.0011
3580.00,0.0012
3577.00,0.0012
3574.00,0.0012
3571.00,0.0011
3568.00,0.0011
3565.00,0.0011
3562.00,0.0012
3559.00,0.0012
3556.00,0.0012
3553.00,0.0013
3550.00,0.0012
3547.00,0.0012
3544.00,0.0013
3541.00,0.0014
3538.00,0.0013
3535.00,0.0013
3532.00,0.0013
3529.00,0.0013
3526.00,0.0013
3523.00,0.0013
3520.00,0.0013
3517.00,0.0014
3514.00,0.0014
3511.00,0.0014
3508.00,0.0014
3505.00,0.0015
3502.00,0.0015
3499.00,0.0014
3496.00,0.0015
3493.00,0.0015
3490.00,0.0015
3487.00,0.0014
3484.00,0.0014
3481.00,0.0014
3478.00,0.0015
3475.00,0.0015
3472.00,0.0015
3469.00,0.0015
3466.00,0.0015
3463.00,0.0015
3460.00,0.0016
3457.00,0.0015
3454.00,0.0015
3451.00,0.0015
3448.00,0.0015
3445.00,0.0015
3442.00,0.0015
3439.00,0.0015
3436.00,0.0015
3433.00,0.0015
3430.00,0.0016
3427.00,0.0015
3424.00,0.0015
3421.00,0.0015
3418.00,0.0015
3415.00,0.0015
3412.00,0.0015
3409.00,0.0015
3406.00,0.0015
3403.00,0.0015
3400.00,0.0014
3397.00,0.0015
3394.00,0.0015
3391.00,0.0015
3388.00,0.0015
3385.00,0.0015
3382.00,0.0015
3379.00,0.0015
3376.00,0.0015
3373.00,0.0015
3370.00,0.0014
3367.00,0.0014
3364.00,0.0015
3361.00,0.0015
3358.00,0.0015
3355.00,0.0015
3352.00,0.0015
3349.00,0.0014
3346.00,0.0015
3343.00,0.0015
3340.00,0.0014
3337.00,0.0014
3334.00,0.0014
3331.00,0.0014
3328.00,0.0014
3325.00,0.0014
3322.00,0.0014
3319.00,0.0014
3316.00,0.0014
3313.00,0.0014
3310.00,0.0014
3307.00,0.0014
3304.00,0.0013
3301.00,0.0013
3298.00,0.0013
3295.00,0.0014
3292.00,0.0014
3289.00,0.0013
3286.00,0.0013
3283.00,0.0013
3280.00,0.0013
3277.00,0.0013
3274.00,0.0013
3271.00,0.0013
3268.00,0.0013
3265.00,0.0014
3262.00,0.0013
3259.00,0.0013
3256.00,0.0013
3253.00,0.0013
3250.00,0.0013
3247.00,0.0013
3244.00,0.0013
3241.00,0.0013
3238.00,0.0013
3235.00,0.0013
3232.00,0.0013
3229.00,0.0013
3226.00,0.0013
3223.00,0.0013
3220.00,0.0013
3217.00,0.0013
3214.00,0.0013
3211.00,0.0013
3208.00,0.0013
3205.00,0.0013
3202.00,0.0013
3199.00,0.0013
3196.00,0.0013
3193.00,0.0013
3190.00,0.0013
3187.00,0.0013
3184.00,0.0013
3181.00,0.0013
3178.00,0.0012
3175.00,0.0012
3172.00,0.0013
3169.00,0.0013
3166.00,0.0014
3163.00,0.0014
3160.00,0.0014
3157.00,0.0013
3154.00,0.0013
3151.00,0.0013
3148.00,0.0012
3145.00,0.0013
3142.00,0.0013
3139.00,0.0012
3136.00,0.0012
3133.00,0.0013
3130.00,0.0014
3127.00,0.0014
3124.00,0.0014
3121.00,0.0014
3118.00,0.0016
3115.00,0.0018
3112.00,0.0022
3109.00,0.0027
3106.00,0.0033
3103.00,0.0035
3100.00,0.0034
3097.00,0.0032
3094.00,0.0035
3091.00,0.0044
3088.00,0.0060
3085.00,0.0079
3082.00,0.0085
3079.00,0.0075
3076.00,0.0064
3073.00,0.0061
3070.00,0.0068
3067.00,0.0083
3064.00,0.0103
3061.00,0.0118
3058.00,0.0113
3055.00,0.0094
3052.00,0.0075
3049.00,0.0064
3046.00,0.0059
3043.00,0.0061
3040.00,0.0070
3037.00,0.0089
3034.00,0.0120
3031.00,0.0166
3028.00,0.0213
3025.00,0.0227
3022.00,0.0188
3019.00,0.0130
3016.00,0.0088
3013.00,0.0065
3010.00,0.0056
3007.00,0.0056
3004.00,0.0062
3001.00,0.0063
2998.00,0.0054
2995.00,0.0042
2992.00,0.0035
2989.00,0.0032
2986.00,0.0031
2983.00,0.0030
2980.00,0.0031
2977.00,0.0033
2974.00,0.0034
2971.00,0.0035
2968.00,0.0038
2965.00,0.0041
2962.00,0.0045
2959.00,0.0051
2956.00,0.0059
2953.00,0.0068
2950.00,0.0079
2947.00,0.0093
2944.00,0.0111
2941.00,0.0132
2938.00,0.0157
2935.00,0.0186
2932.00,0.0216
2929.00,0.0242
2926.00,0.0261
2923.00,0.0269
2920.00,0.0268
2917.00,0.0256
2914.00,0.0239
2911.00,0.0220
2908.00,0.0199
2905.00,0.0178
2902.00,0.0157
2899.00,0.0137
2896.00,0.0120
2893.00,0.0108
2890.00,0.0099
2887.00,0.0091
2884.00,0.0084
2881.00,0.0078
2878.00,0.0073
2875.00,0.0068
2872.00,0.0065
2869.00,0.0064
2866.00,0.0067
2863.00,0.0073
2860.00,0.0084
2857.00,0.0097
2854.00,0.0108
2851.00,0.0116
2848.00,0.0115
2845.00,0.0104
2842.00,0.0085
2839.00,0.0064
2836.00,0.0049
2833.00,0.0038
2830.00,0.0033
2827.00,0.0029
2824.00,0.0028
2821.00,0.0027
2818.00,0.0026
2815.00,0.0025
2812.00,0.0024
2809.00,0.0024
2806.00,0.0024
2803.00,0.0023
2800.00,0.0023
2797.00,0.0022
2794.00,0.0021
2791.00,0.0021
2788.00,0.0021
2785.00,0.0021
2782.00,0.0020
2779.00,0.0020
2776.00,0.0019
2773.00,0.0019
2770.00,0.0019
2767.00,0.0019
2764.00,0.0018
2761.00,0.0018
2758.00,0.0017
2755.00,0.0017
2752.00,0.0017
2749.00,0.0017
2746.00,0.0017
2743.00,0.0017
2740.00,0.0017
2737.00,0.0017
2734.00,0.0017
2731.00,0.0017
2728.00,0.0017
2725.00,0.0018
2722.00,0.0018
2719.00,0.0017
2716.00,0.0017
2713.00,0.0018
2710.00,0.0017
2707.00,0.0017
2704.00,0.0017
2701.00,0.0017
2698.00,0.0018
2695.00,0.0018
2692.00,0.0018
2689.00,0.0018
2686.00,0.0017
2683.00,0.0018
2680.00,0.0018
2677.00,0.0017
2674.00,0.0017
2671.00,0.0017
2668.00,0.0017
2665.00,0.0018
2662.00,0.0018
2659.00,0.0019
2656.00,0.0019
2653.00,0.0019
2650.00,0.0019
2647.00,0.0019
2644.00,0.0019
2641.00,0.0019
2638.00,0.0019
2635.00,0.0019
2632.00,0.0019
2629.00,0.0019
2626.00,0.0018
2623.00,0.0017
2620.00,0.0017
2617.00,0.0017
2614.00,0.0017
2611.00,0.0017
2608.00,0.0018
2605.00,0.0018
2602.00,0.0017
2599.00,0.0016
2596.00,0.0016
2593.00,0.0016
2590.00,0.0015
2587.00,0.0015
2584.00,0.0015
2581.00,0.0016
2578.00,0.0015
2575.00,0.0014
2572.00,0.0015
2569.00,0.0014
2566.00,0.0014
2563.00,0.0014
2560.00,0.0014
2557.00,0.0013
2554.00,0.0013
2551.00,0.0014
2548.00,0.0014
2545.00,0.0013
2542.00,0.0013
2539.00,0.0013
2536.00,0.0013
2533.00,0.0013
2530.00,0.0013
2527.00,0.0013
2524.00,0.0013
2521.00,0.0013
2518.00,0.0013
2515.00,0.0013
2512.00,0.0012
2509.00,0.0013
2506.00,0.0013
2503.00,0.0013
2500.00,0.0013
2497.00,0.0013
2494.00,0.0012
2491.00,0.0012
2488.00,0.0012
2485.00,0.0012
2482.00,0.0012
2479.00,0.0012
2476.00,0.0011
2473.00,0.0011
2470.00,0.0011
2467.00,0.0011
2464.00,0.0011
2461.00,0.0011
2458.00,0.0012
2455.00,0.0013
2452.00,0.0012
2449.00,0.0011
2446.00,0.0011
2443.00,0.0012
2440.00,0.0011
2437.00,0.0011
2434.00,0.0010
2431.00,0.0010
2428.00,0.0010
2425.00,0.0009
2422.00,0.0009
2419.00,0.0009
2416.00,0.0010
2413.00,0.0010
2410.00,0.0009
2407.00,0.0009
2404.00,0.0008
2401.00,0.0009
2398.00,0.0009
2395.00,0.0009
2392.00,0.0009
2389.00,0.0009
2386.00,0.0008
2383.00,0.0008
2380.00,0.0009
2377.00,0.0009
2374.00,0.0010
2371.00,0.0010
2368.00,0.0010
2365.00,0.0010
2362.00,0.0011
2359.00,0.0012
2356.00,0.0013
2353.00,0.0013
2350.00,0.0013
2347.00,0.0014
2344.00,0.0014
2341.00,0.0015
2338.00,0.0016
2335.00,0.0015
2332.00,0.0015
2329.00,0.0014
2326.00,0.0018
2323.00,0.0018
2320.00,0.0017
2317.00,0.0016
2314.00,0.0016
2311.00,0.0016
2308.00,0.0015
2305.00,0.0014
2302.00,0.0013
2299.00,0.0013
2296.00,0.0013
2293.00,0.0014
2290.00,0.0015
2287.00,0.0015
2284.00,0.0013
2281.00,0.0012
2278.00,0.0012
2275.00,0.0013
2272.00,0.0012
2269.00,0.0011
2266.00,0.0011
2263.00,0.0010
2260.00,0.0011
2257.00,0.0009
2254.00,0.0009
2251.00,0.0009
2248.00,0.0008
2245.00,0.0009
2242.00,0.0008
2239.00,0.0009
2236.00,0.0009
2233.00,0.0011
2230.00,0.0009
2227.00,0.0007
2224.00,0.0008
2221.00,0.0007
2218.00,0.0009
2215.00,0.0009
2212.00,0.0007
2209.00,0.0006
2206.00,0.0006
2203.00,0.0006
2200.00,0.0005
2197.00,0.0006
2194.00,0.0008
2191.00,0.0007
2188.00,0.0007
2185.00,0.0007
2182.00,0.0007
2179.00,0.0008
2176.00,0.0005
2173.00,0.0007
2170.00,0.0010
2167.00,0.0012
2164.00,0.0013
2161.00,0.0002
2158.00,-0.0011
2155.00,-0.0006
2152.00,-0.0002
2149.00,-0.0000
2146.00,-0.0000
2143.00,-0.0001
2140.00,-0.0001
2137.00,-0.0003
2134.00,-0.0003
2131.00,-0.0002
2128.00,-0.0000
2125.00,0.0001
2122.00,0.0003
2119.00,0.0004
2116.00,0.0005
2113.00,0.0006
2110.00,0.0006
2107.00,0.0005
2104.00,0.0004
2101.00,0.0005
2098.00,0.0005
2095.00,0.0003
2092.00,0.0005
2089.00,0.0004
2086.00,0.0005
2083.00,0.0006
2080.00,0.0006
2077.00,0.0007
2074.00,0.0007
2071.00,0.0006
2068.00,0.0005
2065.00,0.0006
2062.00,0.0004
2059.00,0.0004
2056.00,0.0005
2053.00,0.0007
2050.00,0.0007
2047.00,0.0005
2044.00,0.0002
2041.00,0.0003
2038.00,0.0005
2035.00,0.0003
2032.00,-0.0000
2029.00,0.0001
2026.00,0.0001
2023.00,0.0001
2020.00,0.0000
2017.00,0.0002
2014.00,0.0005
2011.00,0.0003
2008.00,0.0001
2005.00,0.0002
2002.00,0.0001
1999.00,0.0003
1996.00,0.0004
1993.00,0.0006
1990.00,0.0005
1987.00,0.0007
1984.00,0.0008
1981.00,0.0009
1978.00,0.0002
1975.00,0.0003
1972.00,0.0005
1969.00,0.0007
1966.00,0.0010
1963.00,0.0011
1960.00,0.0015
1957.00,0.0017
1954.00,0.0022
1951.00,0.0024
1948.00,0.0027
1945.00,0.0030
1942.00,0.0032
1939.00,0.0029
1936.00,0.0022
1933.00,0.0017
1930.00,0.0014
1927.00,0.0012
1924.00,0.0011
1921.00,0.0009
1918.00,0.0007
1915.00,0.0007
1912.00,0.0006
1909.00,0.0006
1906.00,0.0008
1903.00,0.0009
1900.00,0.0010
1897.00,0.0013
1894.00,0.0015
1891.00,0.0017
1888.00,0.0020
1885.00,0.0021
1882.00,0.0024
1879.00,0.0027
1876.00,0.0028
1873.00,0.0028
1870.00,0.0028
1867.00,0.0027
1864.00,0.0024
1861.00,0.0020
1858.00,0.0016
1855.00,0.0013
1852.00,0.0011
1849.00,0.0010
1846.00,0.0009
1843.00,0.0009
1840.00,0.0009
1837.00,0.0009
1834.00,0.0010
1831.00,0.0012
1828.00,0.0014
1825.00,0.0016
1822.00,0.0019
1819.00,0.0020
1816.00,0.0023
1813.00,0.0026
1810.00,0.0030
1807.00,0.0033
1804.00,0.0034
1801.00,0.0035
1798.00,0.0032
1795.00,0.0029
1792.00,0.0025
1789.00,0.0021
1786.00,0.0019
1783.00,0.0019
1780.00,0.0020
1777.00,0.0021
1774.00,0.0021
1771.00,0.0022
1768.00,0.0022
1765.00,0.0023
1762.00,0.0025
1759.00,0.0028
1756.00,0.0032
1753.00,0.0036
1750.00,0.0042
1747.00,0.0045
1744.00,0.0047
1741.00,0.0048
1738.00,0.0048
1735.00,0.0046
1732.00,0.0044
1729.00,0.0041
1726.00,0.0038
1723.00,0.0036
1720.00,0.0033
1717.00,0.0032
1714.00,0.0030
1711.00,0.0029
1708.00,0.0028
1705.00,0.0026
1702.00,0.0025
1699.00,0.0024
1696.00,0.0024
1693.00,0.0022
1690.00,0.0021
1687.00,0.0021
1684.00,0.0022
1681.00,0.0023
1678.00,0.0024
1675.00,0.0025
1672.00,0.0026
1669.00,0.0027
1666.00,0.0027
1663.00,0.0026
1660.00,0.0025
1657.00,0.0024
1654.00,0.0023
1651.00,0.0022
1648.00,0.0021
1645.00,0.0021
1642.00,0.0021
1639.00,0.0020
1636.00,0.0020
1633.00,0.0020
1630.00,0.0021
1627.00,0.0022
1624.00,0.0023
1621.00,0.0025
1618.00,0.0027
1615.00,0.0033
1612.00,0.0042
1609.00,0.0068
1606.00,0.0124
1603.00,0.0194
1600.00,0.0203
1597.00,0.0141
1594.00,0.0089
1591.00,0.0065
1588.00,0.0061
1585.00,0.0079
1582.00,0.0081
1579.00,0.0053
1576.00,0.0036
1573.00,0.0028
1570.00,0.0024
1567.00,0.0022
1564.00,0.0021
1561.00,0.0021
1558.00,0.0021
1555.00,0.0023
1552.00,0.0026
1549.00,0.0029
1546.00,0.0031
1543.00,0.0033
1540.00,0.0033
1537.00,0.0031
1534.00,0.0028
1531.00,0.0024
1528.00,0.0023
1525.00,0.0022
1522.00,0.0022
1519.00,0.0023
1516.00,0.0024
1513.00,0.0026
1510.00,0.0029
1507.00,0.0036
1504.00,0.0048
1501.00,0.0072
1498.00,0.0163
1495.00,0.0417
1492.00,0.0499
1489.00,0.0292
1486.00,0.0154
1483.00,0.0095
1480.00,0.0066
1477.00,0.0055
1474.00,0.0051
1471.00,0.0051
1468.00,0.0053
1465.00,0.0059
1462.00,0.0073
1459.00,0.0108
1456.00,0.0318
1453.00,0.0502
1450.00,0.0473
1447.00,0.0358
1444.00,0.0279
1441.00,0.0213
1438.00,0.0164
1435.00,0.0116
1432.00,0.0085
1429.00,0.0064
1426.00,0.0054
1423.00,0.0048
1420.00,0.0045
1417.00,0.0043
1414.00,0.0042
1411.00,0.0041
1408.00,0.0040
1405.00,0.0041
1402.00,0.0041
1399.00,0.0042
1396.00,0.0045
1393.00,0.0052
1390.00,0.0060
1387.00,0.0072
1384.00,0.0083
1381.00,0.0091
1378.00,0.0100
1375.00,0.0108
1372.00,0.0112
1369.00,0.0110
1366.00,0.0107
1363.00,0.0105
1360.00,0.0101
1357.00,0.0096
1354.00,0.0093
1351.00,0.0092
1348.00,0.0091
1345.00,0.0087
1342.00,0.0082
1339.00,0.0079
1336.00,0.0081
1333.00,0.0087
1330.00,0.0093
1327.00,0.0094
1324.00,0.0090
1321.00,0.0086
1318.00,0.0087
1315.00,0.0090
1312.00,0.0091
1309.00,0.0089
1306.00,0.0084
1303.00,0.0079
1300.00,0.0075
1297.00,0.0072
1294.00,0.0071
1291.00,0.0069
1288.00,0.0066
1285.00,0.0065
1282.00,0.0065
1279.00,0.0064
1276.00,0.0060
1273.00,0.0056
1270.00,0.0052
1267.00,0.0050
1264.00,0.0049
1261.00,0.0049
1258.00,0.0049
1255.00,0.0050
1252.00,0.0051
1249.00,0.0051
1246.00,0.0051
1243.00,0.0052
1240.00,0.0051
1237.00,0.0050
1234.00,0.0049
1231.00,0.0050
1228.00,0.0051
1225.00,0.0051
1222.00,0.0051
1219.00,0.0052
1216.00,0.0052
1213.00,0.0055
1210.00,0.0058
1207.00,0.0061
1204.00,0.0067
1201.00,0.0073
1198.00,0.0078
1195.00,0.0080
1192.00,0.0082
1189.00,0.0084
1186.00,0.0093
1183.00,0.0108
1180.00,0.0109
1177.00,0.0089
1174.00,0.0072
1171.00,0.0066
1168.00,0.0065
1165.00,0.0066
1162.00,0.0071
1159.00,0.0088
1156.00,0.0109
1153.00,0.0107
1150.00,0.0082
1147.00,0.0063
1144.00,0.0054
1141.00,0.0049
1138.00,0.0046
1135.00,0.0044
1132.00,0.0043
1129.00,0.0043
1126.00,0.0044
1123.00,0.0045
1120.00,0.0049
1117.00,0.0054
1114.00,0.0058
1111.00,0.0060
1108.00,0.0059
1105.00,0.0059
1102.00,0.0059
1099.00,0.0062
1096.00,0.0065
1093.00,0.0067
1090.00,0.0071
1087.00,0.0076
1084.00,0.0085
1081.00,0.0097
1078.00,0.0108
1075.00,0.0124
1072.00,0.0143
1069.00,0.0151
1066.00,0.0144
1063.00,0.0126
1060.00,0.0109
1057.00,0.0097
1054.00,0.0089
1051.00,0.0082
1048.00,0.0078
1045.00,0.0074
1042.00,0.0074
1039.00,0.0081
1036.00,0.0111
1033.00,0.0178
1030.00,0.0246
1027.00,0.0257
1024.00,0.0207
1021.00,0.0162
1018.00,0.0135
1015.00,0.0118
1012.00,0.0106
1009.00,0.0100
1006.00,0.0104
1003.00,0.0109
1000.00,0.0094
997.00,0.0080
994.00,0.0076
991.00,0.0077
988.00,0.0082
985.00,0.0089
982.00,0.0097
979.00,0.0098
976.00,0.0093
973.00,0.0089
970.00,0.0094
967.00,0.0105
964.00,0.0108
961.00,0.0100
958.00,0.0086
955.00,0.0078
952.00,0.0076
949.00,0.0078
946.00,0.0083
943.00,0.0085
940.00,0.0082
937.00,0.0073
934.00,0.0065
931.00,0.0060
928.00,0.0058
925.00,0.0060
922.00,0.0064
919.00,0.0072
916.00,0.0089
913.00,0.0117
910.00,0.0153
907.00,0.0173
904.00,0.0161
901.00,0.0125
898.00,0.0089
895.00,0.0069
892.00,0.0059
889.00,0.0054
886.00,0.0050
883.00,0.0046
880.00,0.0046
877.00,0.0044
874.00,0.0042
871.00,0.0041
868.00,0.0040
865.00,0.0039
862.00,0.0039
859.00,0.0039
856.00,0.0041
853.00,0.0046
850.00,0.0056
847.00,0.0071
844.00,0.0083
841.00,0.0086
838.00,0.0076
835.00,0.0060
832.00,0.0046
829.00,0.0040
826.00,0.0039
823.00,0.0038
820.00,0.0038
817.00,0.0040
814.00,0.0039
811.00,0.0041
808.00,0.0042
805.00,0.0043
802.00,0.0045
799.00,0.0051
796.00,0.0057
793.00,0.0068
790.00,0.0082
787.00,0.0097
784.00,0.0117
781.00,0.0142
778.00,0.0182
775.00,0.0238
772.00,0.0309
769.00,0.0393
766.00,0.0475
763.00,0.0555
760.00,0.0634
757.00,0.0693
754.00,0.0705
751.00,0.0697
748.00,0.0688
745.00,0.0627
742.00,0.0494
739.00,0.0364
736.00,0.0260
733.00,0.0173
730.00,0.0117
727.00,0.0092
724.00,0.0083
721.00,0.0083
718.00,0.0087
715.00,0.0107
712.00,0.0159
709.00,0.0290
706.00,0.0541
703.00,0.0916
700.00,0.1368
697.00,0.1798
694.00,0.1852
691.00,0.1342
688.00,0.0860
685.00,0.0603
682.00,0.0462
679.00,0.0376
676.00,0.0323
673.00,0.0288
670.00,0.0261
667.00,0.0233
664.00,0.0208
661.00,0.0183
658.00,0.0162
655.00,0.0145
652.00,0.0130
649.00,0.0120
646.00,0.0112
643.00,0.0106
640.00,0.0104
637.00,0.0109
634.00,0.0119
631.00,0.0129
628.00,0.0131
625.00,0.0136
622.00,0.0145
619.00,0.0143
616.00,0.0127
613.00,0.0119
610.00,0.0117
607.00,0.0113
604.00,0.0111
601.00,0.0114
598.00,0.0119
595.00,0.0125
592.00,0.0132
589.00,0.0137
586.00,0.0142
583.00,0.0153
580.00,0.0171
577.00,0.0191
574.00,0.0216
571.00,0.0247
568.00,0.0277
565.00,0.0302
562.00,0.0329
559.00,0.0357
556.00,0.0387
553.00,0.0419
550.00,0.0455
547.00,0.0503
544.00,0.0567
541.00,0.0629
538.00,0.0654
535.00,0.0617
532.00,0.0523
529.00,0.0424
526.00,0.0341
523.00,0.0288
520.00,0.0250
517.00,0.0221
514.00,0.0201
511.00,0.0183
508.00,0.0166
505.00,0.0147
502.00,0.0139
499.00,0.0126
496.00,0.0121
493.00,0.0119
490.00,0.0114
487.00,0.0106
484.00,0.0102
481.00,0.0096
478.00,0.0094
475.00,0.0093
472.00,0.0089
469.00,0.0090
466.00,0.0087
463.00,0.0087
460.00,0.0079
457.00,0.0083
454.00,0.0078
451.00,0.0078
448.00,0.0083
445.00,0.0084
442.00,0.0081
439.00,0.0082
436.00,0.0083
433.00,0.0077
430.00,0.0076
427.00,0.0069
424.00,0.0081
421.00,0.0079
418.00,0.0065
415.00,0.0058
412.00,0.0076
409.00,0.0080
406.00,0.0071
403.00,0.0082
400.00,0.0075