File: FTIR/Olivia/2025_07_24_Polystyrene_Std_scan1.csv
Created as New Dataset,Sample 905 By YargerLab Date Thursday, July 24 2025
cm-1,A
4000.00,0.0003
3997.00,0.0003
3994.00,0.0002
3991.00,0.0002
3988.00,0.0002
3985.00,0.0002
3982.00,0.0002
3979.00,0.0002
3976.00,0.0002
3973.00,0.0002
3970.00,0.0001
3967.00,0.0002
3964.00,0.0002
3961.00,0.0002
3958.00,0.0002
3955.00,0.0002
3952.00,0.0002
3949.00,0.0002
3946.00,0.0002
3943.00,0.0003
3940.00,0.0002
3937.00,0.0002
3934.00,0.0003
3931.00,0.0003
3928.00,0.0003
3925.00,0.0002
3922.00,0.0002
3919.00,0.0003
3916.00,0.0003
3913.00,0.0002
3910.00,0.0002
3907.00,0.0003
3904.00,0.0004
3901.00,0.0003
3898.00,0.0003
3895.00,0.0003
3892.00,0.0003
3889.00,0.0003
3886.00,0.0003
3883.00,0.0003
3880.00,0.0003
3877.00,0.0003
3874.00,0.0003
3871.00,0.0003
3868.00,0.0003
3865.00,0.0003
3862.00,0.0003
3859.00,0.0003
3856.00,0.0005
3853.00,0.0005
3850.00,0.0004
3847.00,0.0003
3844.00,0.0004
3841.00,0.0005
3838.00,0.0005
3835.00,0.0005
3832.00,0.0004
3829.00,0.0004
3826.00,0.0004
3823.00,0.0004
3820.00,0.0005
3817.00,0.0005
3814.00,0.0004
3811.00,0.0004
3808.00,0.0004
3805.00,0.0004
3802.00,0.0005
3799.00,0.0005
3796.00,0.0004
3793.00,0.0003
3790.00,0.0003
3787.00,0.0003
3784.00,0.0003
3781.00,0.0003
3778.00,0.0003
3775.00,0.0004
3772.00,0.0004
3769.00,0.0004
3766.00,0.0004
3763.00,0.0004
3760.00,0.0004
3757.00,0.0004
3754.00,0.0006
3751.00,0.0006
3748.00,0.0006
3745.00,0.0005
3742.00,0.0005
3739.00,0.0004
3736.00,0.0005
3733.00,0.0005
3730.00,0.0004
3727.00,0.0004
3724.00,0.0004
3721.00,0.0004
3718.00,0.0003
3715.00,0.0003
3712.00,0.0004
3709.00,0.0004
3706.00,0.0003
3703.00,0.0003
3700.00,0.0003
3697.00,0.0003
3694.00,0.0003
3691.00,0.0004
3688.00,0.0004
3685.00,0.0003
3682.00,0.0002
3679.00,0.0004
3676.00,0.0005
3673.00,0.0005
3670.00,0.0005
3667.00,0.0004
3664.00,0.0003
3661.00,0.0003
3658.00,0.0004
3655.00,0.0004
3652.00,0.0005
3649.00,0.0005
3646.00,0.0005
3643.00,0.0004
3640.00,0.0003
3637.00,0.0003
3634.00,0.0003
3631.00,0.0004
3628.00,0.0004
3625.00,0.0004
3622.00,0.0004
3619.00,0.0004
3616.00,0.0004
3613.00,0.0004
3610.00,0.0003
3607.00,0.0004
3604.00,0.0004
3601.00,0.0004
3598.00,0.0004
3595.00,0.0003
3592.00,0.0003
3589.00,0.0003
3586.00,0.0003
3583.00,0.0003
3580.00,0.0003
3577.00,0.0004
3574.00,0.0004
3571.00,0.0003
3568.00,0.0004
3565.00,0.0003
3562.00,0.0003
3559.00,0.0004
3556.00,0.0004
3553.00,0.0004
3550.00,0.0005
3547.00,0.0004
3544.00,0.0005
3541.00,0.0005
3538.00,0.0005
3535.00,0.0006
3532.00,0.0006
3529.00,0.0006
3526.00,0.0006
3523.00,0.0005
3520.00,0.0006
3517.00,0.0006
3514.00,0.0006
3511.00,0.0006
3508.00,0.0007
3505.00,0.0007
3502.00,0.0007
3499.00,0.0007
3496.00,0.0007
3493.00,0.0007
3490.00,0.0007
3487.00,0.0007
3484.00,0.0007
3481.00,0.0008
3478.00,0.0009
3475.00,0.0008
3472.00,0.0008
3469.00,0.0008
3466.00,0.0008
3463.00,0.0008
3460.00,0.0008
3457.00,0.0009
3454.00,0.0008
3451.00,0.0008
3448.00,0.0009
3445.00,0.0008
3442.00,0.0009
3439.00,0.0009
3436.00,0.0009
3433.00,0.0009
3430.00,0.0009
3427.00,0.0008
3424.00,0.0009
3421.00,0.0009
3418.00,0.0008
3415.00,0.0008
3412.00,0.0008
3409.00,0.0009
3406.00,0.0009
3403.00,0.0008
3400.00,0.0008
3397.00,0.0008
3394.00,0.0008
3391.00,0.0009
3388.00,0.0008
3385.00,0.0008
3382.00,0.0009
3379.00,0.0009
3376.00,0.0009
3373.00,0.0009
3370.00,0.0009
3367.00,0.0009
3364.00,0.0009
3361.00,0.0009
3358.00,0.0009
3355.00,0.0009
3352.00,0.0009
3349.00,0.0009
3346.00,0.0009
3343.00,0.0009
3340.00,0.0009
3337.00,0.0009
3334.00,0.0009
3331.00,0.0009
3328.00,0.0009
3325.00,0.0008
3322.00,0.0008
3319.00,0.0008
3316.00,0.0009
3313.00,0.0009
3310.00,0.0009
3307.00,0.0008
3304.00,0.0008
3301.00,0.0008
3298.00,0.0008
3295.00,0.0008
3292.00,0.0008
3289.00,0.0008
3286.00,0.0009
3283.00,0.0008
3280.00,0.0009
3277.00,0.0009
3274.00,0.0008
3271.00,0.0008
3268.00,0.0008
3265.00,0.0008
3262.00,0.0008
3259.00,0.0008
3256.00,0.0008
3253.00,0.0008
3250.00,0.0008
3247.00,0.0008
3244.00,0.0008
3241.00,0.0008
3238.00,0.0008
3235.00,0.0007
3232.00,0.0007
3229.00,0.0007
3226.00,0.0007
3223.00,0.0007
3220.00,0.0007
3217.00,0.0007
3214.00,0.0007
3211.00,0.0007
3208.00,0.0007
3205.00,0.0008
3202.00,0.0008
3199.00,0.0008
3196.00,0.0008
3193.00,0.0008
3190.00,0.0008
3187.00,0.0007
3184.00,0.0007
3181.00,0.0007
3178.00,0.0007
3175.00,0.0007
3172.00,0.0007
3169.00,0.0007
3166.00,0.0007
3163.00,0.0007
3160.00,0.0007
3157.00,0.0007
3154.00,0.0007
3151.00,0.0006
3148.00,0.0007
3145.00,0.0006
3142.00,0.0006
3139.00,0.0006
3136.00,0.0006
3133.00,0.0006
3130.00,0.0006
3127.00,0.0007
3124.00,0.0007
3121.00,0.0007
3118.00,0.0008
3115.00,0.0010
3112.00,0.0012
3109.00,0.0016
3106.00,0.0019
3103.00,0.0021
3100.00,0.0020
3097.00,0.0019
3094.00,0.0021
3091.00,0.0027
3088.00,0.0038
3085.00,0.0050
3082.00,0.0055
3079.00,0.0049
3076.00,0.0042
3073.00,0.0039
3070.00,0.0043
3067.00,0.0053
3064.00,0.0065
3061.00,0.0074
3058.00,0.0073
3055.00,0.0062
3052.00,0.0050
3049.00,0.0042
3046.00,0.0038
3043.00,0.0040
3040.00,0.0046
3037.00,0.0057
3034.00,0.0077
3031.00,0.0105
3028.00,0.0135
3025.00,0.0146
3022.00,0.0126
3019.00,0.0090
3016.00,0.0061
3013.00,0.0044
3010.00,0.0037
3007.00,0.0037
3004.00,0.0041
3001.00,0.0042
2998.00,0.0037
2995.00,0.0029
2992.00,0.0024
2989.00,0.0022
2986.00,0.0022
2983.00,0.0022
2980.00,0.0023
2977.00,0.0024
2974.00,0.0026
2971.00,0.0028
2968.00,0.0030
2965.00,0.0033
2962.00,0.0037
2959.00,0.0041
2956.00,0.0046
2953.00,0.0052
2950.00,0.0060
2947.00,0.0069
2944.00,0.0081
2941.00,0.0095
2938.00,0.0112
2935.00,0.0130
2932.00,0.0149
2929.00,0.0167
2926.00,0.0180
2923.00,0.0186
2920.00,0.0186
2917.00,0.0180
2914.00,0.0169
2911.00,0.0156
2908.00,0.0143
2905.00,0.0129
2902.00,0.0115
2899.00,0.0101
2896.00,0.0090
2893.00,0.0081
2890.00,0.0074
2887.00,0.0068
2884.00,0.0063
2881.00,0.0059
2878.00,0.0055
2875.00,0.0052
2872.00,0.0050
2869.00,0.0049
2866.00,0.0050
2863.00,0.0055
2860.00,0.0061
2857.00,0.0070
2854.00,0.0078
2851.00,0.0083
2848.00,0.0082
2845.00,0.0074
2842.00,0.0061
2839.00,0.0047
2836.00,0.0035
2833.00,0.0027
2830.00,0.0022
2827.00,0.0019
2824.00,0.0018
2821.00,0.0016
2818.00,0.0016
2815.00,0.0015
2812.00,0.0015
2809.00,0.0014
2806.00,0.0013
2803.00,0.0013
2800.00,0.0012
2797.00,0.0012
2794.00,0.0011
2791.00,0.0011
2788.00,0.0011
2785.00,0.0011
2782.00,0.0010
2779.00,0.0010
2776.00,0.0010
2773.00,0.0009
2770.00,0.0009
2767.00,0.0009
2764.00,0.0009
2761.00,0.0008
2758.00,0.0009
2755.00,0.0009
2752.00,0.0008
2749.00,0.0008
2746.00,0.0008
2743.00,0.0008
2740.00,0.0008
2737.00,0.0008
2734.00,0.0009
2731.00,0.0009
2728.00,0.0009
2725.00,0.0009
2722.00,0.0008
2719.00,0.0008
2716.00,0.0009
2713.00,0.0009
2710.00,0.0008
2707.00,0.0008
2704.00,0.0008
2701.00,0.0008
2698.00,0.0008
2695.00,0.0008
2692.00,0.0008
2689.00,0.0008
2686.00,0.0008
2683.00,0.0008
2680.00,0.0008
2677.00,0.0008
2674.00,0.0008
2671.00,0.0008
2668.00,0.0008
2665.00,0.0010
2662.00,0.0011
2659.00,0.0012
2656.00,0.0012
2653.00,0.0013
2650.00,0.0013
2647.00,0.0013
2644.00,0.0013
2641.00,0.0013
2638.00,0.0013
2635.00,0.0014
2632.00,0.0014
2629.00,0.0013
2626.00,0.0012
2623.00,0.0012
2620.00,0.0012
2617.00,0.0011
2614.00,0.0011
2611.00,0.0012
2608.00,0.0012
2605.00,0.0012
2602.00,0.0011
2599.00,0.0011
2596.00,0.0010
2593.00,0.0009
2590.00,0.0009
2587.00,0.0010
2584.00,0.0010
2581.00,0.0009
2578.00,0.0009
2575.00,0.0008
2572.00,0.0008
2569.00,0.0007
2566.00,0.0007
2563.00,0.0007
2560.00,0.0007
2557.00,0.0007
2554.00,0.0008
2551.00,0.0007
2548.00,0.0006
2545.00,0.0005
2542.00,0.0006
2539.00,0.0006
2536.00,0.0006
2533.00,0.0006
2530.00,0.0006
2527.00,0.0006
2524.00,0.0006
2521.00,0.0005
2518.00,0.0006
2515.00,0.0006
2512.00,0.0006
2509.00,0.0005
2506.00,0.0005
2503.00,0.0006
2500.00,0.0005
2497.00,0.0005
2494.00,0.0005
2491.00,0.0005
2488.00,0.0004
2485.00,0.0004
2482.00,0.0005
2479.00,0.0005
2476.00,0.0004
2473.00,0.0004
2470.00,0.0003
2467.00,0.0003
2464.00,0.0004
2461.00,0.0005
2458.00,0.0006
2455.00,0.0005
2452.00,0.0005
2449.00,0.0005
2446.00,0.0004
2443.00,0.0003
2440.00,0.0004
2437.00,0.0004
2434.00,0.0003
2431.00,0.0002
2428.00,0.0002
2425.00,0.0002
2422.00,0.0002
2419.00,0.0001
2416.00,0.0001
2413.00,0.0002
2410.00,0.0001
2407.00,0.0001
2404.00,0.0000
2401.00,0.0000
2398.00,0.0000
2395.00,0.0000
2392.00,0.0000
2389.00,-0.0000
2386.00,-0.0001
2383.00,-0.0001
2380.00,-0.0001
2377.00,-0.0001
2374.00,-0.0000
2371.00,-0.0001
2368.00,-0.0001
2365.00,-0.0000
2362.00,0.0002
2359.00,0.0002
2356.00,0.0001
2353.00,0.0001
2350.00,0.0003
2347.00,0.0004
2344.00,0.0007
2341.00,0.0006
2338.00,0.0007
2335.00,0.0006
2332.00,0.0005
2329.00,0.0007
2326.00,0.0016
2323.00,0.0016
2320.00,0.0012
2317.00,0.0010
2314.00,0.0010
2311.00,0.0009
2308.00,0.0009
2305.00,0.0009
2302.00,0.0009
2299.00,0.0010
2296.00,0.0011
2293.00,0.0012
2290.00,0.0014
2287.00,0.0014
2284.00,0.0013
2281.00,0.0011
2278.00,0.0009
2275.00,0.0009
2272.00,0.0008
2269.00,0.0008
2266.00,0.0007
2263.00,0.0007
2260.00,0.0008
2257.00,0.0007
2254.00,0.0005
2251.00,0.0006
2248.00,0.0006
2245.00,0.0007
2242.00,0.0007
2239.00,0.0008
2236.00,0.0007
2233.00,0.0005
2230.00,0.0004
2227.00,0.0004
2224.00,0.0004
2221.00,0.0005
2218.00,0.0005
2215.00,0.0003
2212.00,0.0005
2209.00,0.0007
2206.00,0.0004
2203.00,0.0005
2200.00,0.0004
2197.00,0.0005
2194.00,0.0005
2191.00,0.0006
2188.00,0.0010
2185.00,0.0009
2182.00,0.0002
2179.00,0.0002
2176.00,-0.0003
2173.00,0.0000
2170.00,0.0007
2167.00,0.0011
2164.00,0.0015
2161.00,0.0001
2158.00,-0.0032
2155.00,-0.0023
2152.00,-0.0016
2149.00,-0.0014
2146.00,-0.0015
2143.00,-0.0015
2140.00,-0.0014
2137.00,-0.0017
2134.00,-0.0020
2131.00,-0.0017
2128.00,-0.0012
2125.00,-0.0009
2122.00,-0.0005
2119.00,-0.0003
2116.00,0.0000
2113.00,-0.0000
2110.00,0.0001
2107.00,-0.0001
2104.00,-0.0001
2101.00,0.0002
2098.00,0.0001
2095.00,-0.0004
2092.00,-0.0003
2089.00,-0.0001
2086.00,0.0001
2083.00,0.0003
2080.00,0.0003
2077.00,0.0002
2074.00,0.0000
2071.00,0.0000
2068.00,-0.0001
2065.00,-0.0002
2062.00,0.0000
2059.00,-0.0000
2056.00,-0.0001
2053.00,0.0005
2050.00,0.0008
2047.00,0.0001
2044.00,0.0000
2041.00,0.0003
2038.00,0.0006
2035.00,0.0003
2032.00,-0.0005
2029.00,-0.0005
2026.00,-0.0005
2023.00,-0.0007
2020.00,-0.0011
2017.00,-0.0007
2014.00,-0.0003
2011.00,-0.0004
2008.00,-0.0011
2005.00,-0.0011
2002.00,-0.0010
1999.00,-0.0006
1996.00,-0.0001
1993.00,0.0000
1990.00,0.0002
1987.00,0.0004
1984.00,0.0008
1981.00,0.0015
1978.00,0.0002
1975.00,-0.0005
1972.00,-0.0005
1969.00,-0.0002
1966.00,-0.0000
1963.00,-0.0001
1960.00,-0.0002
1957.00,0.0002
1954.00,0.0006
1951.00,0.0012
1948.00,0.0012
1945.00,0.0013
1942.00,0.0014
1939.00,0.0010
1936.00,0.0008
1933.00,0.0004
1930.00,0.0002
1927.00,0.0000
1924.00,0.0000
1921.00,0.0000
1918.00,-0.0000
1915.00,-0.0003
1912.00,-0.0003
1909.00,-0.0002
1906.00,-0.0001
1903.00,-0.0001
1900.00,-0.0000
1897.00,0.0002
1894.00,0.0003
1891.00,0.0005
1888.00,0.0008
1885.00,0.0009
1882.00,0.0011
1879.00,0.0013
1876.00,0.0014
1873.00,0.0015
1870.00,0.0015
1867.00,0.0014
1864.00,0.0013
1861.00,0.0010
1858.00,0.0006
1855.00,0.0003
1852.00,0.0002
1849.00,0.0001
1846.00,0.0000
1843.00,-0.0000
1840.00,0.0000
1837.00,0.0000
1834.00,0.0001
1831.00,0.0003
1828.00,0.0005
1825.00,0.0006
1822.00,0.0008
1819.00,0.0007
1816.00,0.0008
1813.00,0.0012
1810.00,0.0015
1807.00,0.0017
1804.00,0.0019
1801.00,0.0019
1798.00,0.0018
1795.00,0.0016
1792.00,0.0013
1789.00,0.0010
1786.00,0.0009
1783.00,0.0009
1780.00,0.0009
1777.00,0.0009
1774.00,0.0010
1771.00,0.0011
1768.00,0.0011
1765.00,0.0012
1762.00,0.0014
1759.00,0.0015
1756.00,0.0018
1753.00,0.0020
1750.00,0.0023
1747.00,0.0025
1744.00,0.0027
1741.00,0.0029
1738.00,0.0029
1735.00,0.0027
1732.00,0.0025
1729.00,0.0023
1726.00,0.0023
1723.00,0.0022
1720.00,0.0021
1717.00,0.0020
1714.00,0.0020
1711.00,0.0020
1708.00,0.0020
1705.00,0.0020
1702.00,0.0020
1699.00,0.0022
1696.00,0.0023
1693.00,0.0025
1690.00,0.0028
1687.00,0.0031
1684.00,0.0034
1681.00,0.0035
1678.00,0.0036
1675.00,0.0037
1672.00,0.0038
1669.00,0.0038
1666.00,0.0038
1663.00,0.0038
1660.00,0.0036
1657.00,0.0034
1654.00,0.0032
1651.00,0.0029
1648.00,0.0027
1645.00,0.0026
1642.00,0.0023
1639.00,0.0021
1636.00,0.0020
1633.00,0.0019
1630.00,0.0019
1627.00,0.0019
1624.00,0.0019
1621.00,0.0019
1618.00,0.0020
1615.00,0.0023
1612.00,0.0029
1609.00,0.0047
1606.00,0.0084
1603.00,0.0131
1600.00,0.0138
1597.00,0.0099
1594.00,0.0064
1591.00,0.0046
1588.00,0.0043
1585.00,0.0056
1582.00,0.0058
1579.00,0.0039
1576.00,0.0026
1573.00,0.0020
1570.00,0.0016
1567.00,0.0015
1564.00,0.0013
1561.00,0.0014
1558.00,0.0014
1555.00,0.0014
1552.00,0.0016
1549.00,0.0017
1546.00,0.0020
1543.00,0.0022
1540.00,0.0021
1537.00,0.0019
1534.00,0.0017
1531.00,0.0014
1528.00,0.0013
1525.00,0.0012
1522.00,0.0012
1519.00,0.0012
1516.00,0.0013
1513.00,0.0014
1510.00,0.0016
1507.00,0.0020
1504.00,0.0030
1501.00,0.0048
1498.00,0.0110
1495.00,0.0267
1492.00,0.0340
1489.00,0.0210
1486.00,0.0111
1483.00,0.0068
1480.00,0.0048
1477.00,0.0040
1474.00,0.0038
1471.00,0.0039
1468.00,0.0042
1465.00,0.0048
1462.00,0.0058
1459.00,0.0085
1456.00,0.0204
1453.00,0.0335
1450.00,0.0331
1447.00,0.0256
1444.00,0.0205
1441.00,0.0163
1438.00,0.0131
1435.00,0.0095
1432.00,0.0073
1429.00,0.0058
1426.00,0.0049
1423.00,0.0044
1420.00,0.0040
1417.00,0.0036
1414.00,0.0034
1411.00,0.0033
1408.00,0.0032
1405.00,0.0032
1402.00,0.0032
1399.00,0.0032
1396.00,0.0034
1393.00,0.0039
1390.00,0.0045
1387.00,0.0052
1384.00,0.0060
1381.00,0.0068
1378.00,0.0075
1375.00,0.0081
1372.00,0.0083
1369.00,0.0082
1366.00,0.0081
1363.00,0.0078
1360.00,0.0075
1357.00,0.0073
1354.00,0.0071
1351.00,0.0070
1348.00,0.0069
1345.00,0.0066
1342.00,0.0062
1339.00,0.0059
1336.00,0.0060
1333.00,0.0064
1330.00,0.0069
1327.00,0.0069
1324.00,0.0067
1321.00,0.0065
1318.00,0.0065
1315.00,0.0067
1312.00,0.0067
1309.00,0.0066
1306.00,0.0063
1303.00,0.0060
1300.00,0.0058
1297.00,0.0057
1294.00,0.0058
1291.00,0.0058
1288.00,0.0056
1285.00,0.0054
1282.00,0.0052
1279.00,0.0050
1276.00,0.0048
1273.00,0.0044
1270.00,0.0041
1267.00,0.0039
1264.00,0.0038
1261.00,0.0037
1258.00,0.0036
1255.00,0.0036
1252.00,0.0037
1249.00,0.0038
1246.00,0.0037
1243.00,0.0037
1240.00,0.0037
1237.00,0.0037
1234.00,0.0036
1231.00,0.0036
1228.00,0.0037
1225.00,0.0038
1222.00,0.0037
1219.00,0.0037
1216.00,0.0038
1213.00,0.0039
1210.00,0.0041
1207.00,0.0044
1204.00,0.0047
1201.00,0.0052
1198.00,0.0054
1195.00,0.0056
1192.00,0.0057
1189.00,0.0058
1186.00,0.0064
1183.00,0.0075
1180.00,0.0076
1177.00,0.0064
1174.00,0.0052
1171.00,0.0048
1168.00,0.0046
1165.00,0.0047
1162.00,0.0051
1159.00,0.0061
1156.00,0.0076
1153.00,0.0076
1150.00,0.0059
1147.00,0.0045
1144.00,0.0039
1141.00,0.0035
1138.00,0.0032
1135.00,0.0031
1132.00,0.0031
1129.00,0.0032
1126.00,0.0032
1123.00,0.0034
1120.00,0.0037
1117.00,0.0040
1114.00,0.0043
1111.00,0.0045
1108.00,0.0044
1105.00,0.0043
1102.00,0.0044
1099.00,0.0046
1096.00,0.0048
1093.00,0.0050
1090.00,0.0052
1087.00,0.0055
1084.00,0.0061
1081.00,0.0069
1078.00,0.0077
1075.00,0.0087
1072.00,0.0099
1069.00,0.0106
1066.00,0.0102
1063.00,0.0090
1060.00,0.0078
1057.00,0.0071
1054.00,0.0065
1051.00,0.0059
1048.00,0.0056
1045.00,0.0054
1042.00,0.0055
1039.00,0.0060
1036.00,0.0080
1033.00,0.0123
1030.00,0.0166
1027.00,0.0174
1024.00,0.0142
1021.00,0.0113
1018.00,0.0095
1015.00,0.0083
1012.00,0.0075
1009.00,0.0071
1006.00,0.0074
1003.00,0.0077
1000.00,0.0067
997.00,0.0056
994.00,0.0054
991.00,0.0054
988.00,0.0057
985.00,0.0062
982.00,0.0068
979.00,0.0068
976.00,0.0064
973.00,0.0063
970.00,0.0066
967.00,0.0072
964.00,0.0075
961.00,0.0070
958.00,0.0061
955.00,0.0054
952.00,0.0053
949.00,0.0054
946.00,0.0056
943.00,0.0058
940.00,0.0056
937.00,0.0051
934.00,0.0047
931.00,0.0042
928.00,0.0040
925.00,0.0041
922.00,0.0044
919.00,0.0049
916.00,0.0061
913.00,0.0080
910.00,0.0103
907.00,0.0119
904.00,0.0113
901.00,0.0089
898.00,0.0064
895.00,0.0049
892.00,0.0043
889.00,0.0038
886.00,0.0035
883.00,0.0032
880.00,0.0030
877.00,0.0030
874.00,0.0029
871.00,0.0028
868.00,0.0027
865.00,0.0027
862.00,0.0027
859.00,0.0026
856.00,0.0028
853.00,0.0032
850.00,0.0040
847.00,0.0050
844.00,0.0059
841.00,0.0061
838.00,0.0054
835.00,0.0042
832.00,0.0034
829.00,0.0028
826.00,0.0026
823.00,0.0025
820.00,0.0025
817.00,0.0024
814.00,0.0025
811.00,0.0026
808.00,0.0026
805.00,0.0027
802.00,0.0029
799.00,0.0032
796.00,0.0038
793.00,0.0044
790.00,0.0053
787.00,0.0064
784.00,0.0079
781.00,0.0099
778.00,0.0125
775.00,0.0164
772.00,0.0213
769.00,0.0271
766.00,0.0330
763.00,0.0385
760.00,0.0442
757.00,0.0484
754.00,0.0495
751.00,0.0492
748.00,0.0487
745.00,0.0448
742.00,0.0362
739.00,0.0270
736.00,0.0195
733.00,0.0132
730.00,0.0088
727.00,0.0065
724.00,0.0057
721.00,0.0057
718.00,0.0061
715.00,0.0074
712.00,0.0113
709.00,0.0207
706.00,0.0387
703.00,0.0642
700.00,0.0941
697.00,0.1226
694.00,0.1288
691.00,0.0975
688.00,0.0642
685.00,0.0456
682.00,0.0353
679.00,0.0289
676.00,0.0248
673.00,0.0223
670.00,0.0204
667.00,0.0177
664.00,0.0161
661.00,0.0144
658.00,0.0127
655.00,0.0114
652.00,0.0103
649.00,0.0094
646.00,0.0086
643.00,0.0081
640.00,0.0082
637.00,0.0086
634.00,0.0091
631.00,0.0097
628.00,0.0102
625.00,0.0106
622.00,0.0111
619.00,0.0108
616.00,0.0099
613.00,0.0093
610.00,0.0088
607.00,0.0087
604.00,0.0086
601.00,0.0090
598.00,0.0092
595.00,0.0095
592.00,0.0101
589.00,0.0105
586.00,0.0108
583.00,0.0119
580.00,0.0127
577.00,0.0143
574.00,0.0161
571.00,0.0183
568.00,0.0202
565.00,0.0222
562.00,0.0241
559.00,0.0261
556.00,0.0283
553.00,0.0309
550.00,0.0333
547.00,0.0366
544.00,0.0410
541.00,0.0455
538.00,0.0470
535.00,0.0449
532.00,0.0389
529.00,0.0325
526.00,0.0263
523.00,0.0220
520.00,0.0195
517.00,0.0173
514.00,0.0156
511.00,0.0141
508.00,0.0130
505.00,0.0118
502.00,0.0110
499.00,0.0102
496.00,0.0097
493.00,0.0089
490.00,0.0089
487.00,0.0086
484.00,0.0080
481.00,0.0079
478.00,0.0072
475.00,0.0071
472.00,0.0072
469.00,0.0081
466.00,0.0076
463.00,0.0065
460.00,0.0069
457.00,0.0071
454.00,0.0069
451.00,0.0062
448.00,0.0064
445.00,0.0070
442.00,0.0070
439.00,0.0061
436.00,0.0060
433.00,0.0064
430.00,0.0060
427.00,0.0060
424.00,0.0053
421.00,0.0063
418.00,0.0061
415.00,0.0048
412.00,0.0060
409.00,0.0069
406.00,0.0072
403.00,0.0055
400.00,0.0021