File: FTIR/Olivia/2025_06_18_Std_Polystyrene_scan2.csv
Created as New Dataset,Sample 693 By YargerLab Date Wednesday, June 18 2025
cm-1,A
4000.00,0.0019
3997.00,0.0019
3994.00,0.0019
3991.00,0.0018
3988.00,0.0019
3985.00,0.0018
3982.00,0.0018
3979.00,0.0019
3976.00,0.0019
3973.00,0.0019
3970.00,0.0019
3967.00,0.0019
3964.00,0.0018
3961.00,0.0018
3958.00,0.0018
3955.00,0.0018
3952.00,0.0018
3949.00,0.0018
3946.00,0.0018
3943.00,0.0018
3940.00,0.0018
3937.00,0.0018
3934.00,0.0018
3931.00,0.0019
3928.00,0.0019
3925.00,0.0019
3922.00,0.0018
3919.00,0.0018
3916.00,0.0018
3913.00,0.0018
3910.00,0.0018
3907.00,0.0019
3904.00,0.0020
3901.00,0.0019
3898.00,0.0018
3895.00,0.0018
3892.00,0.0018
3889.00,0.0019
3886.00,0.0019
3883.00,0.0019
3880.00,0.0018
3877.00,0.0018
3874.00,0.0019
3871.00,0.0019
3868.00,0.0019
3865.00,0.0018
3862.00,0.0018
3859.00,0.0019
3856.00,0.0021
3853.00,0.0020
3850.00,0.0019
3847.00,0.0018
3844.00,0.0019
3841.00,0.0020
3838.00,0.0020
3835.00,0.0020
3832.00,0.0019
3829.00,0.0019
3826.00,0.0019
3823.00,0.0020
3820.00,0.0021
3817.00,0.0020
3814.00,0.0020
3811.00,0.0019
3808.00,0.0019
3805.00,0.0021
3802.00,0.0020
3799.00,0.0020
3796.00,0.0019
3793.00,0.0019
3790.00,0.0018
3787.00,0.0018
3784.00,0.0019
3781.00,0.0019
3778.00,0.0018
3775.00,0.0018
3772.00,0.0019
3769.00,0.0019
3766.00,0.0018
3763.00,0.0019
3760.00,0.0019
3757.00,0.0019
3754.00,0.0020
3751.00,0.0020
3748.00,0.0021
3745.00,0.0019
3742.00,0.0019
3739.00,0.0019
3736.00,0.0019
3733.00,0.0019
3730.00,0.0018
3727.00,0.0017
3724.00,0.0017
3721.00,0.0017
3718.00,0.0017
3715.00,0.0018
3712.00,0.0018
3709.00,0.0018
3706.00,0.0017
3703.00,0.0017
3700.00,0.0017
3697.00,0.0017
3694.00,0.0017
3691.00,0.0019
3688.00,0.0019
3685.00,0.0018
3682.00,0.0017
3679.00,0.0018
3676.00,0.0017
3673.00,0.0018
3670.00,0.0017
3667.00,0.0016
3664.00,0.0016
3661.00,0.0017
3658.00,0.0017
3655.00,0.0017
3652.00,0.0019
3649.00,0.0018
3646.00,0.0017
3643.00,0.0016
3640.00,0.0016
3637.00,0.0016
3634.00,0.0016
3631.00,0.0017
3628.00,0.0017
3625.00,0.0016
3622.00,0.0017
3619.00,0.0018
3616.00,0.0018
3613.00,0.0017
3610.00,0.0016
3607.00,0.0015
3604.00,0.0016
3601.00,0.0016
3598.00,0.0016
3595.00,0.0016
3592.00,0.0016
3589.00,0.0016
3586.00,0.0016
3583.00,0.0016
3580.00,0.0016
3577.00,0.0016
3574.00,0.0015
3571.00,0.0016
3568.00,0.0017
3565.00,0.0016
3562.00,0.0016
3559.00,0.0016
3556.00,0.0016
3553.00,0.0016
3550.00,0.0016
3547.00,0.0017
3544.00,0.0016
3541.00,0.0016
3538.00,0.0017
3535.00,0.0017
3532.00,0.0017
3529.00,0.0017
3526.00,0.0018
3523.00,0.0018
3520.00,0.0017
3517.00,0.0017
3514.00,0.0017
3511.00,0.0018
3508.00,0.0018
3505.00,0.0018
3502.00,0.0018
3499.00,0.0018
3496.00,0.0018
3493.00,0.0018
3490.00,0.0018
3487.00,0.0018
3484.00,0.0019
3481.00,0.0019
3478.00,0.0019
3475.00,0.0019
3472.00,0.0019
3469.00,0.0019
3466.00,0.0019
3463.00,0.0019
3460.00,0.0020
3457.00,0.0019
3454.00,0.0019
3451.00,0.0019
3448.00,0.0020
3445.00,0.0019
3442.00,0.0019
3439.00,0.0019
3436.00,0.0019
3433.00,0.0019
3430.00,0.0020
3427.00,0.0020
3424.00,0.0019
3421.00,0.0019
3418.00,0.0019
3415.00,0.0018
3412.00,0.0019
3409.00,0.0019
3406.00,0.0019
3403.00,0.0020
3400.00,0.0019
3397.00,0.0019
3394.00,0.0019
3391.00,0.0019
3388.00,0.0019
3385.00,0.0019
3382.00,0.0019
3379.00,0.0019
3376.00,0.0018
3373.00,0.0019
3370.00,0.0019
3367.00,0.0019
3364.00,0.0019
3361.00,0.0019
3358.00,0.0019
3355.00,0.0020
3352.00,0.0020
3349.00,0.0019
3346.00,0.0019
3343.00,0.0019
3340.00,0.0019
3337.00,0.0019
3334.00,0.0019
3331.00,0.0019
3328.00,0.0019
3325.00,0.0019
3322.00,0.0019
3319.00,0.0019
3316.00,0.0019
3313.00,0.0019
3310.00,0.0019
3307.00,0.0019
3304.00,0.0018
3301.00,0.0018
3298.00,0.0018
3295.00,0.0018
3292.00,0.0019
3289.00,0.0019
3286.00,0.0018
3283.00,0.0018
3280.00,0.0018
3277.00,0.0018
3274.00,0.0018
3271.00,0.0018
3268.00,0.0018
3265.00,0.0018
3262.00,0.0018
3259.00,0.0018
3256.00,0.0018
3253.00,0.0018
3250.00,0.0018
3247.00,0.0017
3244.00,0.0017
3241.00,0.0017
3238.00,0.0017
3235.00,0.0017
3232.00,0.0017
3229.00,0.0017
3226.00,0.0017
3223.00,0.0017
3220.00,0.0017
3217.00,0.0018
3214.00,0.0017
3211.00,0.0018
3208.00,0.0018
3205.00,0.0018
3202.00,0.0018
3199.00,0.0018
3196.00,0.0018
3193.00,0.0018
3190.00,0.0018
3187.00,0.0017
3184.00,0.0017
3181.00,0.0017
3178.00,0.0017
3175.00,0.0017
3172.00,0.0018
3169.00,0.0018
3166.00,0.0019
3163.00,0.0019
3160.00,0.0019
3157.00,0.0018
3154.00,0.0017
3151.00,0.0017
3148.00,0.0017
3145.00,0.0017
3142.00,0.0017
3139.00,0.0017
3136.00,0.0017
3133.00,0.0017
3130.00,0.0018
3127.00,0.0019
3124.00,0.0019
3121.00,0.0019
3118.00,0.0021
3115.00,0.0024
3112.00,0.0028
3109.00,0.0034
3106.00,0.0041
3103.00,0.0044
3100.00,0.0043
3097.00,0.0041
3094.00,0.0044
3091.00,0.0054
3088.00,0.0073
3085.00,0.0096
3082.00,0.0106
3079.00,0.0096
3076.00,0.0082
3073.00,0.0078
3070.00,0.0084
3067.00,0.0101
3064.00,0.0125
3061.00,0.0144
3058.00,0.0142
3055.00,0.0120
3052.00,0.0098
3049.00,0.0083
3046.00,0.0075
3043.00,0.0077
3040.00,0.0087
3037.00,0.0108
3034.00,0.0145
3031.00,0.0200
3028.00,0.0258
3025.00,0.0283
3022.00,0.0244
3019.00,0.0174
3016.00,0.0117
3013.00,0.0085
3010.00,0.0071
3007.00,0.0070
3004.00,0.0076
3001.00,0.0078
2998.00,0.0068
2995.00,0.0052
2992.00,0.0041
2989.00,0.0037
2986.00,0.0035
2983.00,0.0032
2980.00,0.0032
2977.00,0.0034
2974.00,0.0036
2971.00,0.0038
2968.00,0.0041
2965.00,0.0045
2962.00,0.0051
2959.00,0.0058
2956.00,0.0067
2953.00,0.0078
2950.00,0.0092
2947.00,0.0110
2944.00,0.0131
2941.00,0.0155
2938.00,0.0185
2935.00,0.0218
2932.00,0.0254
2929.00,0.0286
2926.00,0.0311
2923.00,0.0324
2920.00,0.0325
2917.00,0.0315
2914.00,0.0298
2911.00,0.0276
2908.00,0.0252
2905.00,0.0227
2902.00,0.0200
2899.00,0.0175
2896.00,0.0154
2893.00,0.0137
2890.00,0.0125
2887.00,0.0115
2884.00,0.0107
2881.00,0.0100
2878.00,0.0092
2875.00,0.0086
2872.00,0.0082
2869.00,0.0080
2866.00,0.0082
2863.00,0.0090
2860.00,0.0102
2857.00,0.0117
2854.00,0.0132
2851.00,0.0142
2848.00,0.0143
2845.00,0.0134
2842.00,0.0113
2839.00,0.0088
2836.00,0.0066
2833.00,0.0051
2830.00,0.0043
2827.00,0.0039
2824.00,0.0036
2821.00,0.0034
2818.00,0.0033
2815.00,0.0033
2812.00,0.0032
2809.00,0.0032
2806.00,0.0030
2803.00,0.0030
2800.00,0.0029
2797.00,0.0028
2794.00,0.0027
2791.00,0.0027
2788.00,0.0026
2785.00,0.0026
2782.00,0.0026
2779.00,0.0026
2776.00,0.0025
2773.00,0.0025
2770.00,0.0024
2767.00,0.0024
2764.00,0.0024
2761.00,0.0023
2758.00,0.0023
2755.00,0.0023
2752.00,0.0022
2749.00,0.0022
2746.00,0.0022
2743.00,0.0022
2740.00,0.0022
2737.00,0.0022
2734.00,0.0023
2731.00,0.0023
2728.00,0.0023
2725.00,0.0023
2722.00,0.0023
2719.00,0.0023
2716.00,0.0023
2713.00,0.0023
2710.00,0.0023
2707.00,0.0022
2704.00,0.0022
2701.00,0.0022
2698.00,0.0022
2695.00,0.0023
2692.00,0.0022
2689.00,0.0022
2686.00,0.0022
2683.00,0.0022
2680.00,0.0022
2677.00,0.0022
2674.00,0.0022
2671.00,0.0022
2668.00,0.0023
2665.00,0.0024
2662.00,0.0026
2659.00,0.0026
2656.00,0.0027
2653.00,0.0027
2650.00,0.0027
2647.00,0.0027
2644.00,0.0027
2641.00,0.0027
2638.00,0.0027
2635.00,0.0028
2632.00,0.0028
2629.00,0.0028
2626.00,0.0027
2623.00,0.0026
2620.00,0.0025
2617.00,0.0024
2614.00,0.0024
2611.00,0.0024
2608.00,0.0024
2605.00,0.0025
2602.00,0.0025
2599.00,0.0025
2596.00,0.0024
2593.00,0.0023
2590.00,0.0022
2587.00,0.0021
2584.00,0.0022
2581.00,0.0022
2578.00,0.0022
2575.00,0.0021
2572.00,0.0020
2569.00,0.0020
2566.00,0.0020
2563.00,0.0020
2560.00,0.0019
2557.00,0.0019
2554.00,0.0019
2551.00,0.0019
2548.00,0.0019
2545.00,0.0018
2542.00,0.0018
2539.00,0.0018
2536.00,0.0018
2533.00,0.0018
2530.00,0.0018
2527.00,0.0018
2524.00,0.0018
2521.00,0.0017
2518.00,0.0018
2515.00,0.0017
2512.00,0.0017
2509.00,0.0017
2506.00,0.0017
2503.00,0.0017
2500.00,0.0017
2497.00,0.0017
2494.00,0.0017
2491.00,0.0016
2488.00,0.0017
2485.00,0.0017
2482.00,0.0016
2479.00,0.0016
2476.00,0.0016
2473.00,0.0016
2470.00,0.0016
2467.00,0.0016
2464.00,0.0016
2461.00,0.0016
2458.00,0.0017
2455.00,0.0017
2452.00,0.0017
2449.00,0.0016
2446.00,0.0016
2443.00,0.0015
2440.00,0.0014
2437.00,0.0014
2434.00,0.0014
2431.00,0.0014
2428.00,0.0013
2425.00,0.0014
2422.00,0.0013
2419.00,0.0012
2416.00,0.0012
2413.00,0.0013
2410.00,0.0013
2407.00,0.0011
2404.00,0.0011
2401.00,0.0011
2398.00,0.0011
2395.00,0.0011
2392.00,0.0011
2389.00,0.0011
2386.00,0.0011
2383.00,0.0012
2380.00,0.0012
2377.00,0.0013
2374.00,0.0013
2371.00,0.0014
2368.00,0.0014
2365.00,0.0014
2362.00,0.0015
2359.00,0.0016
2356.00,0.0016
2353.00,0.0017
2350.00,0.0018
2347.00,0.0019
2344.00,0.0020
2341.00,0.0022
2338.00,0.0023
2335.00,0.0023
2332.00,0.0021
2329.00,0.0022
2326.00,0.0032
2323.00,0.0032
2320.00,0.0028
2317.00,0.0026
2314.00,0.0026
2311.00,0.0025
2308.00,0.0025
2305.00,0.0023
2302.00,0.0022
2299.00,0.0022
2296.00,0.0023
2293.00,0.0025
2290.00,0.0026
2287.00,0.0027
2284.00,0.0025
2281.00,0.0023
2278.00,0.0020
2275.00,0.0020
2272.00,0.0019
2269.00,0.0020
2266.00,0.0020
2263.00,0.0018
2260.00,0.0019
2257.00,0.0016
2254.00,0.0014
2251.00,0.0015
2248.00,0.0015
2245.00,0.0016
2242.00,0.0016
2239.00,0.0016
2236.00,0.0016
2233.00,0.0014
2230.00,0.0013
2227.00,0.0013
2224.00,0.0014
2221.00,0.0013
2218.00,0.0014
2215.00,0.0013
2212.00,0.0011
2209.00,0.0012
2206.00,0.0013
2203.00,0.0012
2200.00,0.0013
2197.00,0.0013
2194.00,0.0014
2191.00,0.0015
2188.00,0.0014
2185.00,0.0012
2182.00,0.0008
2179.00,0.0010
2176.00,0.0010
2173.00,0.0010
2170.00,0.0015
2167.00,0.0021
2164.00,0.0022
2161.00,0.0006
2158.00,-0.0025
2155.00,-0.0016
2152.00,-0.0008
2149.00,-0.0008
2146.00,-0.0010
2143.00,-0.0008
2140.00,-0.0006
2137.00,-0.0009
2134.00,-0.0013
2131.00,-0.0009
2128.00,-0.0003
2125.00,-0.0001
2122.00,0.0003
2119.00,0.0006
2116.00,0.0010
2113.00,0.0011
2110.00,0.0010
2107.00,0.0009
2104.00,0.0009
2101.00,0.0009
2098.00,0.0006
2095.00,0.0003
2092.00,0.0006
2089.00,0.0008
2086.00,0.0009
2083.00,0.0010
2080.00,0.0011
2077.00,0.0010
2074.00,0.0010
2071.00,0.0010
2068.00,0.0009
2065.00,0.0009
2062.00,0.0007
2059.00,0.0007
2056.00,0.0006
2053.00,0.0013
2050.00,0.0014
2047.00,0.0008
2044.00,0.0006
2041.00,0.0007
2038.00,0.0009
2035.00,0.0008
2032.00,0.0002
2029.00,0.0004
2026.00,-0.0002
2023.00,-0.0004
2020.00,-0.0001
2017.00,0.0001
2014.00,-0.0001
2011.00,0.0004
2008.00,-0.0002
2005.00,-0.0006
2002.00,-0.0001
1999.00,0.0004
1996.00,0.0006
1993.00,0.0007
1990.00,0.0009
1987.00,0.0014
1984.00,0.0019
1981.00,0.0026
1978.00,0.0011
1975.00,0.0003
1972.00,0.0005
1969.00,0.0007
1966.00,0.0009
1963.00,0.0015
1960.00,0.0015
1957.00,0.0019
1954.00,0.0026
1951.00,0.0028
1948.00,0.0032
1945.00,0.0037
1942.00,0.0039
1939.00,0.0036
1936.00,0.0029
1933.00,0.0022
1930.00,0.0017
1927.00,0.0014
1924.00,0.0011
1921.00,0.0011
1918.00,0.0009
1915.00,0.0009
1912.00,0.0010
1909.00,0.0010
1906.00,0.0010
1903.00,0.0011
1900.00,0.0012
1897.00,0.0015
1894.00,0.0019
1891.00,0.0022
1888.00,0.0025
1885.00,0.0028
1882.00,0.0030
1879.00,0.0032
1876.00,0.0035
1873.00,0.0038
1870.00,0.0037
1867.00,0.0035
1864.00,0.0033
1861.00,0.0028
1858.00,0.0023
1855.00,0.0017
1852.00,0.0014
1849.00,0.0012
1846.00,0.0011
1843.00,0.0011
1840.00,0.0010
1837.00,0.0011
1834.00,0.0012
1831.00,0.0013
1828.00,0.0016
1825.00,0.0018
1822.00,0.0022
1819.00,0.0023
1816.00,0.0026
1813.00,0.0032
1810.00,0.0036
1807.00,0.0040
1804.00,0.0043
1801.00,0.0042
1798.00,0.0040
1795.00,0.0036
1792.00,0.0029
1789.00,0.0024
1786.00,0.0021
1783.00,0.0019
1780.00,0.0019
1777.00,0.0020
1774.00,0.0021
1771.00,0.0021
1768.00,0.0021
1765.00,0.0022
1762.00,0.0024
1759.00,0.0028
1756.00,0.0032
1753.00,0.0037
1750.00,0.0041
1747.00,0.0044
1744.00,0.0047
1741.00,0.0047
1738.00,0.0045
1735.00,0.0042
1732.00,0.0039
1729.00,0.0036
1726.00,0.0034
1723.00,0.0032
1720.00,0.0030
1717.00,0.0028
1714.00,0.0027
1711.00,0.0027
1708.00,0.0027
1705.00,0.0026
1702.00,0.0026
1699.00,0.0026
1696.00,0.0026
1693.00,0.0026
1690.00,0.0026
1687.00,0.0027
1684.00,0.0029
1681.00,0.0029
1678.00,0.0031
1675.00,0.0032
1672.00,0.0033
1669.00,0.0033
1666.00,0.0033
1663.00,0.0033
1660.00,0.0031
1657.00,0.0030
1654.00,0.0029
1651.00,0.0029
1648.00,0.0026
1645.00,0.0025
1642.00,0.0024
1639.00,0.0024
1636.00,0.0024
1633.00,0.0024
1630.00,0.0025
1627.00,0.0027
1624.00,0.0029
1621.00,0.0031
1618.00,0.0035
1615.00,0.0042
1612.00,0.0054
1609.00,0.0088
1606.00,0.0161
1603.00,0.0254
1600.00,0.0271
1597.00,0.0192
1594.00,0.0122
1591.00,0.0089
1588.00,0.0081
1585.00,0.0105
1582.00,0.0110
1579.00,0.0073
1576.00,0.0049
1573.00,0.0038
1570.00,0.0032
1567.00,0.0029
1564.00,0.0028
1561.00,0.0028
1558.00,0.0029
1555.00,0.0031
1552.00,0.0034
1549.00,0.0037
1546.00,0.0040
1543.00,0.0042
1540.00,0.0043
1537.00,0.0040
1534.00,0.0037
1531.00,0.0033
1528.00,0.0030
1525.00,0.0028
1522.00,0.0028
1519.00,0.0028
1516.00,0.0029
1513.00,0.0032
1510.00,0.0035
1507.00,0.0042
1504.00,0.0060
1501.00,0.0093
1498.00,0.0211
1495.00,0.0543
1492.00,0.0701
1489.00,0.0418
1486.00,0.0216
1483.00,0.0130
1480.00,0.0089
1477.00,0.0072
1474.00,0.0065
1471.00,0.0063
1468.00,0.0067
1465.00,0.0075
1462.00,0.0094
1459.00,0.0144
1456.00,0.0397
1453.00,0.0677
1450.00,0.0669
1447.00,0.0504
1444.00,0.0390
1441.00,0.0298
1438.00,0.0231
1435.00,0.0161
1432.00,0.0119
1429.00,0.0089
1426.00,0.0072
1423.00,0.0063
1420.00,0.0058
1417.00,0.0053
1414.00,0.0052
1411.00,0.0050
1408.00,0.0049
1405.00,0.0049
1402.00,0.0049
1399.00,0.0049
1396.00,0.0052
1393.00,0.0061
1390.00,0.0073
1387.00,0.0088
1384.00,0.0104
1381.00,0.0118
1378.00,0.0131
1375.00,0.0143
1372.00,0.0147
1369.00,0.0146
1366.00,0.0143
1363.00,0.0138
1360.00,0.0132
1357.00,0.0127
1354.00,0.0123
1351.00,0.0123
1348.00,0.0121
1345.00,0.0116
1342.00,0.0109
1339.00,0.0103
1336.00,0.0105
1333.00,0.0115
1330.00,0.0124
1327.00,0.0124
1324.00,0.0118
1321.00,0.0114
1318.00,0.0114
1315.00,0.0119
1312.00,0.0121
1309.00,0.0118
1306.00,0.0112
1303.00,0.0106
1300.00,0.0099
1297.00,0.0095
1294.00,0.0093
1291.00,0.0090
1288.00,0.0087
1285.00,0.0085
1282.00,0.0084
1279.00,0.0082
1276.00,0.0077
1273.00,0.0071
1270.00,0.0066
1267.00,0.0063
1264.00,0.0062
1261.00,0.0061
1258.00,0.0060
1255.00,0.0060
1252.00,0.0061
1249.00,0.0062
1246.00,0.0064
1243.00,0.0064
1240.00,0.0063
1237.00,0.0062
1234.00,0.0062
1231.00,0.0061
1228.00,0.0062
1225.00,0.0062
1222.00,0.0062
1219.00,0.0062
1216.00,0.0064
1213.00,0.0066
1210.00,0.0070
1207.00,0.0076
1204.00,0.0083
1201.00,0.0091
1198.00,0.0097
1195.00,0.0100
1192.00,0.0101
1189.00,0.0105
1186.00,0.0117
1183.00,0.0137
1180.00,0.0139
1177.00,0.0112
1174.00,0.0088
1171.00,0.0079
1168.00,0.0076
1165.00,0.0077
1162.00,0.0085
1159.00,0.0107
1156.00,0.0138
1153.00,0.0138
1150.00,0.0102
1147.00,0.0075
1144.00,0.0063
1141.00,0.0056
1138.00,0.0051
1135.00,0.0049
1132.00,0.0049
1129.00,0.0049
1126.00,0.0051
1123.00,0.0054
1120.00,0.0060
1117.00,0.0067
1114.00,0.0074
1111.00,0.0077
1108.00,0.0076
1105.00,0.0075
1102.00,0.0077
1099.00,0.0081
1096.00,0.0085
1093.00,0.0089
1090.00,0.0094
1087.00,0.0102
1084.00,0.0113
1081.00,0.0128
1078.00,0.0143
1075.00,0.0164
1072.00,0.0191
1069.00,0.0205
1066.00,0.0194
1063.00,0.0170
1060.00,0.0147
1057.00,0.0130
1054.00,0.0118
1051.00,0.0110
1048.00,0.0104
1045.00,0.0100
1042.00,0.0100
1039.00,0.0111
1036.00,0.0152
1033.00,0.0244
1030.00,0.0342
1027.00,0.0362
1024.00,0.0293
1021.00,0.0228
1018.00,0.0189
1015.00,0.0162
1012.00,0.0146
1009.00,0.0137
1006.00,0.0143
1003.00,0.0150
1000.00,0.0129
997.00,0.0108
994.00,0.0102
991.00,0.0104
988.00,0.0110
985.00,0.0121
982.00,0.0132
979.00,0.0134
976.00,0.0126
973.00,0.0120
970.00,0.0127
967.00,0.0143
964.00,0.0149
961.00,0.0137
958.00,0.0118
955.00,0.0104
952.00,0.0101
949.00,0.0105
946.00,0.0111
943.00,0.0115
940.00,0.0111
937.00,0.0100
934.00,0.0088
931.00,0.0081
928.00,0.0077
925.00,0.0080
922.00,0.0086
919.00,0.0098
916.00,0.0122
913.00,0.0162
910.00,0.0212
907.00,0.0243
904.00,0.0229
901.00,0.0178
898.00,0.0127
895.00,0.0097
892.00,0.0082
889.00,0.0074
886.00,0.0067
883.00,0.0063
880.00,0.0061
877.00,0.0059
874.00,0.0057
871.00,0.0054
868.00,0.0053
865.00,0.0052
862.00,0.0053
859.00,0.0054
856.00,0.0056
853.00,0.0063
850.00,0.0078
847.00,0.0100
844.00,0.0119
841.00,0.0125
838.00,0.0111
835.00,0.0085
832.00,0.0064
829.00,0.0055
826.00,0.0053
823.00,0.0052
820.00,0.0051
817.00,0.0053
814.00,0.0055
811.00,0.0056
808.00,0.0058
805.00,0.0061
802.00,0.0064
799.00,0.0071
796.00,0.0081
793.00,0.0095
790.00,0.0116
787.00,0.0139
784.00,0.0167
781.00,0.0207
778.00,0.0262
775.00,0.0345
772.00,0.0450
769.00,0.0579
766.00,0.0712
763.00,0.0840
760.00,0.0975
757.00,0.1078
754.00,0.1103
751.00,0.1088
748.00,0.1071
745.00,0.0972
742.00,0.0764
739.00,0.0563
736.00,0.0403
733.00,0.0267
730.00,0.0178
727.00,0.0137
724.00,0.0123
721.00,0.0122
718.00,0.0129
715.00,0.0158
712.00,0.0236
709.00,0.0437
706.00,0.0852
703.00,0.1524
700.00,0.2428
697.00,0.3357
694.00,0.3447
691.00,0.2356
688.00,0.1447
685.00,0.0996
682.00,0.0757
679.00,0.0611
676.00,0.0521
673.00,0.0462
670.00,0.0419
667.00,0.0371
664.00,0.0330
661.00,0.0289
658.00,0.0251
655.00,0.0219
652.00,0.0194
649.00,0.0175
646.00,0.0162
643.00,0.0155
640.00,0.0156
637.00,0.0166
634.00,0.0181
631.00,0.0193
628.00,0.0201
625.00,0.0208
622.00,0.0222
619.00,0.0220
616.00,0.0201
613.00,0.0188
610.00,0.0177
607.00,0.0172
604.00,0.0170
601.00,0.0174
598.00,0.0180
595.00,0.0187
592.00,0.0194
589.00,0.0204
586.00,0.0215
583.00,0.0230
580.00,0.0258
577.00,0.0292
574.00,0.0333
571.00,0.0375
568.00,0.0421
565.00,0.0465
562.00,0.0507
559.00,0.0550
556.00,0.0595
553.00,0.0649
550.00,0.0711
547.00,0.0797
544.00,0.0901
541.00,0.1002
538.00,0.1051
535.00,0.0986
532.00,0.0835
529.00,0.0679
526.00,0.0551
523.00,0.0454
520.00,0.0391
517.00,0.0350
514.00,0.0315
511.00,0.0287
508.00,0.0260
505.00,0.0232
502.00,0.0216
499.00,0.0202
496.00,0.0190
493.00,0.0177
490.00,0.0167
487.00,0.0154
484.00,0.0150
481.00,0.0148
478.00,0.0144
475.00,0.0140
472.00,0.0135
469.00,0.0132
466.00,0.0134
463.00,0.0136
460.00,0.0128
457.00,0.0114
454.00,0.0114
451.00,0.0114
448.00,0.0117
445.00,0.0118
442.00,0.0117
439.00,0.0109
436.00,0.0101
433.00,0.0101
430.00,0.0104
427.00,0.0099
424.00,0.0092
421.00,0.0087
418.00,0.0085
415.00,0.0102
412.00,0.0120
409.00,0.0131
406.00,0.0118
403.00,0.0111
400.00,0.0093