File: FTIR/Olivia/2025_08_05_Polystyrene_film_scan3.csv
Created as New Dataset,Sample 1068 By YargerLab Date Tuesday, August 05 2025
cm-1,A
4000.00,0.0002
3997.00,0.0002
3994.00,0.0002
3991.00,0.0002
3988.00,0.0002
3985.00,0.0002
3982.00,0.0002
3979.00,0.0002
3976.00,0.0002
3973.00,0.0002
3970.00,0.0002
3967.00,0.0002
3964.00,0.0002
3961.00,0.0002
3958.00,0.0002
3955.00,0.0002
3952.00,0.0002
3949.00,0.0002
3946.00,0.0002
3943.00,0.0002
3940.00,0.0002
3937.00,0.0002
3934.00,0.0001
3931.00,0.0002
3928.00,0.0002
3925.00,0.0002
3922.00,0.0002
3919.00,0.0002
3916.00,0.0002
3913.00,0.0002
3910.00,0.0002
3907.00,0.0002
3904.00,0.0001
3901.00,0.0001
3898.00,0.0001
3895.00,0.0001
3892.00,0.0002
3889.00,0.0002
3886.00,0.0001
3883.00,0.0001
3880.00,0.0001
3877.00,0.0001
3874.00,0.0001
3871.00,0.0001
3868.00,0.0001
3865.00,0.0000
3862.00,0.0001
3859.00,0.0001
3856.00,0.0001
3853.00,0.0000
3850.00,0.0000
3847.00,0.0002
3844.00,0.0002
3841.00,0.0001
3838.00,0.0001
3835.00,0.0001
3832.00,0.0001
3829.00,0.0002
3826.00,0.0002
3823.00,0.0001
3820.00,0.0001
3817.00,0.0001
3814.00,0.0002
3811.00,0.0002
3808.00,0.0001
3805.00,0.0001
3802.00,0.0000
3799.00,0.0001
3796.00,0.0001
3793.00,0.0002
3790.00,0.0003
3787.00,0.0002
3784.00,0.0002
3781.00,0.0002
3778.00,0.0002
3775.00,0.0002
3772.00,0.0002
3769.00,0.0002
3766.00,0.0002
3763.00,0.0002
3760.00,0.0002
3757.00,0.0002
3754.00,0.0002
3751.00,0.0001
3748.00,0.0001
3745.00,0.0001
3742.00,0.0001
3739.00,0.0002
3736.00,0.0001
3733.00,0.0000
3730.00,0.0000
3727.00,0.0001
3724.00,0.0001
3721.00,0.0000
3718.00,0.0000
3715.00,0.0001
3712.00,0.0002
3709.00,0.0000
3706.00,0.0000
3703.00,0.0001
3700.00,0.0002
3697.00,0.0002
3694.00,0.0001
3691.00,-0.0000
3688.00,-0.0000
3685.00,0.0000
3682.00,0.0001
3679.00,0.0001
3676.00,0.0001
3673.00,-0.0000
3670.00,-0.0001
3667.00,-0.0000
3664.00,0.0001
3661.00,0.0001
3658.00,0.0001
3655.00,0.0001
3652.00,-0.0000
3649.00,-0.0002
3646.00,-0.0001
3643.00,0.0000
3640.00,0.0001
3637.00,0.0001
3634.00,0.0000
3631.00,-0.0001
3628.00,-0.0001
3625.00,0.0000
3622.00,0.0001
3619.00,0.0001
3616.00,0.0001
3613.00,0.0000
3610.00,0.0001
3607.00,0.0001
3604.00,0.0000
3601.00,0.0000
3598.00,0.0001
3595.00,0.0001
3592.00,0.0002
3589.00,0.0001
3586.00,0.0001
3583.00,0.0001
3580.00,0.0001
3577.00,0.0002
3574.00,0.0002
3571.00,0.0002
3568.00,0.0001
3565.00,0.0001
3562.00,0.0002
3559.00,0.0002
3556.00,0.0002
3553.00,0.0002
3550.00,0.0002
3547.00,0.0002
3544.00,0.0002
3541.00,0.0003
3538.00,0.0003
3535.00,0.0003
3532.00,0.0003
3529.00,0.0003
3526.00,0.0002
3523.00,0.0002
3520.00,0.0003
3517.00,0.0003
3514.00,0.0004
3511.00,0.0004
3508.00,0.0003
3505.00,0.0003
3502.00,0.0003
3499.00,0.0003
3496.00,0.0004
3493.00,0.0004
3490.00,0.0004
3487.00,0.0004
3484.00,0.0004
3481.00,0.0004
3478.00,0.0005
3475.00,0.0004
3472.00,0.0004
3469.00,0.0004
3466.00,0.0004
3463.00,0.0004
3460.00,0.0005
3457.00,0.0005
3454.00,0.0005
3451.00,0.0005
3448.00,0.0004
3445.00,0.0005
3442.00,0.0005
3439.00,0.0005
3436.00,0.0005
3433.00,0.0005
3430.00,0.0005
3427.00,0.0005
3424.00,0.0005
3421.00,0.0005
3418.00,0.0005
3415.00,0.0005
3412.00,0.0005
3409.00,0.0005
3406.00,0.0005
3403.00,0.0005
3400.00,0.0005
3397.00,0.0005
3394.00,0.0005
3391.00,0.0005
3388.00,0.0004
3385.00,0.0005
3382.00,0.0004
3379.00,0.0004
3376.00,0.0004
3373.00,0.0004
3370.00,0.0004
3367.00,0.0005
3364.00,0.0005
3361.00,0.0004
3358.00,0.0005
3355.00,0.0005
3352.00,0.0004
3349.00,0.0004
3346.00,0.0005
3343.00,0.0004
3340.00,0.0004
3337.00,0.0004
3334.00,0.0004
3331.00,0.0005
3328.00,0.0005
3325.00,0.0004
3322.00,0.0004
3319.00,0.0004
3316.00,0.0004
3313.00,0.0004
3310.00,0.0004
3307.00,0.0004
3304.00,0.0004
3301.00,0.0004
3298.00,0.0004
3295.00,0.0004
3292.00,0.0004
3289.00,0.0004
3286.00,0.0004
3283.00,0.0004
3280.00,0.0004
3277.00,0.0004
3274.00,0.0004
3271.00,0.0004
3268.00,0.0004
3265.00,0.0004
3262.00,0.0004
3259.00,0.0004
3256.00,0.0004
3253.00,0.0004
3250.00,0.0004
3247.00,0.0004
3244.00,0.0004
3241.00,0.0004
3238.00,0.0003
3235.00,0.0003
3232.00,0.0003
3229.00,0.0003
3226.00,0.0004
3223.00,0.0004
3220.00,0.0004
3217.00,0.0003
3214.00,0.0003
3211.00,0.0003
3208.00,0.0003
3205.00,0.0003
3202.00,0.0003
3199.00,0.0003
3196.00,0.0004
3193.00,0.0003
3190.00,0.0003
3187.00,0.0003
3184.00,0.0003
3181.00,0.0003
3178.00,0.0003
3175.00,0.0003
3172.00,0.0003
3169.00,0.0003
3166.00,0.0004
3163.00,0.0003
3160.00,0.0003
3157.00,0.0003
3154.00,0.0003
3151.00,0.0003
3148.00,0.0003
3145.00,0.0002
3142.00,0.0002
3139.00,0.0003
3136.00,0.0003
3133.00,0.0003
3130.00,0.0003
3127.00,0.0003
3124.00,0.0003
3121.00,0.0004
3118.00,0.0005
3115.00,0.0006
3112.00,0.0007
3109.00,0.0010
3106.00,0.0012
3103.00,0.0014
3100.00,0.0014
3097.00,0.0013
3094.00,0.0014
3091.00,0.0018
3088.00,0.0025
3085.00,0.0034
3082.00,0.0039
3079.00,0.0036
3076.00,0.0030
3073.00,0.0028
3070.00,0.0030
3067.00,0.0036
3064.00,0.0045
3061.00,0.0054
3058.00,0.0054
3055.00,0.0047
3052.00,0.0037
3049.00,0.0031
3046.00,0.0028
3043.00,0.0028
3040.00,0.0032
3037.00,0.0039
3034.00,0.0053
3031.00,0.0074
3028.00,0.0098
3025.00,0.0110
3022.00,0.0097
3019.00,0.0069
3016.00,0.0045
3013.00,0.0030
3010.00,0.0024
3007.00,0.0023
3004.00,0.0025
3001.00,0.0025
2998.00,0.0021
2995.00,0.0015
2992.00,0.0011
2989.00,0.0008
2986.00,0.0008
2983.00,0.0006
2980.00,0.0007
2977.00,0.0008
2974.00,0.0009
2971.00,0.0010
2968.00,0.0012
2965.00,0.0014
2962.00,0.0016
2959.00,0.0018
2956.00,0.0021
2953.00,0.0026
2950.00,0.0032
2947.00,0.0039
2944.00,0.0047
2941.00,0.0057
2938.00,0.0069
2935.00,0.0082
2932.00,0.0095
2929.00,0.0107
2926.00,0.0117
2923.00,0.0123
2920.00,0.0122
2917.00,0.0118
2914.00,0.0111
2911.00,0.0103
2908.00,0.0094
2905.00,0.0085
2902.00,0.0074
2899.00,0.0064
2896.00,0.0056
2893.00,0.0049
2890.00,0.0044
2887.00,0.0040
2884.00,0.0037
2881.00,0.0034
2878.00,0.0031
2875.00,0.0029
2872.00,0.0027
2869.00,0.0026
2866.00,0.0027
2863.00,0.0030
2860.00,0.0034
2857.00,0.0040
2854.00,0.0045
2851.00,0.0049
2848.00,0.0050
2845.00,0.0047
2842.00,0.0039
2839.00,0.0029
2836.00,0.0021
2833.00,0.0015
2830.00,0.0012
2827.00,0.0010
2824.00,0.0009
2821.00,0.0008
2818.00,0.0008
2815.00,0.0008
2812.00,0.0008
2809.00,0.0008
2806.00,0.0007
2803.00,0.0007
2800.00,0.0006
2797.00,0.0006
2794.00,0.0006
2791.00,0.0005
2788.00,0.0005
2785.00,0.0005
2782.00,0.0005
2779.00,0.0005
2776.00,0.0006
2773.00,0.0006
2770.00,0.0005
2767.00,0.0005
2764.00,0.0005
2761.00,0.0005
2758.00,0.0005
2755.00,0.0005
2752.00,0.0005
2749.00,0.0004
2746.00,0.0004
2743.00,0.0004
2740.00,0.0005
2737.00,0.0005
2734.00,0.0005
2731.00,0.0005
2728.00,0.0005
2725.00,0.0005
2722.00,0.0005
2719.00,0.0005
2716.00,0.0005
2713.00,0.0005
2710.00,0.0005
2707.00,0.0005
2704.00,0.0005
2701.00,0.0005
2698.00,0.0005
2695.00,0.0005
2692.00,0.0005
2689.00,0.0005
2686.00,0.0005
2683.00,0.0005
2680.00,0.0005
2677.00,0.0005
2674.00,0.0005
2671.00,0.0005
2668.00,0.0005
2665.00,0.0006
2662.00,0.0008
2659.00,0.0009
2656.00,0.0010
2653.00,0.0010
2650.00,0.0010
2647.00,0.0010
2644.00,0.0010
2641.00,0.0010
2638.00,0.0010
2635.00,0.0010
2632.00,0.0010
2629.00,0.0010
2626.00,0.0009
2623.00,0.0009
2620.00,0.0009
2617.00,0.0008
2614.00,0.0008
2611.00,0.0008
2608.00,0.0008
2605.00,0.0008
2602.00,0.0008
2599.00,0.0008
2596.00,0.0008
2593.00,0.0007
2590.00,0.0006
2587.00,0.0006
2584.00,0.0006
2581.00,0.0007
2578.00,0.0006
2575.00,0.0005
2572.00,0.0005
2569.00,0.0006
2566.00,0.0006
2563.00,0.0005
2560.00,0.0005
2557.00,0.0005
2554.00,0.0005
2551.00,0.0005
2548.00,0.0005
2545.00,0.0004
2542.00,0.0004
2539.00,0.0004
2536.00,0.0004
2533.00,0.0004
2530.00,0.0004
2527.00,0.0003
2524.00,0.0003
2521.00,0.0004
2518.00,0.0004
2515.00,0.0005
2512.00,0.0004
2509.00,0.0004
2506.00,0.0004
2503.00,0.0003
2500.00,0.0003
2497.00,0.0003
2494.00,0.0003
2491.00,0.0003
2488.00,0.0003
2485.00,0.0002
2482.00,0.0003
2479.00,0.0003
2476.00,0.0002
2473.00,0.0002
2470.00,0.0003
2467.00,0.0003
2464.00,0.0002
2461.00,0.0003
2458.00,0.0003
2455.00,0.0003
2452.00,0.0003
2449.00,0.0003
2446.00,0.0003
2443.00,0.0003
2440.00,0.0002
2437.00,0.0002
2434.00,0.0002
2431.00,0.0001
2428.00,0.0000
2425.00,-0.0000
2422.00,0.0000
2419.00,0.0001
2416.00,0.0001
2413.00,0.0000
2410.00,0.0001
2407.00,-0.0000
2404.00,-0.0001
2401.00,-0.0001
2398.00,-0.0001
2395.00,-0.0001
2392.00,-0.0002
2389.00,-0.0001
2386.00,-0.0002
2383.00,-0.0003
2380.00,-0.0004
2377.00,-0.0003
2374.00,-0.0003
2371.00,-0.0004
2368.00,-0.0005
2365.00,-0.0003
2362.00,-0.0001
2359.00,-0.0002
2356.00,-0.0002
2353.00,-0.0002
2350.00,-0.0001
2347.00,0.0001
2344.00,0.0001
2341.00,0.0002
2338.00,0.0003
2335.00,0.0003
2332.00,0.0002
2329.00,0.0004
2326.00,0.0014
2323.00,0.0014
2320.00,0.0010
2317.00,0.0008
2314.00,0.0008
2311.00,0.0007
2308.00,0.0007
2305.00,0.0006
2302.00,0.0006
2299.00,0.0008
2296.00,0.0010
2293.00,0.0012
2290.00,0.0013
2287.00,0.0014
2284.00,0.0013
2281.00,0.0010
2278.00,0.0009
2275.00,0.0008
2272.00,0.0008
2269.00,0.0008
2266.00,0.0006
2263.00,0.0006
2260.00,0.0007
2257.00,0.0006
2254.00,0.0004
2251.00,0.0004
2248.00,0.0005
2245.00,0.0005
2242.00,0.0005
2239.00,0.0004
2236.00,0.0004
2233.00,0.0004
2230.00,0.0005
2227.00,0.0005
2224.00,0.0005
2221.00,0.0005
2218.00,0.0004
2215.00,0.0002
2212.00,0.0002
2209.00,0.0002
2206.00,0.0003
2203.00,0.0003
2200.00,0.0004
2197.00,0.0004
2194.00,0.0003
2191.00,0.0003
2188.00,0.0005
2185.00,0.0005
2182.00,-0.0000
2179.00,0.0000
2176.00,-0.0006
2173.00,-0.0002
2170.00,0.0007
2167.00,0.0014
2164.00,0.0017
2161.00,0.0005
2158.00,-0.0030
2155.00,-0.0026
2152.00,-0.0016
2149.00,-0.0013
2146.00,-0.0017
2143.00,-0.0016
2140.00,-0.0012
2137.00,-0.0016
2134.00,-0.0020
2131.00,-0.0018
2128.00,-0.0013
2125.00,-0.0008
2122.00,-0.0005
2119.00,-0.0005
2116.00,-0.0001
2113.00,0.0000
2110.00,0.0001
2107.00,-0.0000
2104.00,0.0000
2101.00,0.0001
2098.00,0.0000
2095.00,-0.0005
2092.00,-0.0003
2089.00,-0.0002
2086.00,-0.0001
2083.00,0.0002
2080.00,0.0002
2077.00,0.0002
2074.00,0.0001
2071.00,0.0002
2068.00,0.0000
2065.00,-0.0001
2062.00,-0.0002
2059.00,-0.0002
2056.00,-0.0001
2053.00,0.0006
2050.00,0.0009
2047.00,0.0001
2044.00,-0.0001
2041.00,0.0001
2038.00,0.0002
2035.00,-0.0001
2032.00,-0.0005
2029.00,-0.0006
2026.00,-0.0002
2023.00,-0.0005
2020.00,-0.0008
2017.00,-0.0006
2014.00,-0.0008
2011.00,-0.0004
2008.00,-0.0006
2005.00,-0.0011
2002.00,-0.0006
1999.00,-0.0002
1996.00,-0.0005
1993.00,-0.0003
1990.00,0.0001
1987.00,0.0005
1984.00,0.0009
1981.00,0.0015
1978.00,0.0001
1975.00,-0.0009
1972.00,-0.0009
1969.00,-0.0006
1966.00,-0.0006
1963.00,-0.0004
1960.00,-0.0006
1957.00,-0.0002
1954.00,0.0001
1951.00,0.0002
1948.00,0.0004
1945.00,0.0006
1942.00,0.0008
1939.00,0.0006
1936.00,0.0004
1933.00,0.0002
1930.00,-0.0001
1927.00,-0.0004
1924.00,-0.0004
1921.00,-0.0003
1918.00,-0.0003
1915.00,-0.0004
1912.00,-0.0004
1909.00,-0.0002
1906.00,-0.0003
1903.00,-0.0003
1900.00,-0.0002
1897.00,-0.0001
1894.00,0.0002
1891.00,0.0003
1888.00,0.0004
1885.00,0.0006
1882.00,0.0007
1879.00,0.0008
1876.00,0.0009
1873.00,0.0009
1870.00,0.0010
1867.00,0.0009
1864.00,0.0008
1861.00,0.0006
1858.00,0.0003
1855.00,0.0001
1852.00,-0.0000
1849.00,-0.0001
1846.00,-0.0001
1843.00,-0.0002
1840.00,-0.0002
1837.00,-0.0001
1834.00,-0.0000
1831.00,0.0000
1828.00,0.0002
1825.00,0.0004
1822.00,0.0005
1819.00,0.0004
1816.00,0.0004
1813.00,0.0008
1810.00,0.0011
1807.00,0.0013
1804.00,0.0014
1801.00,0.0014
1798.00,0.0013
1795.00,0.0011
1792.00,0.0009
1789.00,0.0007
1786.00,0.0006
1783.00,0.0006
1780.00,0.0006
1777.00,0.0007
1774.00,0.0007
1771.00,0.0007
1768.00,0.0008
1765.00,0.0008
1762.00,0.0010
1759.00,0.0011
1756.00,0.0013
1753.00,0.0015
1750.00,0.0017
1747.00,0.0018
1744.00,0.0020
1741.00,0.0020
1738.00,0.0020
1735.00,0.0020
1732.00,0.0018
1729.00,0.0017
1726.00,0.0015
1723.00,0.0015
1720.00,0.0014
1717.00,0.0013
1714.00,0.0012
1711.00,0.0012
1708.00,0.0011
1705.00,0.0011
1702.00,0.0010
1699.00,0.0009
1696.00,0.0008
1693.00,0.0007
1690.00,0.0007
1687.00,0.0007
1684.00,0.0009
1681.00,0.0010
1678.00,0.0011
1675.00,0.0012
1672.00,0.0014
1669.00,0.0015
1666.00,0.0016
1663.00,0.0016
1660.00,0.0015
1657.00,0.0014
1654.00,0.0012
1651.00,0.0011
1648.00,0.0011
1645.00,0.0010
1642.00,0.0009
1639.00,0.0009
1636.00,0.0009
1633.00,0.0009
1630.00,0.0009
1627.00,0.0010
1624.00,0.0010
1621.00,0.0011
1618.00,0.0013
1615.00,0.0016
1612.00,0.0021
1609.00,0.0035
1606.00,0.0066
1603.00,0.0107
1600.00,0.0117
1597.00,0.0084
1594.00,0.0052
1591.00,0.0036
1588.00,0.0033
1585.00,0.0043
1582.00,0.0046
1579.00,0.0031
1576.00,0.0018
1573.00,0.0013
1570.00,0.0011
1567.00,0.0010
1564.00,0.0009
1561.00,0.0008
1558.00,0.0009
1555.00,0.0010
1552.00,0.0012
1549.00,0.0014
1546.00,0.0016
1543.00,0.0016
1540.00,0.0015
1537.00,0.0015
1534.00,0.0013
1531.00,0.0011
1528.00,0.0010
1525.00,0.0009
1522.00,0.0010
1519.00,0.0010
1516.00,0.0011
1513.00,0.0012
1510.00,0.0014
1507.00,0.0016
1504.00,0.0024
1501.00,0.0040
1498.00,0.0090
1495.00,0.0229
1492.00,0.0313
1489.00,0.0192
1486.00,0.0096
1483.00,0.0057
1480.00,0.0038
1477.00,0.0031
1474.00,0.0027
1471.00,0.0027
1468.00,0.0029
1465.00,0.0033
1462.00,0.0041
1459.00,0.0064
1456.00,0.0168
1453.00,0.0293
1450.00,0.0299
1447.00,0.0223
1444.00,0.0174
1441.00,0.0134
1438.00,0.0105
1435.00,0.0070
1432.00,0.0051
1429.00,0.0037
1426.00,0.0030
1423.00,0.0026
1420.00,0.0024
1417.00,0.0022
1414.00,0.0021
1411.00,0.0020
1408.00,0.0020
1405.00,0.0020
1402.00,0.0020
1399.00,0.0020
1396.00,0.0022
1393.00,0.0026
1390.00,0.0032
1387.00,0.0039
1384.00,0.0046
1381.00,0.0052
1378.00,0.0058
1375.00,0.0064
1372.00,0.0066
1369.00,0.0065
1366.00,0.0065
1363.00,0.0062
1360.00,0.0060
1357.00,0.0057
1354.00,0.0055
1351.00,0.0055
1348.00,0.0054
1345.00,0.0052
1342.00,0.0050
1339.00,0.0048
1336.00,0.0048
1333.00,0.0052
1330.00,0.0056
1327.00,0.0057
1324.00,0.0055
1321.00,0.0053
1318.00,0.0052
1315.00,0.0054
1312.00,0.0056
1309.00,0.0055
1306.00,0.0052
1303.00,0.0050
1300.00,0.0047
1297.00,0.0045
1294.00,0.0044
1291.00,0.0043
1288.00,0.0042
1285.00,0.0040
1282.00,0.0040
1279.00,0.0039
1276.00,0.0036
1273.00,0.0033
1270.00,0.0031
1267.00,0.0029
1264.00,0.0028
1261.00,0.0028
1258.00,0.0027
1255.00,0.0028
1252.00,0.0028
1249.00,0.0029
1246.00,0.0029
1243.00,0.0029
1240.00,0.0029
1237.00,0.0028
1234.00,0.0028
1231.00,0.0028
1228.00,0.0029
1225.00,0.0029
1222.00,0.0030
1219.00,0.0030
1216.00,0.0031
1213.00,0.0032
1210.00,0.0035
1207.00,0.0038
1204.00,0.0041
1201.00,0.0046
1198.00,0.0049
1195.00,0.0050
1192.00,0.0051
1189.00,0.0052
1186.00,0.0058
1183.00,0.0068
1180.00,0.0069
1177.00,0.0056
1174.00,0.0044
1171.00,0.0040
1168.00,0.0038
1165.00,0.0040
1162.00,0.0044
1159.00,0.0054
1156.00,0.0068
1153.00,0.0069
1150.00,0.0052
1147.00,0.0039
1144.00,0.0033
1141.00,0.0029
1138.00,0.0027
1135.00,0.0027
1132.00,0.0027
1129.00,0.0027
1126.00,0.0028
1123.00,0.0028
1120.00,0.0030
1117.00,0.0034
1114.00,0.0038
1111.00,0.0039
1108.00,0.0038
1105.00,0.0038
1102.00,0.0039
1099.00,0.0040
1096.00,0.0043
1093.00,0.0045
1090.00,0.0047
1087.00,0.0051
1084.00,0.0057
1081.00,0.0065
1078.00,0.0072
1075.00,0.0083
1072.00,0.0095
1069.00,0.0101
1066.00,0.0096
1063.00,0.0085
1060.00,0.0074
1057.00,0.0066
1054.00,0.0060
1051.00,0.0054
1048.00,0.0051
1045.00,0.0050
1042.00,0.0050
1039.00,0.0055
1036.00,0.0076
1033.00,0.0119
1030.00,0.0167
1027.00,0.0177
1024.00,0.0144
1021.00,0.0113
1018.00,0.0094
1015.00,0.0081
1012.00,0.0072
1009.00,0.0070
1006.00,0.0072
1003.00,0.0076
1000.00,0.0067
997.00,0.0056
994.00,0.0053
991.00,0.0053
988.00,0.0057
985.00,0.0063
982.00,0.0068
979.00,0.0069
976.00,0.0065
973.00,0.0062
970.00,0.0065
967.00,0.0073
964.00,0.0076
961.00,0.0071
958.00,0.0061
955.00,0.0055
952.00,0.0054
949.00,0.0058
946.00,0.0061
943.00,0.0062
940.00,0.0058
937.00,0.0052
934.00,0.0047
931.00,0.0042
928.00,0.0040
925.00,0.0042
922.00,0.0045
919.00,0.0052
916.00,0.0064
913.00,0.0084
910.00,0.0109
907.00,0.0125
904.00,0.0118
901.00,0.0093
898.00,0.0065
895.00,0.0049
892.00,0.0042
889.00,0.0037
886.00,0.0034
883.00,0.0032
880.00,0.0030
877.00,0.0030
874.00,0.0029
871.00,0.0027
868.00,0.0027
865.00,0.0027
862.00,0.0027
859.00,0.0027
856.00,0.0028
853.00,0.0032
850.00,0.0040
847.00,0.0052
844.00,0.0061
841.00,0.0063
838.00,0.0057
835.00,0.0044
832.00,0.0033
829.00,0.0028
826.00,0.0024
823.00,0.0025
820.00,0.0026
817.00,0.0027
814.00,0.0027
811.00,0.0028
808.00,0.0028
805.00,0.0029
802.00,0.0031
799.00,0.0035
796.00,0.0041
793.00,0.0049
790.00,0.0059
787.00,0.0072
784.00,0.0088
781.00,0.0107
778.00,0.0138
775.00,0.0181
772.00,0.0237
769.00,0.0302
766.00,0.0368
763.00,0.0433
760.00,0.0498
757.00,0.0548
754.00,0.0561
751.00,0.0557
748.00,0.0553
745.00,0.0508
742.00,0.0402
739.00,0.0294
736.00,0.0210
733.00,0.0137
730.00,0.0091
727.00,0.0070
724.00,0.0063
721.00,0.0062
718.00,0.0068
715.00,0.0082
712.00,0.0124
709.00,0.0232
706.00,0.0453
703.00,0.0800
700.00,0.1233
697.00,0.1643
694.00,0.1721
691.00,0.1270
688.00,0.0816
685.00,0.0569
682.00,0.0434
679.00,0.0349
676.00,0.0295
673.00,0.0260
670.00,0.0237
667.00,0.0210
664.00,0.0186
661.00,0.0162
658.00,0.0141
655.00,0.0123
652.00,0.0109
649.00,0.0099
646.00,0.0089
643.00,0.0084
640.00,0.0083
637.00,0.0089
634.00,0.0096
631.00,0.0105
628.00,0.0109
625.00,0.0113
622.00,0.0121
619.00,0.0120
616.00,0.0107
613.00,0.0102
610.00,0.0096
607.00,0.0093
604.00,0.0092
601.00,0.0096
598.00,0.0100
595.00,0.0104
592.00,0.0108
589.00,0.0115
586.00,0.0120
583.00,0.0130
580.00,0.0145
577.00,0.0165
574.00,0.0190
571.00,0.0213
568.00,0.0238
565.00,0.0260
562.00,0.0285
559.00,0.0309
556.00,0.0335
553.00,0.0364
550.00,0.0398
547.00,0.0445
544.00,0.0504
541.00,0.0562
538.00,0.0590
535.00,0.0559
532.00,0.0478
529.00,0.0396
526.00,0.0324
523.00,0.0265
520.00,0.0224
517.00,0.0200
514.00,0.0184
511.00,0.0169
508.00,0.0153
505.00,0.0140
502.00,0.0129
499.00,0.0119
496.00,0.0116
493.00,0.0109
490.00,0.0103
487.00,0.0099
484.00,0.0093
481.00,0.0086
478.00,0.0084
475.00,0.0081
472.00,0.0081
469.00,0.0076
466.00,0.0076
463.00,0.0077
460.00,0.0080
457.00,0.0075
454.00,0.0072
451.00,0.0074
448.00,0.0076
445.00,0.0072
442.00,0.0072
439.00,0.0070
436.00,0.0065
433.00,0.0065
430.00,0.0069
427.00,0.0064
424.00,0.0060
421.00,0.0056
418.00,0.0065
415.00,0.0059
412.00,0.0059
409.00,0.0071
406.00,0.0071
403.00,0.0070
400.00,0.0068