File: FTIR/Olivia/2025_06_06_Crystalline_Felodipine_Scan3.csv
Created as New Dataset,Sample 625 By YargerLab Date Friday, June 06 2025
cm-1,A
4000.00,0.0091
3997.00,0.0091
3994.00,0.0092
3991.00,0.0092
3988.00,0.0092
3985.00,0.0092
3982.00,0.0092
3979.00,0.0092
3976.00,0.0092
3973.00,0.0092
3970.00,0.0092
3967.00,0.0092
3964.00,0.0092
3961.00,0.0092
3958.00,0.0092
3955.00,0.0092
3952.00,0.0091
3949.00,0.0091
3946.00,0.0091
3943.00,0.0091
3940.00,0.0091
3937.00,0.0091
3934.00,0.0091
3931.00,0.0091
3928.00,0.0091
3925.00,0.0093
3922.00,0.0093
3919.00,0.0093
3916.00,0.0093
3913.00,0.0092
3910.00,0.0092
3907.00,0.0091
3904.00,0.0089
3901.00,0.0088
3898.00,0.0088
3895.00,0.0088
3892.00,0.0089
3889.00,0.0088
3886.00,0.0088
3883.00,0.0087
3880.00,0.0087
3877.00,0.0087
3874.00,0.0088
3871.00,0.0087
3868.00,0.0087
3865.00,0.0087
3862.00,0.0087
3859.00,0.0088
3856.00,0.0087
3853.00,0.0087
3850.00,0.0086
3847.00,0.0087
3844.00,0.0086
3841.00,0.0087
3838.00,0.0087
3835.00,0.0085
3832.00,0.0086
3829.00,0.0086
3826.00,0.0087
3823.00,0.0086
3820.00,0.0086
3817.00,0.0086
3814.00,0.0087
3811.00,0.0087
3808.00,0.0087
3805.00,0.0087
3802.00,0.0086
3799.00,0.0086
3796.00,0.0086
3793.00,0.0086
3790.00,0.0087
3787.00,0.0087
3784.00,0.0087
3781.00,0.0087
3778.00,0.0087
3775.00,0.0087
3772.00,0.0087
3769.00,0.0086
3766.00,0.0086
3763.00,0.0086
3760.00,0.0086
3757.00,0.0086
3754.00,0.0086
3751.00,0.0085
3748.00,0.0084
3745.00,0.0084
3742.00,0.0084
3739.00,0.0084
3736.00,0.0084
3733.00,0.0084
3730.00,0.0084
3727.00,0.0084
3724.00,0.0084
3721.00,0.0084
3718.00,0.0084
3715.00,0.0083
3712.00,0.0083
3709.00,0.0082
3706.00,0.0082
3703.00,0.0083
3700.00,0.0083
3697.00,0.0083
3694.00,0.0083
3691.00,0.0082
3688.00,0.0081
3685.00,0.0079
3682.00,0.0079
3679.00,0.0077
3676.00,0.0074
3673.00,0.0072
3670.00,0.0072
3667.00,0.0071
3664.00,0.0071
3661.00,0.0071
3658.00,0.0070
3655.00,0.0071
3652.00,0.0070
3649.00,0.0070
3646.00,0.0070
3643.00,0.0072
3640.00,0.0074
3637.00,0.0073
3634.00,0.0075
3631.00,0.0076
3628.00,0.0076
3625.00,0.0077
3622.00,0.0077
3619.00,0.0078
3616.00,0.0077
3613.00,0.0078
3610.00,0.0077
3607.00,0.0078
3604.00,0.0079
3601.00,0.0080
3598.00,0.0078
3595.00,0.0078
3592.00,0.0078
3589.00,0.0078
3586.00,0.0078
3583.00,0.0078
3580.00,0.0079
3577.00,0.0079
3574.00,0.0079
3571.00,0.0079
3568.00,0.0078
3565.00,0.0078
3562.00,0.0079
3559.00,0.0080
3556.00,0.0079
3553.00,0.0079
3550.00,0.0079
3547.00,0.0079
3544.00,0.0079
3541.00,0.0079
3538.00,0.0079
3535.00,0.0079
3532.00,0.0079
3529.00,0.0078
3526.00,0.0079
3523.00,0.0079
3520.00,0.0078
3517.00,0.0078
3514.00,0.0079
3511.00,0.0078
3508.00,0.0078
3505.00,0.0078
3502.00,0.0077
3499.00,0.0078
3496.00,0.0078
3493.00,0.0078
3490.00,0.0077
3487.00,0.0077
3484.00,0.0077
3481.00,0.0077
3478.00,0.0076
3475.00,0.0076
3472.00,0.0076
3469.00,0.0077
3466.00,0.0076
3463.00,0.0076
3460.00,0.0075
3457.00,0.0075
3454.00,0.0076
3451.00,0.0076
3448.00,0.0076
3445.00,0.0076
3442.00,0.0077
3439.00,0.0077
3436.00,0.0079
3433.00,0.0079
3430.00,0.0080
3427.00,0.0081
3424.00,0.0083
3421.00,0.0084
3418.00,0.0086
3415.00,0.0089
3412.00,0.0093
3409.00,0.0098
3406.00,0.0105
3403.00,0.0112
3400.00,0.0123
3397.00,0.0138
3394.00,0.0154
3391.00,0.0178
3388.00,0.0213
3385.00,0.0259
3382.00,0.0326
3379.00,0.0418
3376.00,0.0527
3373.00,0.0626
3370.00,0.0678
3367.00,0.0677
3364.00,0.0638
3361.00,0.0580
3358.00,0.0519
3355.00,0.0459
3352.00,0.0406
3349.00,0.0362
3346.00,0.0327
3343.00,0.0298
3340.00,0.0275
3337.00,0.0256
3334.00,0.0240
3331.00,0.0228
3328.00,0.0217
3325.00,0.0209
3322.00,0.0202
3319.00,0.0196
3316.00,0.0191
3313.00,0.0187
3310.00,0.0182
3307.00,0.0179
3304.00,0.0175
3301.00,0.0171
3298.00,0.0166
3295.00,0.0160
3292.00,0.0156
3289.00,0.0152
3286.00,0.0146
3283.00,0.0142
3280.00,0.0138
3277.00,0.0134
3274.00,0.0131
3271.00,0.0129
3268.00,0.0128
3265.00,0.0126
3262.00,0.0125
3259.00,0.0124
3256.00,0.0123
3253.00,0.0124
3250.00,0.0124
3247.00,0.0124
3244.00,0.0125
3241.00,0.0126
3238.00,0.0127
3235.00,0.0125
3232.00,0.0126
3229.00,0.0125
3226.00,0.0123
3223.00,0.0120
3220.00,0.0117
3217.00,0.0115
3214.00,0.0112
3211.00,0.0110
3208.00,0.0109
3205.00,0.0107
3202.00,0.0105
3199.00,0.0104
3196.00,0.0103
3193.00,0.0102
3190.00,0.0102
3187.00,0.0101
3184.00,0.0100
3181.00,0.0100
3178.00,0.0099
3175.00,0.0099
3172.00,0.0099
3169.00,0.0099
3166.00,0.0098
3163.00,0.0098
3160.00,0.0098
3157.00,0.0098
3154.00,0.0098
3151.00,0.0099
3148.00,0.0100
3145.00,0.0100
3142.00,0.0101
3139.00,0.0101
3136.00,0.0101
3133.00,0.0102
3130.00,0.0103
3127.00,0.0104
3124.00,0.0106
3121.00,0.0107
3118.00,0.0109
3115.00,0.0112
3112.00,0.0115
3109.00,0.0118
3106.00,0.0121
3103.00,0.0124
3100.00,0.0126
3097.00,0.0126
3094.00,0.0125
3091.00,0.0124
3088.00,0.0121
3085.00,0.0120
3082.00,0.0120
3079.00,0.0122
3076.00,0.0124
3073.00,0.0130
3070.00,0.0134
3067.00,0.0128
3064.00,0.0119
3061.00,0.0113
3058.00,0.0111
3055.00,0.0112
3052.00,0.0113
3049.00,0.0110
3046.00,0.0107
3043.00,0.0105
3040.00,0.0104
3037.00,0.0105
3034.00,0.0105
3031.00,0.0107
3028.00,0.0109
3025.00,0.0112
3022.00,0.0117
3019.00,0.0120
3016.00,0.0121
3013.00,0.0121
3010.00,0.0121
3007.00,0.0122
3004.00,0.0123
3001.00,0.0127
2998.00,0.0137
2995.00,0.0154
2992.00,0.0166
2989.00,0.0170
2986.00,0.0164
2983.00,0.0145
2980.00,0.0138
2977.00,0.0135
2974.00,0.0117
2971.00,0.0103
2968.00,0.0108
2965.00,0.0121
2962.00,0.0140
2959.00,0.0162
2956.00,0.0183
2953.00,0.0206
2950.00,0.0224
2947.00,0.0223
2944.00,0.0212
2941.00,0.0200
2938.00,0.0194
2935.00,0.0187
2932.00,0.0173
2929.00,0.0157
2926.00,0.0145
2923.00,0.0136
2920.00,0.0127
2917.00,0.0121
2914.00,0.0119
2911.00,0.0120
2908.00,0.0122
2905.00,0.0123
2902.00,0.0124
2899.00,0.0122
2896.00,0.0119
2893.00,0.0115
2890.00,0.0111
2887.00,0.0112
2884.00,0.0111
2881.00,0.0112
2878.00,0.0114
2875.00,0.0114
2872.00,0.0112
2869.00,0.0108
2866.00,0.0105
2863.00,0.0104
2860.00,0.0103
2857.00,0.0104
2854.00,0.0105
2851.00,0.0105
2848.00,0.0107
2845.00,0.0112
2842.00,0.0117
2839.00,0.0120
2836.00,0.0119
2833.00,0.0116
2830.00,0.0113
2827.00,0.0110
2824.00,0.0108
2821.00,0.0108
2818.00,0.0108
2815.00,0.0110
2812.00,0.0111
2809.00,0.0113
2806.00,0.0114
2803.00,0.0113
2800.00,0.0113
2797.00,0.0111
2794.00,0.0108
2791.00,0.0104
2788.00,0.0101
2785.00,0.0099
2782.00,0.0097
2779.00,0.0096
2776.00,0.0095
2773.00,0.0094
2770.00,0.0093
2767.00,0.0093
2764.00,0.0094
2761.00,0.0093
2758.00,0.0093
2755.00,0.0092
2752.00,0.0092
2749.00,0.0091
2746.00,0.0091
2743.00,0.0090
2740.00,0.0089
2737.00,0.0089
2734.00,0.0089
2731.00,0.0089
2728.00,0.0088
2725.00,0.0087
2722.00,0.0086
2719.00,0.0086
2716.00,0.0085
2713.00,0.0085
2710.00,0.0085
2707.00,0.0086
2704.00,0.0087
2701.00,0.0087
2698.00,0.0087
2695.00,0.0087
2692.00,0.0086
2689.00,0.0086
2686.00,0.0085
2683.00,0.0085
2680.00,0.0084
2677.00,0.0084
2674.00,0.0083
2671.00,0.0083
2668.00,0.0083
2665.00,0.0085
2662.00,0.0086
2659.00,0.0087
2656.00,0.0088
2653.00,0.0088
2650.00,0.0088
2647.00,0.0088
2644.00,0.0088
2641.00,0.0088
2638.00,0.0089
2635.00,0.0089
2632.00,0.0089
2629.00,0.0089
2626.00,0.0090
2623.00,0.0090
2620.00,0.0090
2617.00,0.0091
2614.00,0.0091
2611.00,0.0091
2608.00,0.0091
2605.00,0.0091
2602.00,0.0091
2599.00,0.0091
2596.00,0.0090
2593.00,0.0089
2590.00,0.0089
2587.00,0.0087
2584.00,0.0085
2581.00,0.0084
2578.00,0.0084
2575.00,0.0083
2572.00,0.0083
2569.00,0.0083
2566.00,0.0082
2563.00,0.0082
2560.00,0.0083
2557.00,0.0083
2554.00,0.0083
2551.00,0.0083
2548.00,0.0082
2545.00,0.0081
2542.00,0.0079
2539.00,0.0078
2536.00,0.0078
2533.00,0.0078
2530.00,0.0078
2527.00,0.0078
2524.00,0.0079
2521.00,0.0080
2518.00,0.0081
2515.00,0.0082
2512.00,0.0083
2509.00,0.0082
2506.00,0.0081
2503.00,0.0081
2500.00,0.0080
2497.00,0.0080
2494.00,0.0079
2491.00,0.0080
2488.00,0.0080
2485.00,0.0081
2482.00,0.0081
2479.00,0.0081
2476.00,0.0080
2473.00,0.0080
2470.00,0.0080
2467.00,0.0081
2464.00,0.0080
2461.00,0.0080
2458.00,0.0081
2455.00,0.0081
2452.00,0.0079
2449.00,0.0078
2446.00,0.0077
2443.00,0.0076
2440.00,0.0076
2437.00,0.0076
2434.00,0.0076
2431.00,0.0076
2428.00,0.0076
2425.00,0.0076
2422.00,0.0076
2419.00,0.0075
2416.00,0.0075
2413.00,0.0075
2410.00,0.0075
2407.00,0.0073
2404.00,0.0072
2401.00,0.0070
2398.00,0.0070
2395.00,0.0070
2392.00,0.0070
2389.00,0.0070
2386.00,0.0069
2383.00,0.0067
2380.00,0.0067
2377.00,0.0067
2374.00,0.0067
2371.00,0.0066
2368.00,0.0065
2365.00,0.0066
2362.00,0.0067
2359.00,0.0067
2356.00,0.0066
2353.00,0.0066
2350.00,0.0067
2347.00,0.0069
2344.00,0.0068
2341.00,0.0068
2338.00,0.0069
2335.00,0.0069
2332.00,0.0069
2329.00,0.0072
2326.00,0.0082
2323.00,0.0080
2320.00,0.0074
2317.00,0.0071
2314.00,0.0071
2311.00,0.0069
2308.00,0.0070
2305.00,0.0071
2302.00,0.0071
2299.00,0.0072
2296.00,0.0074
2293.00,0.0077
2290.00,0.0079
2287.00,0.0080
2284.00,0.0079
2281.00,0.0076
2278.00,0.0075
2275.00,0.0073
2272.00,0.0072
2269.00,0.0071
2266.00,0.0070
2263.00,0.0070
2260.00,0.0070
2257.00,0.0070
2254.00,0.0067
2251.00,0.0067
2248.00,0.0067
2245.00,0.0066
2242.00,0.0068
2239.00,0.0069
2236.00,0.0067
2233.00,0.0064
2230.00,0.0062
2227.00,0.0064
2224.00,0.0065
2221.00,0.0063
2218.00,0.0061
2215.00,0.0061
2212.00,0.0059
2209.00,0.0058
2206.00,0.0056
2203.00,0.0056
2200.00,0.0054
2197.00,0.0052
2194.00,0.0057
2191.00,0.0057
2188.00,0.0056
2185.00,0.0055
2182.00,0.0051
2179.00,0.0053
2176.00,0.0051
2173.00,0.0055
2170.00,0.0064
2167.00,0.0070
2164.00,0.0075
2161.00,0.0057
2158.00,0.0026
2155.00,0.0037
2152.00,0.0043
2149.00,0.0045
2146.00,0.0041
2143.00,0.0042
2140.00,0.0043
2137.00,0.0039
2134.00,0.0036
2131.00,0.0040
2128.00,0.0045
2125.00,0.0046
2122.00,0.0047
2119.00,0.0051
2116.00,0.0054
2113.00,0.0055
2110.00,0.0056
2107.00,0.0057
2104.00,0.0059
2101.00,0.0059
2098.00,0.0057
2095.00,0.0052
2092.00,0.0054
2089.00,0.0057
2086.00,0.0058
2083.00,0.0058
2080.00,0.0058
2077.00,0.0058
2074.00,0.0059
2071.00,0.0058
2068.00,0.0055
2065.00,0.0055
2062.00,0.0055
2059.00,0.0055
2056.00,0.0054
2053.00,0.0061
2050.00,0.0059
2047.00,0.0049
2044.00,0.0047
2041.00,0.0047
2038.00,0.0047
2035.00,0.0044
2032.00,0.0041
2029.00,0.0036
2026.00,0.0039
2023.00,0.0040
2020.00,0.0038
2017.00,0.0042
2014.00,0.0043
2011.00,0.0048
2008.00,0.0042
2005.00,0.0038
2002.00,0.0044
1999.00,0.0048
1996.00,0.0049
1993.00,0.0048
1990.00,0.0051
1987.00,0.0055
1984.00,0.0059
1981.00,0.0066
1978.00,0.0048
1975.00,0.0043
1972.00,0.0037
1969.00,0.0040
1966.00,0.0042
1963.00,0.0041
1960.00,0.0036
1957.00,0.0035
1954.00,0.0037
1951.00,0.0040
1948.00,0.0041
1945.00,0.0040
1942.00,0.0045
1939.00,0.0045
1936.00,0.0044
1933.00,0.0045
1930.00,0.0046
1927.00,0.0048
1924.00,0.0051
1921.00,0.0055
1918.00,0.0060
1915.00,0.0062
1912.00,0.0059
1909.00,0.0055
1906.00,0.0053
1903.00,0.0050
1900.00,0.0048
1897.00,0.0047
1894.00,0.0047
1891.00,0.0048
1888.00,0.0049
1885.00,0.0049
1882.00,0.0049
1879.00,0.0049
1876.00,0.0050
1873.00,0.0049
1870.00,0.0048
1867.00,0.0049
1864.00,0.0048
1861.00,0.0050
1858.00,0.0054
1855.00,0.0058
1852.00,0.0058
1849.00,0.0052
1846.00,0.0048
1843.00,0.0049
1840.00,0.0047
1837.00,0.0047
1834.00,0.0046
1831.00,0.0046
1828.00,0.0045
1825.00,0.0045
1822.00,0.0045
1819.00,0.0043
1816.00,0.0043
1813.00,0.0045
1810.00,0.0048
1807.00,0.0049
1804.00,0.0049
1801.00,0.0051
1798.00,0.0053
1795.00,0.0056
1792.00,0.0058
1789.00,0.0056
1786.00,0.0054
1783.00,0.0056
1780.00,0.0056
1777.00,0.0055
1774.00,0.0057
1771.00,0.0059
1768.00,0.0059
1765.00,0.0061
1762.00,0.0065
1759.00,0.0068
1756.00,0.0071
1753.00,0.0069
1750.00,0.0075
1747.00,0.0077
1744.00,0.0079
1741.00,0.0081
1738.00,0.0085
1735.00,0.0091
1732.00,0.0098
1729.00,0.0102
1726.00,0.0109
1723.00,0.0122
1720.00,0.0136
1717.00,0.0173
1714.00,0.0230
1711.00,0.0321
1708.00,0.0479
1705.00,0.0778
1702.00,0.1093
1699.00,0.1515
1696.00,0.1661
1693.00,0.1712
1690.00,0.1795
1687.00,0.1826
1684.00,0.1600
1681.00,0.1300
1678.00,0.1035
1675.00,0.0798
1672.00,0.0652
1669.00,0.0553
1666.00,0.0489
1663.00,0.0445
1660.00,0.0414
1657.00,0.0407
1654.00,0.0439
1651.00,0.0538
1648.00,0.0662
1645.00,0.0840
1642.00,0.0848
1639.00,0.0740
1636.00,0.0632
1633.00,0.0604
1630.00,0.0670
1627.00,0.0817
1624.00,0.0974
1621.00,0.1084
1618.00,0.1077
1615.00,0.0954
1612.00,0.0825
1609.00,0.0696
1606.00,0.0590
1603.00,0.0508
1600.00,0.0441
1597.00,0.0388
1594.00,0.0346
1591.00,0.0316
1588.00,0.0291
1585.00,0.0277
1582.00,0.0285
1579.00,0.0272
1576.00,0.0232
1573.00,0.0201
1570.00,0.0185
1567.00,0.0176
1564.00,0.0191
1561.00,0.0203
1558.00,0.0177
1555.00,0.0157
1552.00,0.0148
1549.00,0.0144
1546.00,0.0141
1543.00,0.0140
1540.00,0.0143
1537.00,0.0146
1534.00,0.0154
1531.00,0.0165
1528.00,0.0173
1525.00,0.0188
1522.00,0.0210
1519.00,0.0244
1516.00,0.0294
1513.00,0.0360
1510.00,0.0453
1507.00,0.0634
1504.00,0.0926
1501.00,0.1232
1498.00,0.1603
1495.00,0.1848
1492.00,0.1844
1489.00,0.1648
1486.00,0.1408
1483.00,0.1204
1480.00,0.1029
1477.00,0.0904
1474.00,0.0802
1471.00,0.0721
1468.00,0.0687
1465.00,0.0678
1462.00,0.0698
1459.00,0.0693
1456.00,0.0638
1453.00,0.0625
1450.00,0.0678
1447.00,0.0878
1444.00,0.0895
1441.00,0.0745
1438.00,0.0707
1435.00,0.0830
1432.00,0.0972
1429.00,0.0918
1426.00,0.0792
1423.00,0.0756
1420.00,0.1050
1417.00,0.1241
1414.00,0.0958
1411.00,0.0715
1408.00,0.0569
1405.00,0.0478
1402.00,0.0416
1399.00,0.0380
1396.00,0.0363
1393.00,0.0370
1390.00,0.0411
1387.00,0.0538
1384.00,0.0738
1381.00,0.0869
1378.00,0.0784
1375.00,0.0584
1372.00,0.0455
1369.00,0.0446
1366.00,0.0531
1363.00,0.0560
1360.00,0.0399
1357.00,0.0278
1354.00,0.0219
1351.00,0.0190
1348.00,0.0176
1345.00,0.0170
1342.00,0.0167
1339.00,0.0167
1336.00,0.0171
1333.00,0.0175
1330.00,0.0183
1327.00,0.0195
1324.00,0.0218
1321.00,0.0266
1318.00,0.0343
1315.00,0.0436
1312.00,0.0617
1309.00,0.0923
1306.00,0.1037
1303.00,0.0851
1300.00,0.0639
1297.00,0.0541
1294.00,0.0559
1291.00,0.0652
1288.00,0.0801
1285.00,0.1037
1282.00,0.1385
1279.00,0.1778
1276.00,0.1971
1273.00,0.1819
1270.00,0.1497
1267.00,0.1181
1264.00,0.0927
1261.00,0.0730
1258.00,0.0580
1255.00,0.0481
1252.00,0.0449
1249.00,0.0458
1246.00,0.0406
1243.00,0.0342
1240.00,0.0305
1237.00,0.0288
1234.00,0.0288
1231.00,0.0306
1228.00,0.0340
1225.00,0.0384
1222.00,0.0445
1219.00,0.0538
1216.00,0.0661
1213.00,0.0871
1210.00,0.1260
1207.00,0.1714
1204.00,0.1967
1201.00,0.1928
1198.00,0.1700
1195.00,0.1465
1192.00,0.1367
1189.00,0.1364
1186.00,0.1297
1183.00,0.1138
1180.00,0.0979
1177.00,0.0917
1174.00,0.0982
1171.00,0.0980
1168.00,0.0767
1165.00,0.0561
1162.00,0.0446
1159.00,0.0405
1156.00,0.0453
1153.00,0.0509
1150.00,0.0519
1147.00,0.0685
1144.00,0.0985
1141.00,0.1235
1138.00,0.1352
1135.00,0.1323
1132.00,0.1157
1129.00,0.0967
1126.00,0.0862
1123.00,0.0911
1120.00,0.1177
1117.00,0.1580
1114.00,0.1735
1111.00,0.1567
1108.00,0.1457
1105.00,0.1610
1102.00,0.1908
1099.00,0.2305
1096.00,0.2438
1093.00,0.2247
1090.00,0.1938
1087.00,0.1634
1084.00,0.1378
1081.00,0.1177
1078.00,0.1021
1075.00,0.0894
1072.00,0.0804
1069.00,0.0782
1066.00,0.0876
1063.00,0.1108
1060.00,0.1312
1057.00,0.1291
1054.00,0.1139
1051.00,0.1004
1048.00,0.0963
1045.00,0.1088
1042.00,0.1256
1039.00,0.1209
1036.00,0.1104
1033.00,0.1091
1030.00,0.1180
1027.00,0.1338
1024.00,0.1447
1021.00,0.1416
1018.00,0.1276
1015.00,0.1113
1012.00,0.0979
1009.00,0.0891
1006.00,0.0839
1003.00,0.0775
1000.00,0.0697
997.00,0.0639
994.00,0.0600
991.00,0.0574
988.00,0.0560
985.00,0.0561
982.00,0.0578
979.00,0.0607
976.00,0.0625
973.00,0.0605
970.00,0.0549
967.00,0.0489
964.00,0.0451
961.00,0.0451
958.00,0.0468
955.00,0.0468
952.00,0.0424
949.00,0.0384
946.00,0.0355
943.00,0.0335
940.00,0.0322
937.00,0.0312
934.00,0.0303
931.00,0.0296
928.00,0.0290
925.00,0.0284
922.00,0.0278
919.00,0.0272
916.00,0.0267
913.00,0.0263
910.00,0.0258
907.00,0.0255
904.00,0.0254
901.00,0.0256
898.00,0.0257
895.00,0.0246
892.00,0.0238
889.00,0.0233
886.00,0.0231
883.00,0.0233
880.00,0.0246
877.00,0.0248
874.00,0.0245
871.00,0.0271
868.00,0.0395
865.00,0.0682
862.00,0.0772
859.00,0.0635
856.00,0.0618
853.00,0.0509
850.00,0.0378
847.00,0.0311
844.00,0.0280
841.00,0.0262
838.00,0.0246
835.00,0.0232
832.00,0.0227
829.00,0.0240
826.00,0.0296
823.00,0.0336
820.00,0.0292
817.00,0.0262
814.00,0.0255
811.00,0.0274
808.00,0.0362
805.00,0.0667
802.00,0.1222
799.00,0.1140
796.00,0.0688
793.00,0.0470
790.00,0.0414
787.00,0.0353
784.00,0.0299
781.00,0.0305
778.00,0.0369
775.00,0.0525
772.00,0.0844
769.00,0.0945
766.00,0.0678
763.00,0.0462
760.00,0.0370
757.00,0.0336
754.00,0.0330
751.00,0.0349
748.00,0.0418
745.00,0.0593
742.00,0.0789
739.00,0.0714
736.00,0.1092
733.00,0.1437
730.00,0.1366
727.00,0.1747
724.00,0.1567
721.00,0.0993
718.00,0.0666
715.00,0.0509
712.00,0.0426
709.00,0.0371
706.00,0.0330
703.00,0.0300
700.00,0.0280
697.00,0.0267
694.00,0.0260
691.00,0.0266
688.00,0.0305
685.00,0.0323
682.00,0.0308
679.00,0.0319
676.00,0.0389
673.00,0.0592
670.00,0.0846
667.00,0.0719
664.00,0.0494
661.00,0.0367
658.00,0.0317
655.00,0.0296
652.00,0.0290
649.00,0.0291
646.00,0.0298
643.00,0.0307
640.00,0.0322
637.00,0.0345
634.00,0.0373
631.00,0.0412
628.00,0.0465
625.00,0.0539
622.00,0.0633
619.00,0.0740
616.00,0.0834
613.00,0.0854
610.00,0.0756
607.00,0.0585
604.00,0.0446
601.00,0.0397
598.00,0.0434
595.00,0.0526
592.00,0.0571
589.00,0.0494
586.00,0.0468
583.00,0.0510
580.00,0.0588
577.00,0.0690
574.00,0.0811
571.00,0.0925
568.00,0.1042
565.00,0.1118
562.00,0.1140
559.00,0.1090
556.00,0.0993
553.00,0.0886
550.00,0.0789
547.00,0.0714
544.00,0.0681
541.00,0.0768
538.00,0.0803
535.00,0.0658
532.00,0.0542
529.00,0.0474
526.00,0.0425
523.00,0.0391
520.00,0.0364
517.00,0.0339
514.00,0.0321
511.00,0.0303
508.00,0.0289
505.00,0.0278
502.00,0.0279
499.00,0.0266
496.00,0.0256
493.00,0.0251
490.00,0.0242
487.00,0.0237
484.00,0.0238
481.00,0.0243
478.00,0.0241
475.00,0.0246
472.00,0.0316
469.00,0.0409
466.00,0.0443
463.00,0.0535
460.00,0.0689
457.00,0.0605
454.00,0.0425
451.00,0.0313
448.00,0.0261
445.00,0.0238
442.00,0.0226
439.00,0.0218
436.00,0.0218
433.00,0.0217
430.00,0.0219
427.00,0.0238
424.00,0.0268
421.00,0.0313
418.00,0.0374
415.00,0.0378
412.00,0.0353
409.00,0.0316
406.00,0.0302
403.00,0.0315
400.00,0.0348