File: FTIR/Olivia/2025_08_12_Polystyrene_film_scan2.csv
Created as New Dataset,Sample 039 By YargerLab Date Tuesday, August 12 2025
cm-1,A
4000.00,0.0000
3997.00,0.0000
3994.00,-0.0000
3991.00,-0.0001
3988.00,-0.0000
3985.00,-0.0000
3982.00,-0.0001
3979.00,-0.0001
3976.00,-0.0000
3973.00,-0.0000
3970.00,-0.0000
3967.00,-0.0001
3964.00,-0.0001
3961.00,-0.0001
3958.00,-0.0000
3955.00,-0.0000
3952.00,-0.0001
3949.00,-0.0001
3946.00,-0.0001
3943.00,-0.0001
3940.00,-0.0001
3937.00,-0.0001
3934.00,-0.0000
3931.00,-0.0001
3928.00,-0.0001
3925.00,-0.0001
3922.00,-0.0001
3919.00,-0.0001
3916.00,-0.0001
3913.00,-0.0001
3910.00,-0.0000
3907.00,-0.0001
3904.00,-0.0002
3901.00,-0.0002
3898.00,-0.0002
3895.00,-0.0001
3892.00,-0.0001
3889.00,-0.0001
3886.00,-0.0002
3883.00,-0.0003
3880.00,-0.0002
3877.00,-0.0002
3874.00,-0.0002
3871.00,-0.0003
3868.00,-0.0002
3865.00,-0.0002
3862.00,-0.0002
3859.00,-0.0002
3856.00,-0.0003
3853.00,-0.0003
3850.00,-0.0003
3847.00,-0.0001
3844.00,-0.0001
3841.00,-0.0001
3838.00,-0.0001
3835.00,-0.0002
3832.00,-0.0001
3829.00,-0.0001
3826.00,-0.0000
3823.00,-0.0001
3820.00,-0.0001
3817.00,-0.0002
3814.00,-0.0001
3811.00,-0.0001
3808.00,-0.0001
3805.00,-0.0001
3802.00,-0.0002
3799.00,-0.0002
3796.00,-0.0001
3793.00,-0.0000
3790.00,-0.0000
3787.00,-0.0000
3784.00,-0.0000
3781.00,-0.0000
3778.00,-0.0000
3775.00,-0.0000
3772.00,-0.0000
3769.00,-0.0000
3766.00,-0.0000
3763.00,-0.0000
3760.00,-0.0000
3757.00,-0.0001
3754.00,-0.0001
3751.00,-0.0002
3748.00,-0.0003
3745.00,-0.0004
3742.00,-0.0003
3739.00,-0.0002
3736.00,-0.0002
3733.00,-0.0003
3730.00,-0.0002
3727.00,-0.0002
3724.00,-0.0002
3721.00,-0.0001
3718.00,-0.0001
3715.00,-0.0001
3712.00,-0.0002
3709.00,-0.0003
3706.00,-0.0002
3703.00,-0.0001
3700.00,-0.0001
3697.00,-0.0001
3694.00,-0.0002
3691.00,-0.0002
3688.00,-0.0002
3685.00,-0.0002
3682.00,-0.0001
3679.00,-0.0002
3676.00,-0.0003
3673.00,-0.0004
3670.00,-0.0003
3667.00,-0.0002
3664.00,-0.0001
3661.00,-0.0001
3658.00,-0.0002
3655.00,-0.0002
3652.00,-0.0004
3649.00,-0.0004
3646.00,-0.0004
3643.00,-0.0003
3640.00,-0.0002
3637.00,-0.0002
3634.00,-0.0002
3631.00,-0.0003
3628.00,-0.0003
3625.00,-0.0003
3622.00,-0.0003
3619.00,-0.0003
3616.00,-0.0003
3613.00,-0.0003
3610.00,-0.0003
3607.00,-0.0002
3604.00,-0.0002
3601.00,-0.0002
3598.00,-0.0002
3595.00,-0.0002
3592.00,-0.0002
3589.00,-0.0003
3586.00,-0.0003
3583.00,-0.0002
3580.00,-0.0001
3577.00,-0.0001
3574.00,-0.0002
3571.00,-0.0001
3568.00,-0.0002
3565.00,-0.0002
3562.00,-0.0002
3559.00,-0.0001
3556.00,-0.0001
3553.00,-0.0001
3550.00,-0.0001
3547.00,-0.0001
3544.00,-0.0001
3541.00,-0.0001
3538.00,-0.0001
3535.00,-0.0001
3532.00,-0.0000
3529.00,-0.0000
3526.00,-0.0000
3523.00,-0.0000
3520.00,-0.0000
3517.00,0.0000
3514.00,0.0000
3511.00,-0.0000
3508.00,-0.0001
3505.00,-0.0001
3502.00,-0.0000
3499.00,-0.0000
3496.00,-0.0000
3493.00,-0.0000
3490.00,-0.0000
3487.00,-0.0000
3484.00,-0.0000
3481.00,0.0000
3478.00,-0.0000
3475.00,0.0000
3472.00,0.0000
3469.00,0.0001
3466.00,0.0001
3463.00,0.0000
3460.00,0.0000
3457.00,0.0000
3454.00,0.0000
3451.00,0.0001
3448.00,0.0000
3445.00,0.0000
3442.00,0.0000
3439.00,0.0001
3436.00,0.0001
3433.00,0.0001
3430.00,0.0001
3427.00,0.0001
3424.00,0.0001
3421.00,0.0000
3418.00,0.0001
3415.00,0.0001
3412.00,0.0001
3409.00,0.0001
3406.00,0.0001
3403.00,0.0001
3400.00,0.0001
3397.00,0.0001
3394.00,0.0001
3391.00,0.0001
3388.00,0.0001
3385.00,0.0001
3382.00,0.0001
3379.00,0.0001
3376.00,0.0001
3373.00,0.0001
3370.00,0.0001
3367.00,0.0002
3364.00,0.0002
3361.00,0.0001
3358.00,0.0001
3355.00,0.0001
3352.00,0.0001
3349.00,0.0001
3346.00,0.0001
3343.00,0.0002
3340.00,0.0002
3337.00,0.0002
3334.00,0.0001
3331.00,0.0002
3328.00,0.0002
3325.00,0.0002
3322.00,0.0002
3319.00,0.0002
3316.00,0.0002
3313.00,0.0002
3310.00,0.0002
3307.00,0.0002
3304.00,0.0002
3301.00,0.0002
3298.00,0.0003
3295.00,0.0003
3292.00,0.0002
3289.00,0.0002
3286.00,0.0002
3283.00,0.0002
3280.00,0.0002
3277.00,0.0002
3274.00,0.0002
3271.00,0.0002
3268.00,0.0002
3265.00,0.0002
3262.00,0.0002
3259.00,0.0002
3256.00,0.0002
3253.00,0.0002
3250.00,0.0002
3247.00,0.0002
3244.00,0.0002
3241.00,0.0002
3238.00,0.0002
3235.00,0.0002
3232.00,0.0002
3229.00,0.0001
3226.00,0.0001
3223.00,0.0001
3220.00,0.0001
3217.00,0.0001
3214.00,0.0002
3211.00,0.0002
3208.00,0.0002
3205.00,0.0002
3202.00,0.0002
3199.00,0.0001
3196.00,0.0001
3193.00,0.0002
3190.00,0.0002
3187.00,0.0001
3184.00,0.0001
3181.00,0.0001
3178.00,0.0002
3175.00,0.0002
3172.00,0.0001
3169.00,0.0001
3166.00,0.0001
3163.00,0.0002
3160.00,0.0001
3157.00,0.0001
3154.00,0.0001
3151.00,0.0001
3148.00,0.0002
3145.00,0.0001
3142.00,0.0001
3139.00,0.0002
3136.00,0.0002
3133.00,0.0001
3130.00,0.0001
3127.00,0.0001
3124.00,0.0002
3121.00,0.0001
3118.00,0.0002
3115.00,0.0002
3112.00,0.0004
3109.00,0.0005
3106.00,0.0006
3103.00,0.0007
3100.00,0.0008
3097.00,0.0007
3094.00,0.0007
3091.00,0.0009
3088.00,0.0013
3085.00,0.0019
3082.00,0.0022
3079.00,0.0020
3076.00,0.0016
3073.00,0.0015
3070.00,0.0016
3067.00,0.0020
3064.00,0.0025
3061.00,0.0029
3058.00,0.0030
3055.00,0.0026
3052.00,0.0021
3049.00,0.0017
3046.00,0.0015
3043.00,0.0015
3040.00,0.0018
3037.00,0.0022
3034.00,0.0029
3031.00,0.0040
3028.00,0.0054
3025.00,0.0062
3022.00,0.0056
3019.00,0.0039
3016.00,0.0025
3013.00,0.0017
3010.00,0.0013
3007.00,0.0013
3004.00,0.0014
3001.00,0.0015
2998.00,0.0013
2995.00,0.0009
2992.00,0.0006
2989.00,0.0006
2986.00,0.0005
2983.00,0.0006
2980.00,0.0006
2977.00,0.0007
2974.00,0.0007
2971.00,0.0008
2968.00,0.0009
2965.00,0.0011
2962.00,0.0012
2959.00,0.0014
2956.00,0.0017
2953.00,0.0019
2950.00,0.0022
2947.00,0.0027
2944.00,0.0032
2941.00,0.0037
2938.00,0.0044
2935.00,0.0053
2932.00,0.0062
2929.00,0.0070
2926.00,0.0076
2923.00,0.0079
2920.00,0.0079
2917.00,0.0077
2914.00,0.0072
2911.00,0.0066
2908.00,0.0060
2905.00,0.0054
2902.00,0.0047
2899.00,0.0040
2896.00,0.0034
2893.00,0.0031
2890.00,0.0028
2887.00,0.0025
2884.00,0.0023
2881.00,0.0021
2878.00,0.0020
2875.00,0.0019
2872.00,0.0018
2869.00,0.0017
2866.00,0.0018
2863.00,0.0020
2860.00,0.0023
2857.00,0.0026
2854.00,0.0031
2851.00,0.0034
2848.00,0.0034
2845.00,0.0030
2842.00,0.0025
2839.00,0.0018
2836.00,0.0012
2833.00,0.0008
2830.00,0.0006
2827.00,0.0005
2824.00,0.0004
2821.00,0.0004
2818.00,0.0004
2815.00,0.0004
2812.00,0.0003
2809.00,0.0003
2806.00,0.0003
2803.00,0.0003
2800.00,0.0002
2797.00,0.0002
2794.00,0.0002
2791.00,0.0002
2788.00,0.0002
2785.00,0.0001
2782.00,0.0001
2779.00,0.0002
2776.00,0.0002
2773.00,0.0001
2770.00,0.0001
2767.00,0.0001
2764.00,0.0001
2761.00,0.0001
2758.00,0.0001
2755.00,0.0001
2752.00,0.0001
2749.00,0.0001
2746.00,0.0001
2743.00,0.0001
2740.00,0.0000
2737.00,0.0001
2734.00,0.0001
2731.00,0.0001
2728.00,0.0001
2725.00,0.0001
2722.00,0.0001
2719.00,0.0001
2716.00,0.0001
2713.00,0.0001
2710.00,0.0001
2707.00,0.0001
2704.00,0.0001
2701.00,0.0000
2698.00,0.0001
2695.00,0.0001
2692.00,0.0001
2689.00,0.0001
2686.00,0.0001
2683.00,0.0001
2680.00,0.0001
2677.00,0.0001
2674.00,0.0001
2671.00,0.0001
2668.00,0.0001
2665.00,0.0002
2662.00,0.0004
2659.00,0.0004
2656.00,0.0005
2653.00,0.0006
2650.00,0.0005
2647.00,0.0005
2644.00,0.0006
2641.00,0.0006
2638.00,0.0005
2635.00,0.0005
2632.00,0.0005
2629.00,0.0005
2626.00,0.0005
2623.00,0.0004
2620.00,0.0004
2617.00,0.0004
2614.00,0.0004
2611.00,0.0004
2608.00,0.0004
2605.00,0.0004
2602.00,0.0003
2599.00,0.0003
2596.00,0.0002
2593.00,0.0002
2590.00,0.0003
2587.00,0.0002
2584.00,0.0002
2581.00,0.0002
2578.00,0.0002
2575.00,0.0001
2572.00,0.0001
2569.00,0.0001
2566.00,0.0000
2563.00,0.0001
2560.00,0.0001
2557.00,0.0000
2554.00,0.0001
2551.00,0.0000
2548.00,-0.0000
2545.00,0.0000
2542.00,0.0001
2539.00,0.0001
2536.00,-0.0000
2533.00,0.0000
2530.00,-0.0000
2527.00,-0.0001
2524.00,-0.0000
2521.00,0.0000
2518.00,-0.0000
2515.00,-0.0000
2512.00,-0.0000
2509.00,-0.0001
2506.00,-0.0000
2503.00,0.0000
2500.00,-0.0001
2497.00,-0.0000
2494.00,-0.0000
2491.00,-0.0001
2488.00,-0.0001
2485.00,-0.0001
2482.00,-0.0001
2479.00,-0.0001
2476.00,-0.0001
2473.00,-0.0002
2470.00,-0.0002
2467.00,-0.0001
2464.00,-0.0001
2461.00,-0.0001
2458.00,0.0000
2455.00,0.0001
2452.00,-0.0000
2449.00,-0.0001
2446.00,-0.0000
2443.00,-0.0000
2440.00,-0.0002
2437.00,-0.0002
2434.00,-0.0002
2431.00,-0.0002
2428.00,-0.0003
2425.00,-0.0003
2422.00,-0.0003
2419.00,-0.0003
2416.00,-0.0004
2413.00,-0.0002
2410.00,-0.0003
2407.00,-0.0004
2404.00,-0.0005
2401.00,-0.0005
2398.00,-0.0005
2395.00,-0.0004
2392.00,-0.0004
2389.00,-0.0005
2386.00,-0.0006
2383.00,-0.0006
2380.00,-0.0007
2377.00,-0.0006
2374.00,-0.0007
2371.00,-0.0007
2368.00,-0.0007
2365.00,-0.0007
2362.00,-0.0006
2359.00,-0.0006
2356.00,-0.0007
2353.00,-0.0007
2350.00,-0.0005
2347.00,-0.0004
2344.00,-0.0003
2341.00,-0.0003
2338.00,-0.0002
2335.00,-0.0002
2332.00,-0.0003
2329.00,-0.0001
2326.00,0.0008
2323.00,0.0008
2320.00,0.0004
2317.00,0.0003
2314.00,0.0002
2311.00,0.0001
2308.00,0.0002
2305.00,0.0002
2302.00,0.0002
2299.00,0.0003
2296.00,0.0004
2293.00,0.0006
2290.00,0.0008
2287.00,0.0009
2284.00,0.0009
2281.00,0.0007
2278.00,0.0004
2275.00,0.0005
2272.00,0.0005
2269.00,0.0003
2266.00,0.0001
2263.00,0.0002
2260.00,0.0002
2257.00,0.0002
2254.00,0.0001
2251.00,0.0002
2248.00,0.0001
2245.00,0.0001
2242.00,0.0001
2239.00,0.0000
2236.00,0.0000
2233.00,0.0000
2230.00,-0.0000
2227.00,0.0001
2224.00,0.0000
2221.00,0.0001
2218.00,0.0000
2215.00,-0.0000
2212.00,-0.0001
2209.00,-0.0001
2206.00,-0.0001
2203.00,0.0001
2200.00,0.0003
2197.00,0.0001
2194.00,0.0002
2191.00,0.0001
2188.00,0.0001
2185.00,0.0001
2182.00,-0.0005
2179.00,-0.0004
2176.00,-0.0007
2173.00,-0.0003
2170.00,0.0003
2167.00,0.0008
2164.00,0.0009
2161.00,-0.0005
2158.00,-0.0029
2155.00,-0.0023
2152.00,-0.0019
2149.00,-0.0017
2146.00,-0.0016
2143.00,-0.0017
2140.00,-0.0017
2137.00,-0.0019
2134.00,-0.0023
2131.00,-0.0019
2128.00,-0.0014
2125.00,-0.0010
2122.00,-0.0007
2119.00,-0.0007
2116.00,-0.0005
2113.00,-0.0003
2110.00,-0.0002
2107.00,-0.0004
2104.00,-0.0004
2101.00,-0.0004
2098.00,-0.0004
2095.00,-0.0008
2092.00,-0.0006
2089.00,-0.0003
2086.00,-0.0002
2083.00,-0.0001
2080.00,-0.0001
2077.00,-0.0001
2074.00,-0.0002
2071.00,-0.0003
2068.00,-0.0004
2065.00,-0.0005
2062.00,-0.0003
2059.00,-0.0002
2056.00,-0.0001
2053.00,0.0005
2050.00,0.0008
2047.00,-0.0000
2044.00,-0.0001
2041.00,-0.0001
2038.00,-0.0001
2035.00,-0.0003
2032.00,-0.0004
2029.00,-0.0006
2026.00,-0.0011
2023.00,-0.0008
2020.00,-0.0008
2017.00,-0.0009
2014.00,-0.0008
2011.00,-0.0008
2008.00,-0.0011
2005.00,-0.0014
2002.00,-0.0009
1999.00,-0.0006
1996.00,-0.0005
1993.00,-0.0004
1990.00,-0.0002
1987.00,-0.0000
1984.00,0.0003
1981.00,0.0008
1978.00,-0.0003
1975.00,-0.0009
1972.00,-0.0008
1969.00,-0.0008
1966.00,-0.0007
1963.00,-0.0007
1960.00,-0.0007
1957.00,-0.0008
1954.00,-0.0006
1951.00,-0.0003
1948.00,-0.0002
1945.00,0.0000
1942.00,0.0001
1939.00,-0.0000
1936.00,-0.0002
1933.00,-0.0005
1930.00,-0.0006
1927.00,-0.0007
1924.00,-0.0007
1921.00,-0.0004
1918.00,-0.0004
1915.00,-0.0005
1912.00,-0.0005
1909.00,-0.0006
1906.00,-0.0006
1903.00,-0.0005
1900.00,-0.0004
1897.00,-0.0004
1894.00,-0.0004
1891.00,-0.0002
1888.00,-0.0000
1885.00,0.0000
1882.00,0.0001
1879.00,0.0001
1876.00,0.0001
1873.00,0.0002
1870.00,0.0002
1867.00,0.0001
1864.00,-0.0000
1861.00,-0.0001
1858.00,-0.0002
1855.00,-0.0003
1852.00,-0.0005
1849.00,-0.0005
1846.00,-0.0004
1843.00,-0.0004
1840.00,-0.0005
1837.00,-0.0004
1834.00,-0.0003
1831.00,-0.0004
1828.00,-0.0003
1825.00,-0.0002
1822.00,-0.0001
1819.00,-0.0002
1816.00,-0.0001
1813.00,0.0001
1810.00,0.0003
1807.00,0.0004
1804.00,0.0006
1801.00,0.0006
1798.00,0.0005
1795.00,0.0003
1792.00,0.0002
1789.00,0.0001
1786.00,0.0001
1783.00,0.0000
1780.00,0.0000
1777.00,-0.0000
1774.00,-0.0000
1771.00,0.0000
1768.00,-0.0000
1765.00,0.0001
1762.00,0.0002
1759.00,0.0003
1756.00,0.0005
1753.00,0.0006
1750.00,0.0008
1747.00,0.0008
1744.00,0.0009
1741.00,0.0009
1738.00,0.0009
1735.00,0.0010
1732.00,0.0008
1729.00,0.0006
1726.00,0.0006
1723.00,0.0005
1720.00,0.0005
1717.00,0.0005
1714.00,0.0004
1711.00,0.0004
1708.00,0.0005
1705.00,0.0004
1702.00,0.0004
1699.00,0.0005
1696.00,0.0004
1693.00,0.0005
1690.00,0.0006
1687.00,0.0006
1684.00,0.0007
1681.00,0.0007
1678.00,0.0009
1675.00,0.0010
1672.00,0.0010
1669.00,0.0011
1666.00,0.0011
1663.00,0.0012
1660.00,0.0011
1657.00,0.0011
1654.00,0.0011
1651.00,0.0009
1648.00,0.0008
1645.00,0.0006
1642.00,0.0005
1639.00,0.0005
1636.00,0.0005
1633.00,0.0005
1630.00,0.0006
1627.00,0.0007
1624.00,0.0008
1621.00,0.0010
1618.00,0.0011
1615.00,0.0012
1612.00,0.0014
1609.00,0.0023
1606.00,0.0041
1603.00,0.0066
1600.00,0.0073
1597.00,0.0052
1594.00,0.0032
1591.00,0.0024
1588.00,0.0022
1585.00,0.0029
1582.00,0.0031
1579.00,0.0021
1576.00,0.0012
1573.00,0.0008
1570.00,0.0007
1567.00,0.0006
1564.00,0.0005
1561.00,0.0005
1558.00,0.0005
1555.00,0.0005
1552.00,0.0007
1549.00,0.0008
1546.00,0.0010
1543.00,0.0011
1540.00,0.0010
1537.00,0.0009
1534.00,0.0008
1531.00,0.0006
1528.00,0.0006
1525.00,0.0006
1522.00,0.0005
1519.00,0.0006
1516.00,0.0007
1513.00,0.0008
1510.00,0.0010
1507.00,0.0011
1504.00,0.0014
1501.00,0.0024
1498.00,0.0056
1495.00,0.0142
1492.00,0.0201
1489.00,0.0123
1486.00,0.0059
1483.00,0.0036
1480.00,0.0024
1477.00,0.0021
1474.00,0.0019
1471.00,0.0018
1468.00,0.0020
1465.00,0.0024
1462.00,0.0028
1459.00,0.0044
1456.00,0.0106
1453.00,0.0185
1450.00,0.0192
1447.00,0.0144
1444.00,0.0112
1441.00,0.0087
1438.00,0.0071
1435.00,0.0047
1432.00,0.0036
1429.00,0.0026
1426.00,0.0022
1423.00,0.0019
1420.00,0.0018
1417.00,0.0015
1414.00,0.0015
1411.00,0.0014
1408.00,0.0015
1405.00,0.0015
1402.00,0.0015
1399.00,0.0015
1396.00,0.0016
1393.00,0.0017
1390.00,0.0020
1387.00,0.0024
1384.00,0.0029
1381.00,0.0034
1378.00,0.0038
1375.00,0.0041
1372.00,0.0041
1369.00,0.0041
1366.00,0.0041
1363.00,0.0041
1360.00,0.0039
1357.00,0.0037
1354.00,0.0035
1351.00,0.0034
1348.00,0.0034
1345.00,0.0033
1342.00,0.0031
1339.00,0.0030
1336.00,0.0030
1333.00,0.0033
1330.00,0.0035
1327.00,0.0036
1324.00,0.0034
1321.00,0.0033
1318.00,0.0033
1315.00,0.0035
1312.00,0.0035
1309.00,0.0035
1306.00,0.0033
1303.00,0.0032
1300.00,0.0030
1297.00,0.0030
1294.00,0.0030
1291.00,0.0029
1288.00,0.0028
1285.00,0.0028
1282.00,0.0027
1279.00,0.0026
1276.00,0.0023
1273.00,0.0021
1270.00,0.0019
1267.00,0.0018
1264.00,0.0017
1261.00,0.0016
1258.00,0.0016
1255.00,0.0016
1252.00,0.0017
1249.00,0.0017
1246.00,0.0018
1243.00,0.0019
1240.00,0.0019
1237.00,0.0018
1234.00,0.0019
1231.00,0.0019
1228.00,0.0019
1225.00,0.0019
1222.00,0.0020
1219.00,0.0020
1216.00,0.0020
1213.00,0.0020
1210.00,0.0021
1207.00,0.0023
1204.00,0.0025
1201.00,0.0029
1198.00,0.0032
1195.00,0.0034
1192.00,0.0034
1189.00,0.0034
1186.00,0.0037
1183.00,0.0043
1180.00,0.0044
1177.00,0.0036
1174.00,0.0028
1171.00,0.0025
1168.00,0.0024
1165.00,0.0024
1162.00,0.0027
1159.00,0.0035
1156.00,0.0046
1153.00,0.0045
1150.00,0.0033
1147.00,0.0024
1144.00,0.0019
1141.00,0.0017
1138.00,0.0016
1135.00,0.0016
1132.00,0.0017
1129.00,0.0018
1126.00,0.0017
1123.00,0.0016
1120.00,0.0018
1117.00,0.0021
1114.00,0.0023
1111.00,0.0023
1108.00,0.0023
1105.00,0.0023
1102.00,0.0025
1099.00,0.0026
1096.00,0.0026
1093.00,0.0028
1090.00,0.0030
1087.00,0.0031
1084.00,0.0036
1081.00,0.0041
1078.00,0.0046
1075.00,0.0054
1072.00,0.0062
1069.00,0.0067
1066.00,0.0065
1063.00,0.0058
1060.00,0.0052
1057.00,0.0048
1054.00,0.0042
1051.00,0.0038
1048.00,0.0035
1045.00,0.0033
1042.00,0.0032
1039.00,0.0035
1036.00,0.0048
1033.00,0.0078
1030.00,0.0110
1027.00,0.0116
1024.00,0.0094
1021.00,0.0074
1018.00,0.0060
1015.00,0.0052
1012.00,0.0046
1009.00,0.0045
1006.00,0.0046
1003.00,0.0049
1000.00,0.0042
997.00,0.0035
994.00,0.0034
991.00,0.0034
988.00,0.0036
985.00,0.0040
982.00,0.0043
979.00,0.0044
976.00,0.0042
973.00,0.0039
970.00,0.0043
967.00,0.0048
964.00,0.0049
961.00,0.0045
958.00,0.0038
955.00,0.0034
952.00,0.0034
949.00,0.0036
946.00,0.0038
943.00,0.0039
940.00,0.0037
937.00,0.0033
934.00,0.0029
931.00,0.0026
928.00,0.0025
925.00,0.0027
922.00,0.0029
919.00,0.0033
916.00,0.0042
913.00,0.0056
910.00,0.0074
907.00,0.0085
904.00,0.0081
901.00,0.0063
898.00,0.0044
895.00,0.0032
892.00,0.0027
889.00,0.0024
886.00,0.0021
883.00,0.0020
880.00,0.0019
877.00,0.0020
874.00,0.0019
871.00,0.0018
868.00,0.0017
865.00,0.0018
862.00,0.0018
859.00,0.0017
856.00,0.0019
853.00,0.0022
850.00,0.0027
847.00,0.0035
844.00,0.0042
841.00,0.0043
838.00,0.0038
835.00,0.0029
832.00,0.0021
829.00,0.0019
826.00,0.0018
823.00,0.0017
820.00,0.0017
817.00,0.0018
814.00,0.0018
811.00,0.0019
808.00,0.0018
805.00,0.0018
802.00,0.0020
799.00,0.0023
796.00,0.0026
793.00,0.0032
790.00,0.0040
787.00,0.0049
784.00,0.0060
781.00,0.0073
778.00,0.0094
775.00,0.0122
772.00,0.0160
769.00,0.0206
766.00,0.0252
763.00,0.0298
760.00,0.0347
757.00,0.0387
754.00,0.0401
751.00,0.0396
748.00,0.0393
745.00,0.0363
742.00,0.0288
739.00,0.0210
736.00,0.0150
733.00,0.0098
730.00,0.0066
727.00,0.0050
724.00,0.0045
721.00,0.0044
718.00,0.0046
715.00,0.0056
712.00,0.0084
709.00,0.0159
706.00,0.0310
703.00,0.0550
700.00,0.0843
697.00,0.1124
694.00,0.1240
691.00,0.0982
688.00,0.0644
685.00,0.0445
682.00,0.0336
679.00,0.0268
676.00,0.0224
673.00,0.0196
670.00,0.0180
667.00,0.0158
664.00,0.0137
661.00,0.0118
658.00,0.0102
655.00,0.0087
652.00,0.0074
649.00,0.0066
646.00,0.0062
643.00,0.0057
640.00,0.0055
637.00,0.0060
634.00,0.0066
631.00,0.0072
628.00,0.0078
625.00,0.0079
622.00,0.0085
619.00,0.0083
616.00,0.0075
613.00,0.0070
610.00,0.0066
607.00,0.0065
604.00,0.0065
601.00,0.0064
598.00,0.0067
595.00,0.0070
592.00,0.0075
589.00,0.0079
586.00,0.0084
583.00,0.0092
580.00,0.0103
577.00,0.0116
574.00,0.0131
571.00,0.0151
568.00,0.0172
565.00,0.0186
562.00,0.0202
559.00,0.0225
556.00,0.0242
553.00,0.0264
550.00,0.0288
547.00,0.0323
544.00,0.0369
541.00,0.0418
538.00,0.0448
535.00,0.0428
532.00,0.0369
529.00,0.0306
526.00,0.0247
523.00,0.0196
520.00,0.0169
517.00,0.0151
514.00,0.0132
511.00,0.0118
508.00,0.0107
505.00,0.0103
502.00,0.0094
499.00,0.0080
496.00,0.0080
493.00,0.0080
490.00,0.0075
487.00,0.0067
484.00,0.0064
481.00,0.0065
478.00,0.0061
475.00,0.0056
472.00,0.0060
469.00,0.0057
466.00,0.0051
463.00,0.0051
460.00,0.0053
457.00,0.0058
454.00,0.0056
451.00,0.0051
448.00,0.0051
445.00,0.0050
442.00,0.0047
439.00,0.0045
436.00,0.0050
433.00,0.0047
430.00,0.0036
427.00,0.0035
424.00,0.0044
421.00,0.0065
418.00,0.0043
415.00,0.0028
412.00,0.0034
409.00,0.0048
406.00,0.0069
403.00,0.0059
400.00,0.0055