File: FTIR/Olivia/2025_08_06_1CBN_3PVP10_MP_Powder_Sigma3.csv
Created as New Dataset,Sample 007 By YargerLab Date Wednesday, August 06 2025
cm-1,A
4000.00,0.0008
3997.00,0.0008
3994.00,0.0007
3991.00,0.0007
3988.00,0.0007
3985.00,0.0007
3982.00,0.0008
3979.00,0.0008
3976.00,0.0007
3973.00,0.0007
3970.00,0.0007
3967.00,0.0008
3964.00,0.0007
3961.00,0.0007
3958.00,0.0007
3955.00,0.0007
3952.00,0.0007
3949.00,0.0007
3946.00,0.0006
3943.00,0.0007
3940.00,0.0007
3937.00,0.0007
3934.00,0.0007
3931.00,0.0007
3928.00,0.0007
3925.00,0.0007
3922.00,0.0006
3919.00,0.0006
3916.00,0.0006
3913.00,0.0007
3910.00,0.0007
3907.00,0.0006
3904.00,0.0005
3901.00,0.0004
3898.00,0.0006
3895.00,0.0006
3892.00,0.0006
3889.00,0.0006
3886.00,0.0006
3883.00,0.0005
3880.00,0.0006
3877.00,0.0006
3874.00,0.0006
3871.00,0.0005
3868.00,0.0005
3865.00,0.0005
3862.00,0.0006
3859.00,0.0006
3856.00,0.0004
3853.00,0.0004
3850.00,0.0004
3847.00,0.0006
3844.00,0.0006
3841.00,0.0006
3838.00,0.0006
3835.00,0.0005
3832.00,0.0006
3829.00,0.0007
3826.00,0.0007
3823.00,0.0005
3820.00,0.0005
3817.00,0.0005
3814.00,0.0007
3811.00,0.0007
3808.00,0.0006
3805.00,0.0005
3802.00,0.0006
3799.00,0.0005
3796.00,0.0006
3793.00,0.0007
3790.00,0.0008
3787.00,0.0008
3784.00,0.0007
3781.00,0.0007
3778.00,0.0008
3775.00,0.0008
3772.00,0.0007
3769.00,0.0007
3766.00,0.0007
3763.00,0.0007
3760.00,0.0006
3757.00,0.0007
3754.00,0.0006
3751.00,0.0005
3748.00,0.0003
3745.00,0.0003
3742.00,0.0004
3739.00,0.0004
3736.00,0.0004
3733.00,0.0004
3730.00,0.0005
3727.00,0.0005
3724.00,0.0005
3721.00,0.0006
3718.00,0.0007
3715.00,0.0007
3712.00,0.0005
3709.00,0.0005
3706.00,0.0006
3703.00,0.0007
3700.00,0.0007
3697.00,0.0007
3694.00,0.0007
3691.00,0.0007
3688.00,0.0006
3685.00,0.0007
3682.00,0.0009
3679.00,0.0009
3676.00,0.0008
3673.00,0.0006
3670.00,0.0008
3667.00,0.0009
3664.00,0.0011
3661.00,0.0012
3658.00,0.0013
3655.00,0.0012
3652.00,0.0013
3649.00,0.0012
3646.00,0.0013
3643.00,0.0016
3640.00,0.0018
3637.00,0.0018
3634.00,0.0018
3631.00,0.0019
3628.00,0.0019
3625.00,0.0021
3622.00,0.0024
3619.00,0.0024
3616.00,0.0025
3613.00,0.0027
3610.00,0.0027
3607.00,0.0029
3604.00,0.0032
3601.00,0.0035
3598.00,0.0036
3595.00,0.0037
3592.00,0.0038
3589.00,0.0040
3586.00,0.0040
3583.00,0.0044
3580.00,0.0047
3577.00,0.0049
3574.00,0.0052
3571.00,0.0054
3568.00,0.0055
3565.00,0.0055
3562.00,0.0059
3559.00,0.0063
3556.00,0.0065
3553.00,0.0067
3550.00,0.0068
3547.00,0.0071
3544.00,0.0072
3541.00,0.0075
3538.00,0.0078
3535.00,0.0080
3532.00,0.0081
3529.00,0.0084
3526.00,0.0085
3523.00,0.0086
3520.00,0.0088
3517.00,0.0089
3514.00,0.0091
3511.00,0.0093
3508.00,0.0094
3505.00,0.0096
3502.00,0.0096
3499.00,0.0097
3496.00,0.0098
3493.00,0.0100
3490.00,0.0101
3487.00,0.0102
3484.00,0.0103
3481.00,0.0103
3478.00,0.0104
3475.00,0.0105
3472.00,0.0106
3469.00,0.0108
3466.00,0.0109
3463.00,0.0110
3460.00,0.0111
3457.00,0.0111
3454.00,0.0112
3451.00,0.0113
3448.00,0.0114
3445.00,0.0114
3442.00,0.0115
3439.00,0.0115
3436.00,0.0117
3433.00,0.0117
3430.00,0.0118
3427.00,0.0118
3424.00,0.0119
3421.00,0.0118
3418.00,0.0118
3415.00,0.0120
3412.00,0.0121
3409.00,0.0122
3406.00,0.0122
3403.00,0.0123
3400.00,0.0124
3397.00,0.0124
3394.00,0.0123
3391.00,0.0123
3388.00,0.0122
3385.00,0.0122
3382.00,0.0121
3379.00,0.0120
3376.00,0.0119
3373.00,0.0117
3370.00,0.0116
3367.00,0.0114
3364.00,0.0113
3361.00,0.0111
3358.00,0.0110
3355.00,0.0108
3352.00,0.0107
3349.00,0.0106
3346.00,0.0104
3343.00,0.0103
3340.00,0.0102
3337.00,0.0101
3334.00,0.0100
3331.00,0.0099
3328.00,0.0098
3325.00,0.0097
3322.00,0.0097
3319.00,0.0096
3316.00,0.0095
3313.00,0.0095
3310.00,0.0094
3307.00,0.0093
3304.00,0.0093
3301.00,0.0093
3298.00,0.0093
3295.00,0.0092
3292.00,0.0092
3289.00,0.0092
3286.00,0.0092
3283.00,0.0092
3280.00,0.0092
3277.00,0.0091
3274.00,0.0090
3271.00,0.0089
3268.00,0.0089
3265.00,0.0089
3262.00,0.0089
3259.00,0.0088
3256.00,0.0087
3253.00,0.0086
3250.00,0.0085
3247.00,0.0085
3244.00,0.0084
3241.00,0.0083
3238.00,0.0083
3235.00,0.0082
3232.00,0.0081
3229.00,0.0080
3226.00,0.0079
3223.00,0.0078
3220.00,0.0077
3217.00,0.0076
3214.00,0.0076
3211.00,0.0075
3208.00,0.0073
3205.00,0.0073
3202.00,0.0072
3199.00,0.0070
3196.00,0.0069
3193.00,0.0068
3190.00,0.0066
3187.00,0.0065
3184.00,0.0064
3181.00,0.0063
3178.00,0.0061
3175.00,0.0060
3172.00,0.0059
3169.00,0.0058
3166.00,0.0056
3163.00,0.0055
3160.00,0.0055
3157.00,0.0054
3154.00,0.0052
3151.00,0.0051
3148.00,0.0050
3145.00,0.0049
3142.00,0.0048
3139.00,0.0047
3136.00,0.0046
3133.00,0.0045
3130.00,0.0044
3127.00,0.0044
3124.00,0.0043
3121.00,0.0042
3118.00,0.0041
3115.00,0.0040
3112.00,0.0039
3109.00,0.0039
3106.00,0.0038
3103.00,0.0038
3100.00,0.0037
3097.00,0.0036
3094.00,0.0035
3091.00,0.0035
3088.00,0.0035
3085.00,0.0034
3082.00,0.0033
3079.00,0.0033
3076.00,0.0032
3073.00,0.0031
3070.00,0.0030
3067.00,0.0030
3064.00,0.0030
3061.00,0.0029
3058.00,0.0029
3055.00,0.0028
3052.00,0.0028
3049.00,0.0027
3046.00,0.0027
3043.00,0.0027
3040.00,0.0026
3037.00,0.0026
3034.00,0.0026
3031.00,0.0026
3028.00,0.0026
3025.00,0.0025
3022.00,0.0026
3019.00,0.0027
3016.00,0.0027
3013.00,0.0028
3010.00,0.0030
3007.00,0.0032
3004.00,0.0036
3001.00,0.0040
2998.00,0.0045
2995.00,0.0049
2992.00,0.0051
2989.00,0.0054
2986.00,0.0057
2983.00,0.0062
2980.00,0.0065
2977.00,0.0068
2974.00,0.0074
2971.00,0.0079
2968.00,0.0081
2965.00,0.0086
2962.00,0.0089
2959.00,0.0087
2956.00,0.0085
2953.00,0.0087
2950.00,0.0088
2947.00,0.0089
2944.00,0.0088
2941.00,0.0088
2938.00,0.0090
2935.00,0.0092
2932.00,0.0094
2929.00,0.0096
2926.00,0.0096
2923.00,0.0094
2920.00,0.0091
2917.00,0.0087
2914.00,0.0085
2911.00,0.0082
2908.00,0.0080
2905.00,0.0077
2902.00,0.0076
2899.00,0.0076
2896.00,0.0076
2893.00,0.0076
2890.00,0.0076
2887.00,0.0075
2884.00,0.0075
2881.00,0.0075
2878.00,0.0075
2875.00,0.0074
2872.00,0.0072
2869.00,0.0071
2866.00,0.0071
2863.00,0.0072
2860.00,0.0073
2857.00,0.0070
2854.00,0.0066
2851.00,0.0061
2848.00,0.0056
2845.00,0.0051
2842.00,0.0047
2839.00,0.0043
2836.00,0.0041
2833.00,0.0038
2830.00,0.0036
2827.00,0.0034
2824.00,0.0032
2821.00,0.0030
2818.00,0.0029
2815.00,0.0028
2812.00,0.0027
2809.00,0.0026
2806.00,0.0025
2803.00,0.0024
2800.00,0.0024
2797.00,0.0023
2794.00,0.0023
2791.00,0.0022
2788.00,0.0022
2785.00,0.0021
2782.00,0.0021
2779.00,0.0021
2776.00,0.0020
2773.00,0.0020
2770.00,0.0020
2767.00,0.0020
2764.00,0.0020
2761.00,0.0020
2758.00,0.0020
2755.00,0.0020
2752.00,0.0019
2749.00,0.0019
2746.00,0.0019
2743.00,0.0019
2740.00,0.0019
2737.00,0.0020
2734.00,0.0020
2731.00,0.0020
2728.00,0.0020
2725.00,0.0019
2722.00,0.0019
2719.00,0.0019
2716.00,0.0019
2713.00,0.0019
2710.00,0.0018
2707.00,0.0018
2704.00,0.0018
2701.00,0.0018
2698.00,0.0018
2695.00,0.0017
2692.00,0.0017
2689.00,0.0017
2686.00,0.0017
2683.00,0.0017
2680.00,0.0016
2677.00,0.0017
2674.00,0.0017
2671.00,0.0017
2668.00,0.0017
2665.00,0.0018
2662.00,0.0020
2659.00,0.0021
2656.00,0.0021
2653.00,0.0021
2650.00,0.0021
2647.00,0.0021
2644.00,0.0021
2641.00,0.0021
2638.00,0.0021
2635.00,0.0020
2632.00,0.0020
2629.00,0.0020
2626.00,0.0019
2623.00,0.0019
2620.00,0.0019
2617.00,0.0019
2614.00,0.0018
2611.00,0.0018
2608.00,0.0018
2605.00,0.0017
2602.00,0.0018
2599.00,0.0018
2596.00,0.0018
2593.00,0.0018
2590.00,0.0017
2587.00,0.0017
2584.00,0.0017
2581.00,0.0016
2578.00,0.0016
2575.00,0.0017
2572.00,0.0016
2569.00,0.0016
2566.00,0.0016
2563.00,0.0015
2560.00,0.0015
2557.00,0.0014
2554.00,0.0014
2551.00,0.0014
2548.00,0.0015
2545.00,0.0014
2542.00,0.0014
2539.00,0.0014
2536.00,0.0013
2533.00,0.0013
2530.00,0.0012
2527.00,0.0012
2524.00,0.0013
2521.00,0.0013
2518.00,0.0013
2515.00,0.0012
2512.00,0.0012
2509.00,0.0012
2506.00,0.0012
2503.00,0.0011
2500.00,0.0012
2497.00,0.0012
2494.00,0.0012
2491.00,0.0012
2488.00,0.0011
2485.00,0.0012
2482.00,0.0011
2479.00,0.0011
2476.00,0.0011
2473.00,0.0012
2470.00,0.0011
2467.00,0.0011
2464.00,0.0011
2461.00,0.0012
2458.00,0.0013
2455.00,0.0012
2452.00,0.0012
2449.00,0.0012
2446.00,0.0011
2443.00,0.0012
2440.00,0.0011
2437.00,0.0012
2434.00,0.0012
2431.00,0.0010
2428.00,0.0010
2425.00,0.0010
2422.00,0.0010
2419.00,0.0011
2416.00,0.0010
2413.00,0.0010
2410.00,0.0010
2407.00,0.0009
2404.00,0.0009
2401.00,0.0009
2398.00,0.0009
2395.00,0.0010
2392.00,0.0010
2389.00,0.0009
2386.00,0.0008
2383.00,0.0008
2380.00,0.0008
2377.00,0.0008
2374.00,0.0008
2371.00,0.0008
2368.00,0.0008
2365.00,0.0008
2362.00,0.0009
2359.00,0.0009
2356.00,0.0009
2353.00,0.0008
2350.00,0.0010
2347.00,0.0011
2344.00,0.0012
2341.00,0.0013
2338.00,0.0013
2335.00,0.0013
2332.00,0.0013
2329.00,0.0016
2326.00,0.0025
2323.00,0.0024
2320.00,0.0019
2317.00,0.0019
2314.00,0.0017
2311.00,0.0016
2308.00,0.0015
2305.00,0.0015
2302.00,0.0016
2299.00,0.0018
2296.00,0.0020
2293.00,0.0022
2290.00,0.0023
2287.00,0.0024
2284.00,0.0022
2281.00,0.0019
2278.00,0.0018
2275.00,0.0019
2272.00,0.0019
2269.00,0.0018
2266.00,0.0015
2263.00,0.0017
2260.00,0.0018
2257.00,0.0016
2254.00,0.0014
2251.00,0.0015
2248.00,0.0015
2245.00,0.0015
2242.00,0.0016
2239.00,0.0016
2236.00,0.0015
2233.00,0.0016
2230.00,0.0016
2227.00,0.0015
2224.00,0.0014
2221.00,0.0015
2218.00,0.0016
2215.00,0.0017
2212.00,0.0017
2209.00,0.0015
2206.00,0.0016
2203.00,0.0016
2200.00,0.0017
2197.00,0.0017
2194.00,0.0018
2191.00,0.0020
2188.00,0.0022
2185.00,0.0019
2182.00,0.0013
2179.00,0.0014
2176.00,0.0013
2173.00,0.0014
2170.00,0.0021
2167.00,0.0026
2164.00,0.0030
2161.00,0.0012
2158.00,-0.0015
2155.00,-0.0006
2152.00,-0.0000
2149.00,0.0002
2146.00,0.0000
2143.00,-0.0001
2140.00,0.0001
2137.00,-0.0001
2134.00,-0.0005
2131.00,-0.0001
2128.00,0.0002
2125.00,0.0005
2122.00,0.0007
2119.00,0.0010
2116.00,0.0015
2113.00,0.0016
2110.00,0.0014
2107.00,0.0014
2104.00,0.0014
2101.00,0.0015
2098.00,0.0013
2095.00,0.0007
2092.00,0.0009
2089.00,0.0012
2086.00,0.0014
2083.00,0.0016
2080.00,0.0015
2077.00,0.0014
2074.00,0.0013
2071.00,0.0013
2068.00,0.0011
2065.00,0.0011
2062.00,0.0011
2059.00,0.0011
2056.00,0.0012
2053.00,0.0020
2050.00,0.0021
2047.00,0.0012
2044.00,0.0011
2041.00,0.0014
2038.00,0.0017
2035.00,0.0013
2032.00,0.0005
2029.00,0.0005
2026.00,0.0007
2023.00,0.0006
2020.00,0.0005
2017.00,0.0008
2014.00,0.0008
2011.00,0.0006
2008.00,0.0000
2005.00,-0.0002
2002.00,0.0002
1999.00,0.0004
1996.00,0.0006
1993.00,0.0007
1990.00,0.0009
1987.00,0.0011
1984.00,0.0015
1981.00,0.0021
1978.00,0.0009
1975.00,0.0000
1972.00,0.0000
1969.00,-0.0002
1966.00,0.0001
1963.00,-0.0000
1960.00,-0.0004
1957.00,-0.0003
1954.00,-0.0001
1951.00,0.0001
1948.00,0.0002
1945.00,-0.0000
1942.00,0.0002
1939.00,0.0002
1936.00,0.0002
1933.00,0.0001
1930.00,0.0001
1927.00,0.0001
1924.00,0.0002
1921.00,0.0004
1918.00,0.0004
1915.00,0.0005
1912.00,0.0005
1909.00,0.0005
1906.00,0.0004
1903.00,0.0004
1900.00,0.0006
1897.00,0.0006
1894.00,0.0006
1891.00,0.0004
1888.00,0.0004
1885.00,0.0004
1882.00,0.0005
1879.00,0.0005
1876.00,0.0005
1873.00,0.0006
1870.00,0.0005
1867.00,0.0005
1864.00,0.0006
1861.00,0.0005
1858.00,0.0005
1855.00,0.0007
1852.00,0.0006
1849.00,0.0006
1846.00,0.0005
1843.00,0.0005
1840.00,0.0005
1837.00,0.0006
1834.00,0.0005
1831.00,0.0005
1828.00,0.0006
1825.00,0.0006
1822.00,0.0006
1819.00,0.0004
1816.00,0.0004
1813.00,0.0006
1810.00,0.0006
1807.00,0.0006
1804.00,0.0007
1801.00,0.0007
1798.00,0.0007
1795.00,0.0007
1792.00,0.0007
1789.00,0.0007
1786.00,0.0008
1783.00,0.0008
1780.00,0.0009
1777.00,0.0008
1774.00,0.0009
1771.00,0.0008
1768.00,0.0009
1765.00,0.0009
1762.00,0.0010
1759.00,0.0010
1756.00,0.0011
1753.00,0.0011
1750.00,0.0011
1747.00,0.0012
1744.00,0.0012
1741.00,0.0012
1738.00,0.0013
1735.00,0.0014
1732.00,0.0015
1729.00,0.0017
1726.00,0.0019
1723.00,0.0021
1720.00,0.0022
1717.00,0.0025
1714.00,0.0026
1711.00,0.0032
1708.00,0.0037
1705.00,0.0044
1702.00,0.0054
1699.00,0.0072
1696.00,0.0097
1693.00,0.0126
1690.00,0.0166
1687.00,0.0212
1684.00,0.0255
1681.00,0.0296
1678.00,0.0349
1675.00,0.0391
1672.00,0.0436
1669.00,0.0471
1666.00,0.0515
1663.00,0.0567
1660.00,0.0596
1657.00,0.0652
1654.00,0.0705
1651.00,0.0635
1648.00,0.0692
1645.00,0.0634
1642.00,0.0632
1639.00,0.0619
1636.00,0.0568
1633.00,0.0486
1630.00,0.0475
1627.00,0.0436
1624.00,0.0405
1621.00,0.0362
1618.00,0.0346
1615.00,0.0291
1612.00,0.0272
1609.00,0.0247
1606.00,0.0215
1603.00,0.0186
1600.00,0.0161
1597.00,0.0144
1594.00,0.0135
1591.00,0.0135
1588.00,0.0136
1585.00,0.0133
1582.00,0.0125
1579.00,0.0118
1576.00,0.0108
1573.00,0.0097
1570.00,0.0091
1567.00,0.0085
1564.00,0.0080
1561.00,0.0072
1558.00,0.0062
1555.00,0.0061
1552.00,0.0060
1549.00,0.0058
1546.00,0.0056
1543.00,0.0053
1540.00,0.0051
1537.00,0.0049
1534.00,0.0049
1531.00,0.0048
1528.00,0.0049
1525.00,0.0049
1522.00,0.0050
1519.00,0.0051
1516.00,0.0054
1513.00,0.0057
1510.00,0.0062
1507.00,0.0070
1504.00,0.0086
1501.00,0.0112
1498.00,0.0144
1495.00,0.0156
1492.00,0.0155
1489.00,0.0130
1486.00,0.0104
1483.00,0.0090
1480.00,0.0082
1477.00,0.0085
1474.00,0.0099
1471.00,0.0133
1468.00,0.0186
1465.00,0.0243
1462.00,0.0279
1459.00,0.0288
1456.00,0.0226
1453.00,0.0203
1450.00,0.0205
1447.00,0.0229
1444.00,0.0272
1441.00,0.0318
1438.00,0.0349
1435.00,0.0342
1432.00,0.0348
1429.00,0.0353
1426.00,0.0386
1423.00,0.0416
1420.00,0.0410
1417.00,0.0324
1414.00,0.0260
1411.00,0.0207
1408.00,0.0177
1405.00,0.0163
1402.00,0.0154
1399.00,0.0146
1396.00,0.0135
1393.00,0.0124
1390.00,0.0122
1387.00,0.0129
1384.00,0.0134
1381.00,0.0145
1378.00,0.0156
1375.00,0.0163
1372.00,0.0159
1369.00,0.0158
1366.00,0.0154
1363.00,0.0147
1360.00,0.0143
1357.00,0.0132
1354.00,0.0117
1351.00,0.0110
1348.00,0.0108
1345.00,0.0104
1342.00,0.0100
1339.00,0.0098
1336.00,0.0101
1333.00,0.0110
1330.00,0.0120
1327.00,0.0132
1324.00,0.0149
1321.00,0.0169
1318.00,0.0180
1315.00,0.0177
1312.00,0.0167
1309.00,0.0162
1306.00,0.0167
1303.00,0.0187
1300.00,0.0220
1297.00,0.0278
1294.00,0.0361
1291.00,0.0436
1288.00,0.0484
1285.00,0.0491
1282.00,0.0464
1279.00,0.0437
1276.00,0.0434
1273.00,0.0436
1270.00,0.0419
1267.00,0.0381
1264.00,0.0332
1261.00,0.0285
1258.00,0.0246
1255.00,0.0219
1252.00,0.0201
1249.00,0.0194
1246.00,0.0196
1243.00,0.0201
1240.00,0.0208
1237.00,0.0220
1234.00,0.0229
1231.00,0.0230
1228.00,0.0228
1225.00,0.0225
1222.00,0.0225
1219.00,0.0227
1216.00,0.0229
1213.00,0.0222
1210.00,0.0205
1207.00,0.0190
1204.00,0.0183
1201.00,0.0182
1198.00,0.0186
1195.00,0.0188
1192.00,0.0178
1189.00,0.0162
1186.00,0.0150
1183.00,0.0145
1180.00,0.0144
1177.00,0.0147
1174.00,0.0152
1171.00,0.0156
1168.00,0.0156
1165.00,0.0152
1162.00,0.0149
1159.00,0.0151
1156.00,0.0158
1153.00,0.0153
1150.00,0.0134
1147.00,0.0120
1144.00,0.0112
1141.00,0.0106
1138.00,0.0105
1135.00,0.0112
1132.00,0.0130
1129.00,0.0143
1126.00,0.0136
1123.00,0.0123
1120.00,0.0113
1117.00,0.0113
1114.00,0.0113
1111.00,0.0109
1108.00,0.0108
1105.00,0.0113
1102.00,0.0125
1099.00,0.0129
1096.00,0.0121
1093.00,0.0111
1090.00,0.0105
1087.00,0.0102
1084.00,0.0101
1081.00,0.0101
1078.00,0.0105
1075.00,0.0109
1072.00,0.0110
1069.00,0.0112
1066.00,0.0117
1063.00,0.0124
1060.00,0.0136
1057.00,0.0151
1054.00,0.0162
1051.00,0.0167
1048.00,0.0165
1045.00,0.0147
1042.00,0.0130
1039.00,0.0126
1036.00,0.0130
1033.00,0.0132
1030.00,0.0145
1027.00,0.0167
1024.00,0.0169
1021.00,0.0157
1018.00,0.0147
1015.00,0.0135
1012.00,0.0123
1009.00,0.0125
1006.00,0.0135
1003.00,0.0140
1000.00,0.0133
997.00,0.0123
994.00,0.0114
991.00,0.0106
988.00,0.0098
985.00,0.0093
982.00,0.0089
979.00,0.0086
976.00,0.0084
973.00,0.0082
970.00,0.0080
967.00,0.0080
964.00,0.0081
961.00,0.0081
958.00,0.0076
955.00,0.0069
952.00,0.0064
949.00,0.0062
946.00,0.0062
943.00,0.0068
940.00,0.0080
937.00,0.0091
934.00,0.0099
931.00,0.0099
928.00,0.0094
925.00,0.0094
922.00,0.0092
919.00,0.0085
916.00,0.0080
913.00,0.0079
910.00,0.0081
907.00,0.0084
904.00,0.0093
901.00,0.0103
898.00,0.0103
895.00,0.0099
892.00,0.0099
889.00,0.0100
886.00,0.0089
883.00,0.0084
880.00,0.0086
877.00,0.0096
874.00,0.0112
871.00,0.0129
868.00,0.0123
865.00,0.0115
862.00,0.0111
859.00,0.0116
856.00,0.0131
853.00,0.0148
850.00,0.0170
847.00,0.0171
844.00,0.0163
841.00,0.0161
838.00,0.0165
835.00,0.0172
832.00,0.0161
829.00,0.0141
826.00,0.0129
823.00,0.0133
820.00,0.0155
817.00,0.0174
814.00,0.0150
811.00,0.0114
808.00,0.0105
805.00,0.0105
802.00,0.0105
799.00,0.0105
796.00,0.0106
793.00,0.0109
790.00,0.0110
787.00,0.0113
784.00,0.0117
781.00,0.0121
778.00,0.0127
775.00,0.0133
772.00,0.0136
769.00,0.0138
766.00,0.0142
763.00,0.0151
760.00,0.0162
757.00,0.0168
754.00,0.0174
751.00,0.0182
748.00,0.0191
745.00,0.0201
742.00,0.0213
739.00,0.0230
736.00,0.0248
733.00,0.0250
730.00,0.0254
727.00,0.0245
724.00,0.0224
721.00,0.0215
718.00,0.0217
715.00,0.0221
712.00,0.0219
709.00,0.0216
706.00,0.0219
703.00,0.0223
700.00,0.0231
697.00,0.0234
694.00,0.0234
691.00,0.0243
688.00,0.0252
685.00,0.0255
682.00,0.0260
679.00,0.0267
676.00,0.0279
673.00,0.0292
670.00,0.0307
667.00,0.0308
664.00,0.0320
661.00,0.0337
658.00,0.0347
655.00,0.0357
652.00,0.0371
649.00,0.0382
646.00,0.0384
643.00,0.0380
640.00,0.0373
637.00,0.0366
634.00,0.0358
631.00,0.0354
628.00,0.0350
625.00,0.0351
622.00,0.0355
619.00,0.0356
616.00,0.0350
613.00,0.0345
610.00,0.0343
607.00,0.0355
604.00,0.0371
601.00,0.0379
598.00,0.0386
595.00,0.0387
592.00,0.0390
589.00,0.0395
586.00,0.0403
583.00,0.0415
580.00,0.0436
577.00,0.0461
574.00,0.0461
571.00,0.0452
568.00,0.0446
565.00,0.0447
562.00,0.0453
559.00,0.0450
556.00,0.0438
553.00,0.0433
550.00,0.0436
547.00,0.0439
544.00,0.0435
541.00,0.0430
538.00,0.0423
535.00,0.0424
532.00,0.0432
529.00,0.0434
526.00,0.0426
523.00,0.0417
520.00,0.0413
517.00,0.0413
514.00,0.0412
511.00,0.0417
508.00,0.0420
505.00,0.0415
502.00,0.0411
499.00,0.0411
496.00,0.0415
493.00,0.0424
490.00,0.0424
487.00,0.0420
484.00,0.0422
481.00,0.0423
478.00,0.0429
475.00,0.0430
472.00,0.0425
469.00,0.0423
466.00,0.0427
463.00,0.0427
460.00,0.0427
457.00,0.0422
454.00,0.0414
451.00,0.0407
448.00,0.0412
445.00,0.0415
442.00,0.0398
439.00,0.0387
436.00,0.0386
433.00,0.0385
430.00,0.0380
427.00,0.0366
424.00,0.0367
421.00,0.0362
418.00,0.0344
415.00,0.0351
412.00,0.0365
409.00,0.0380
406.00,0.0350
403.00,0.0344
400.00,0.0365