File: FTIR/Olivia/2025_07_10_Polystyrene_Std_OAG_scan1.csv
Created as New Dataset,Sample 807 By YargerLab Date Wednesday, July 09 2025
cm-1,A
4000.00,0.0020
3997.00,0.0020
3994.00,0.0020
3991.00,0.0020
3988.00,0.0019
3985.00,0.0019
3982.00,0.0019
3979.00,0.0019
3976.00,0.0019
3973.00,0.0019
3970.00,0.0020
3967.00,0.0020
3964.00,0.0020
3961.00,0.0019
3958.00,0.0019
3955.00,0.0019
3952.00,0.0019
3949.00,0.0020
3946.00,0.0020
3943.00,0.0020
3940.00,0.0020
3937.00,0.0020
3934.00,0.0020
3931.00,0.0020
3928.00,0.0020
3925.00,0.0019
3922.00,0.0020
3919.00,0.0020
3916.00,0.0019
3913.00,0.0019
3910.00,0.0019
3907.00,0.0020
3904.00,0.0020
3901.00,0.0020
3898.00,0.0019
3895.00,0.0019
3892.00,0.0020
3889.00,0.0020
3886.00,0.0019
3883.00,0.0020
3880.00,0.0019
3877.00,0.0020
3874.00,0.0020
3871.00,0.0021
3868.00,0.0020
3865.00,0.0020
3862.00,0.0020
3859.00,0.0020
3856.00,0.0022
3853.00,0.0021
3850.00,0.0020
3847.00,0.0019
3844.00,0.0020
3841.00,0.0021
3838.00,0.0020
3835.00,0.0020
3832.00,0.0019
3829.00,0.0020
3826.00,0.0020
3823.00,0.0021
3820.00,0.0021
3817.00,0.0021
3814.00,0.0020
3811.00,0.0020
3808.00,0.0021
3805.00,0.0021
3802.00,0.0021
3799.00,0.0021
3796.00,0.0019
3793.00,0.0020
3790.00,0.0020
3787.00,0.0020
3784.00,0.0020
3781.00,0.0020
3778.00,0.0019
3775.00,0.0020
3772.00,0.0021
3769.00,0.0021
3766.00,0.0021
3763.00,0.0021
3760.00,0.0020
3757.00,0.0020
3754.00,0.0022
3751.00,0.0023
3748.00,0.0022
3745.00,0.0021
3742.00,0.0021
3739.00,0.0021
3736.00,0.0022
3733.00,0.0021
3730.00,0.0020
3727.00,0.0020
3724.00,0.0020
3721.00,0.0019
3718.00,0.0019
3715.00,0.0019
3712.00,0.0020
3709.00,0.0020
3706.00,0.0018
3703.00,0.0019
3700.00,0.0019
3697.00,0.0019
3694.00,0.0019
3691.00,0.0020
3688.00,0.0020
3685.00,0.0019
3682.00,0.0019
3679.00,0.0020
3676.00,0.0021
3673.00,0.0021
3670.00,0.0019
3667.00,0.0019
3664.00,0.0019
3661.00,0.0019
3658.00,0.0020
3655.00,0.0021
3652.00,0.0022
3649.00,0.0022
3646.00,0.0022
3643.00,0.0021
3640.00,0.0021
3637.00,0.0020
3634.00,0.0021
3631.00,0.0022
3628.00,0.0020
3625.00,0.0020
3622.00,0.0020
3619.00,0.0022
3616.00,0.0023
3613.00,0.0022
3610.00,0.0021
3607.00,0.0021
3604.00,0.0021
3601.00,0.0021
3598.00,0.0021
3595.00,0.0022
3592.00,0.0023
3589.00,0.0023
3586.00,0.0023
3583.00,0.0022
3580.00,0.0022
3577.00,0.0022
3574.00,0.0022
3571.00,0.0023
3568.00,0.0023
3565.00,0.0024
3562.00,0.0023
3559.00,0.0023
3556.00,0.0024
3553.00,0.0024
3550.00,0.0025
3547.00,0.0025
3544.00,0.0025
3541.00,0.0025
3538.00,0.0025
3535.00,0.0026
3532.00,0.0027
3529.00,0.0027
3526.00,0.0027
3523.00,0.0027
3520.00,0.0027
3517.00,0.0028
3514.00,0.0028
3511.00,0.0028
3508.00,0.0028
3505.00,0.0029
3502.00,0.0029
3499.00,0.0029
3496.00,0.0029
3493.00,0.0029
3490.00,0.0029
3487.00,0.0030
3484.00,0.0030
3481.00,0.0030
3478.00,0.0031
3475.00,0.0031
3472.00,0.0031
3469.00,0.0031
3466.00,0.0031
3463.00,0.0032
3460.00,0.0032
3457.00,0.0032
3454.00,0.0032
3451.00,0.0032
3448.00,0.0033
3445.00,0.0033
3442.00,0.0033
3439.00,0.0033
3436.00,0.0033
3433.00,0.0033
3430.00,0.0033
3427.00,0.0032
3424.00,0.0032
3421.00,0.0032
3418.00,0.0033
3415.00,0.0033
3412.00,0.0033
3409.00,0.0032
3406.00,0.0032
3403.00,0.0033
3400.00,0.0033
3397.00,0.0033
3394.00,0.0032
3391.00,0.0032
3388.00,0.0032
3385.00,0.0032
3382.00,0.0032
3379.00,0.0032
3376.00,0.0032
3373.00,0.0032
3370.00,0.0032
3367.00,0.0032
3364.00,0.0031
3361.00,0.0031
3358.00,0.0031
3355.00,0.0032
3352.00,0.0032
3349.00,0.0031
3346.00,0.0031
3343.00,0.0032
3340.00,0.0031
3337.00,0.0031
3334.00,0.0031
3331.00,0.0031
3328.00,0.0031
3325.00,0.0031
3322.00,0.0030
3319.00,0.0030
3316.00,0.0030
3313.00,0.0030
3310.00,0.0030
3307.00,0.0031
3304.00,0.0031
3301.00,0.0030
3298.00,0.0030
3295.00,0.0030
3292.00,0.0030
3289.00,0.0030
3286.00,0.0029
3283.00,0.0030
3280.00,0.0030
3277.00,0.0030
3274.00,0.0029
3271.00,0.0029
3268.00,0.0029
3265.00,0.0029
3262.00,0.0028
3259.00,0.0028
3256.00,0.0029
3253.00,0.0028
3250.00,0.0028
3247.00,0.0028
3244.00,0.0028
3241.00,0.0028
3238.00,0.0028
3235.00,0.0028
3232.00,0.0028
3229.00,0.0027
3226.00,0.0027
3223.00,0.0027
3220.00,0.0028
3217.00,0.0028
3214.00,0.0027
3211.00,0.0027
3208.00,0.0028
3205.00,0.0028
3202.00,0.0028
3199.00,0.0028
3196.00,0.0028
3193.00,0.0027
3190.00,0.0026
3187.00,0.0026
3184.00,0.0026
3181.00,0.0026
3178.00,0.0026
3175.00,0.0026
3172.00,0.0025
3169.00,0.0026
3166.00,0.0027
3163.00,0.0027
3160.00,0.0027
3157.00,0.0026
3154.00,0.0026
3151.00,0.0025
3148.00,0.0025
3145.00,0.0025
3142.00,0.0025
3139.00,0.0024
3136.00,0.0025
3133.00,0.0025
3130.00,0.0025
3127.00,0.0025
3124.00,0.0026
3121.00,0.0027
3118.00,0.0028
3115.00,0.0030
3112.00,0.0034
3109.00,0.0040
3106.00,0.0046
3103.00,0.0050
3100.00,0.0049
3097.00,0.0047
3094.00,0.0050
3091.00,0.0060
3088.00,0.0078
3085.00,0.0100
3082.00,0.0109
3079.00,0.0100
3076.00,0.0087
3073.00,0.0082
3070.00,0.0088
3067.00,0.0105
3064.00,0.0128
3061.00,0.0145
3058.00,0.0144
3055.00,0.0123
3052.00,0.0101
3049.00,0.0087
3046.00,0.0080
3043.00,0.0082
3040.00,0.0092
3037.00,0.0113
3034.00,0.0148
3031.00,0.0201
3028.00,0.0257
3025.00,0.0279
3022.00,0.0242
3019.00,0.0177
3016.00,0.0129
3013.00,0.0095
3010.00,0.0079
3007.00,0.0079
3004.00,0.0086
3001.00,0.0089
2998.00,0.0080
2995.00,0.0065
2992.00,0.0056
2989.00,0.0051
2986.00,0.0050
2983.00,0.0048
2980.00,0.0050
2977.00,0.0058
2974.00,0.0061
2971.00,0.0057
2968.00,0.0060
2965.00,0.0065
2962.00,0.0071
2959.00,0.0078
2956.00,0.0087
2953.00,0.0097
2950.00,0.0109
2947.00,0.0125
2944.00,0.0145
2941.00,0.0169
2938.00,0.0199
2935.00,0.0233
2932.00,0.0268
2929.00,0.0301
2926.00,0.0325
2923.00,0.0337
2920.00,0.0337
2917.00,0.0326
2914.00,0.0308
2911.00,0.0284
2908.00,0.0260
2905.00,0.0234
2902.00,0.0209
2899.00,0.0184
2896.00,0.0162
2893.00,0.0146
2890.00,0.0134
2887.00,0.0125
2884.00,0.0116
2881.00,0.0108
2878.00,0.0102
2875.00,0.0096
2872.00,0.0092
2869.00,0.0091
2866.00,0.0093
2863.00,0.0101
2860.00,0.0113
2857.00,0.0128
2854.00,0.0143
2851.00,0.0152
2848.00,0.0152
2845.00,0.0140
2842.00,0.0118
2839.00,0.0092
2836.00,0.0071
2833.00,0.0057
2830.00,0.0049
2827.00,0.0044
2824.00,0.0041
2821.00,0.0039
2818.00,0.0038
2815.00,0.0037
2812.00,0.0036
2809.00,0.0036
2806.00,0.0036
2803.00,0.0034
2800.00,0.0033
2797.00,0.0032
2794.00,0.0032
2791.00,0.0031
2788.00,0.0031
2785.00,0.0031
2782.00,0.0030
2779.00,0.0030
2776.00,0.0029
2773.00,0.0029
2770.00,0.0028
2767.00,0.0028
2764.00,0.0027
2761.00,0.0028
2758.00,0.0027
2755.00,0.0027
2752.00,0.0027
2749.00,0.0027
2746.00,0.0026
2743.00,0.0026
2740.00,0.0026
2737.00,0.0026
2734.00,0.0026
2731.00,0.0027
2728.00,0.0027
2725.00,0.0027
2722.00,0.0027
2719.00,0.0027
2716.00,0.0026
2713.00,0.0026
2710.00,0.0026
2707.00,0.0026
2704.00,0.0026
2701.00,0.0026
2698.00,0.0026
2695.00,0.0026
2692.00,0.0026
2689.00,0.0026
2686.00,0.0026
2683.00,0.0026
2680.00,0.0026
2677.00,0.0026
2674.00,0.0026
2671.00,0.0026
2668.00,0.0026
2665.00,0.0027
2662.00,0.0029
2659.00,0.0030
2656.00,0.0030
2653.00,0.0031
2650.00,0.0031
2647.00,0.0031
2644.00,0.0031
2641.00,0.0031
2638.00,0.0030
2635.00,0.0031
2632.00,0.0031
2629.00,0.0031
2626.00,0.0031
2623.00,0.0029
2620.00,0.0028
2617.00,0.0028
2614.00,0.0028
2611.00,0.0028
2608.00,0.0028
2605.00,0.0028
2602.00,0.0028
2599.00,0.0027
2596.00,0.0026
2593.00,0.0026
2590.00,0.0025
2587.00,0.0025
2584.00,0.0025
2581.00,0.0025
2578.00,0.0024
2575.00,0.0023
2572.00,0.0023
2569.00,0.0022
2566.00,0.0022
2563.00,0.0022
2560.00,0.0022
2557.00,0.0022
2554.00,0.0022
2551.00,0.0022
2548.00,0.0022
2545.00,0.0022
2542.00,0.0022
2539.00,0.0022
2536.00,0.0021
2533.00,0.0021
2530.00,0.0021
2527.00,0.0021
2524.00,0.0020
2521.00,0.0020
2518.00,0.0020
2515.00,0.0021
2512.00,0.0020
2509.00,0.0020
2506.00,0.0020
2503.00,0.0020
2500.00,0.0020
2497.00,0.0020
2494.00,0.0020
2491.00,0.0020
2488.00,0.0019
2485.00,0.0018
2482.00,0.0018
2479.00,0.0018
2476.00,0.0018
2473.00,0.0017
2470.00,0.0017
2467.00,0.0017
2464.00,0.0018
2461.00,0.0018
2458.00,0.0019
2455.00,0.0019
2452.00,0.0019
2449.00,0.0018
2446.00,0.0018
2443.00,0.0018
2440.00,0.0017
2437.00,0.0017
2434.00,0.0017
2431.00,0.0017
2428.00,0.0016
2425.00,0.0015
2422.00,0.0014
2419.00,0.0014
2416.00,0.0015
2413.00,0.0015
2410.00,0.0015
2407.00,0.0013
2404.00,0.0014
2401.00,0.0014
2398.00,0.0013
2395.00,0.0013
2392.00,0.0013
2389.00,0.0013
2386.00,0.0013
2383.00,0.0013
2380.00,0.0013
2377.00,0.0013
2374.00,0.0013
2371.00,0.0012
2368.00,0.0011
2365.00,0.0014
2362.00,0.0016
2359.00,0.0016
2356.00,0.0016
2353.00,0.0016
2350.00,0.0016
2347.00,0.0020
2344.00,0.0022
2341.00,0.0020
2338.00,0.0021
2335.00,0.0021
2332.00,0.0020
2329.00,0.0021
2326.00,0.0031
2323.00,0.0029
2320.00,0.0026
2317.00,0.0025
2314.00,0.0024
2311.00,0.0024
2308.00,0.0022
2305.00,0.0021
2302.00,0.0022
2299.00,0.0022
2296.00,0.0025
2293.00,0.0026
2290.00,0.0028
2287.00,0.0028
2284.00,0.0025
2281.00,0.0025
2278.00,0.0024
2275.00,0.0023
2272.00,0.0023
2269.00,0.0022
2266.00,0.0020
2263.00,0.0020
2260.00,0.0022
2257.00,0.0019
2254.00,0.0018
2251.00,0.0018
2248.00,0.0017
2245.00,0.0017
2242.00,0.0017
2239.00,0.0019
2236.00,0.0017
2233.00,0.0017
2230.00,0.0016
2227.00,0.0014
2224.00,0.0016
2221.00,0.0017
2218.00,0.0015
2215.00,0.0013
2212.00,0.0014
2209.00,0.0015
2206.00,0.0015
2203.00,0.0013
2200.00,0.0016
2197.00,0.0017
2194.00,0.0019
2191.00,0.0019
2188.00,0.0018
2185.00,0.0016
2182.00,0.0008
2179.00,0.0010
2176.00,0.0006
2173.00,0.0009
2170.00,0.0021
2167.00,0.0026
2164.00,0.0031
2161.00,0.0011
2158.00,-0.0024
2155.00,-0.0018
2152.00,-0.0007
2149.00,-0.0005
2146.00,-0.0007
2143.00,-0.0006
2140.00,-0.0006
2137.00,-0.0007
2134.00,-0.0012
2131.00,-0.0008
2128.00,-0.0003
2125.00,0.0001
2122.00,0.0003
2119.00,0.0006
2116.00,0.0010
2113.00,0.0011
2110.00,0.0011
2107.00,0.0012
2104.00,0.0011
2101.00,0.0011
2098.00,0.0009
2095.00,0.0006
2092.00,0.0008
2089.00,0.0008
2086.00,0.0010
2083.00,0.0012
2080.00,0.0014
2077.00,0.0013
2074.00,0.0011
2071.00,0.0010
2068.00,0.0011
2065.00,0.0011
2062.00,0.0010
2059.00,0.0010
2056.00,0.0009
2053.00,0.0016
2050.00,0.0018
2047.00,0.0011
2044.00,0.0008
2041.00,0.0009
2038.00,0.0012
2035.00,0.0013
2032.00,0.0003
2029.00,0.0001
2026.00,0.0002
2023.00,0.0002
2020.00,0.0002
2017.00,0.0002
2014.00,0.0006
2011.00,0.0004
2008.00,-0.0007
2005.00,-0.0007
2002.00,0.0001
1999.00,0.0006
1996.00,0.0008
1993.00,0.0011
1990.00,0.0011
1987.00,0.0014
1984.00,0.0019
1981.00,0.0025
1978.00,0.0012
1975.00,0.0002
1972.00,0.0004
1969.00,0.0011
1966.00,0.0015
1963.00,0.0016
1960.00,0.0016
1957.00,0.0020
1954.00,0.0025
1951.00,0.0031
1948.00,0.0034
1945.00,0.0038
1942.00,0.0039
1939.00,0.0034
1936.00,0.0028
1933.00,0.0020
1930.00,0.0016
1927.00,0.0014
1924.00,0.0011
1921.00,0.0011
1918.00,0.0011
1915.00,0.0008
1912.00,0.0009
1909.00,0.0009
1906.00,0.0012
1903.00,0.0012
1900.00,0.0012
1897.00,0.0015
1894.00,0.0019
1891.00,0.0022
1888.00,0.0026
1885.00,0.0029
1882.00,0.0031
1879.00,0.0033
1876.00,0.0035
1873.00,0.0036
1870.00,0.0037
1867.00,0.0036
1864.00,0.0032
1861.00,0.0028
1858.00,0.0023
1855.00,0.0018
1852.00,0.0015
1849.00,0.0013
1846.00,0.0012
1843.00,0.0012
1840.00,0.0011
1837.00,0.0012
1834.00,0.0014
1831.00,0.0015
1828.00,0.0018
1825.00,0.0020
1822.00,0.0023
1819.00,0.0024
1816.00,0.0026
1813.00,0.0032
1810.00,0.0036
1807.00,0.0041
1804.00,0.0044
1801.00,0.0043
1798.00,0.0041
1795.00,0.0037
1792.00,0.0031
1789.00,0.0026
1786.00,0.0023
1783.00,0.0022
1780.00,0.0022
1777.00,0.0023
1774.00,0.0024
1771.00,0.0024
1768.00,0.0023
1765.00,0.0025
1762.00,0.0028
1759.00,0.0031
1756.00,0.0036
1753.00,0.0040
1750.00,0.0045
1747.00,0.0048
1744.00,0.0051
1741.00,0.0053
1738.00,0.0053
1735.00,0.0053
1732.00,0.0050
1729.00,0.0046
1726.00,0.0045
1723.00,0.0044
1720.00,0.0042
1717.00,0.0040
1714.00,0.0039
1711.00,0.0039
1708.00,0.0039
1705.00,0.0038
1702.00,0.0037
1699.00,0.0037
1696.00,0.0036
1693.00,0.0036
1690.00,0.0036
1687.00,0.0037
1684.00,0.0040
1681.00,0.0041
1678.00,0.0043
1675.00,0.0044
1672.00,0.0046
1669.00,0.0047
1666.00,0.0048
1663.00,0.0048
1660.00,0.0047
1657.00,0.0046
1654.00,0.0045
1651.00,0.0045
1648.00,0.0041
1645.00,0.0040
1642.00,0.0040
1639.00,0.0039
1636.00,0.0038
1633.00,0.0040
1630.00,0.0040
1627.00,0.0041
1624.00,0.0042
1621.00,0.0043
1618.00,0.0046
1615.00,0.0053
1612.00,0.0063
1609.00,0.0095
1606.00,0.0165
1603.00,0.0253
1600.00,0.0268
1597.00,0.0193
1594.00,0.0126
1591.00,0.0094
1588.00,0.0087
1585.00,0.0111
1582.00,0.0115
1579.00,0.0080
1576.00,0.0055
1573.00,0.0045
1570.00,0.0038
1567.00,0.0034
1564.00,0.0033
1561.00,0.0034
1558.00,0.0034
1555.00,0.0036
1552.00,0.0039
1549.00,0.0042
1546.00,0.0045
1543.00,0.0046
1540.00,0.0046
1537.00,0.0045
1534.00,0.0039
1531.00,0.0035
1528.00,0.0033
1525.00,0.0031
1522.00,0.0031
1519.00,0.0032
1516.00,0.0033
1513.00,0.0036
1510.00,0.0038
1507.00,0.0044
1504.00,0.0063
1501.00,0.0094
1498.00,0.0206
1495.00,0.0525
1492.00,0.0674
1489.00,0.0401
1486.00,0.0209
1483.00,0.0131
1480.00,0.0092
1477.00,0.0077
1474.00,0.0071
1471.00,0.0072
1468.00,0.0077
1465.00,0.0086
1462.00,0.0104
1459.00,0.0151
1456.00,0.0399
1453.00,0.0657
1450.00,0.0649
1447.00,0.0492
1444.00,0.0388
1441.00,0.0302
1438.00,0.0240
1435.00,0.0173
1432.00,0.0136
1429.00,0.0108
1426.00,0.0094
1423.00,0.0085
1420.00,0.0080
1417.00,0.0075
1414.00,0.0077
1411.00,0.0075
1408.00,0.0072
1405.00,0.0072
1402.00,0.0073
1399.00,0.0073
1396.00,0.0075
1393.00,0.0082
1390.00,0.0091
1387.00,0.0105
1384.00,0.0120
1381.00,0.0133
1378.00,0.0146
1375.00,0.0158
1372.00,0.0163
1369.00,0.0162
1366.00,0.0158
1363.00,0.0154
1360.00,0.0148
1357.00,0.0143
1354.00,0.0139
1351.00,0.0136
1348.00,0.0133
1345.00,0.0127
1342.00,0.0119
1339.00,0.0112
1336.00,0.0114
1333.00,0.0122
1330.00,0.0130
1327.00,0.0130
1324.00,0.0125
1321.00,0.0121
1318.00,0.0121
1315.00,0.0124
1312.00,0.0126
1309.00,0.0124
1306.00,0.0118
1303.00,0.0111
1300.00,0.0105
1297.00,0.0102
1294.00,0.0101
1291.00,0.0098
1288.00,0.0095
1285.00,0.0093
1282.00,0.0093
1279.00,0.0090
1276.00,0.0085
1273.00,0.0079
1270.00,0.0074
1267.00,0.0071
1264.00,0.0069
1261.00,0.0068
1258.00,0.0068
1255.00,0.0069
1252.00,0.0070
1249.00,0.0072
1246.00,0.0073
1243.00,0.0073
1240.00,0.0072
1237.00,0.0071
1234.00,0.0070
1231.00,0.0070
1228.00,0.0070
1225.00,0.0071
1222.00,0.0071
1219.00,0.0071
1216.00,0.0072
1213.00,0.0074
1210.00,0.0079
1207.00,0.0084
1204.00,0.0091
1201.00,0.0099
1198.00,0.0105
1195.00,0.0107
1192.00,0.0109
1189.00,0.0113
1186.00,0.0125
1183.00,0.0146
1180.00,0.0148
1177.00,0.0123
1174.00,0.0101
1171.00,0.0094
1168.00,0.0090
1165.00,0.0093
1162.00,0.0100
1159.00,0.0122
1156.00,0.0154
1153.00,0.0156
1150.00,0.0128
1147.00,0.0118
1144.00,0.0130
1141.00,0.0149
1138.00,0.0149
1135.00,0.0135
1132.00,0.0122
1129.00,0.0111
1126.00,0.0101
1123.00,0.0091
1120.00,0.0088
1117.00,0.0089
1114.00,0.0091
1111.00,0.0091
1108.00,0.0088
1105.00,0.0086
1102.00,0.0087
1099.00,0.0089
1096.00,0.0092
1093.00,0.0097
1090.00,0.0102
1087.00,0.0109
1084.00,0.0120
1081.00,0.0134
1078.00,0.0148
1075.00,0.0168
1072.00,0.0194
1069.00,0.0208
1066.00,0.0197
1063.00,0.0173
1060.00,0.0151
1057.00,0.0136
1054.00,0.0126
1051.00,0.0117
1048.00,0.0110
1045.00,0.0107
1042.00,0.0106
1039.00,0.0117
1036.00,0.0156
1033.00,0.0244
1030.00,0.0336
1027.00,0.0353
1024.00,0.0287
1021.00,0.0224
1018.00,0.0186
1015.00,0.0161
1012.00,0.0145
1009.00,0.0139
1006.00,0.0144
1003.00,0.0151
1000.00,0.0131
997.00,0.0110
994.00,0.0105
991.00,0.0106
988.00,0.0112
985.00,0.0122
982.00,0.0133
979.00,0.0136
976.00,0.0129
973.00,0.0123
970.00,0.0131
967.00,0.0146
964.00,0.0154
961.00,0.0145
958.00,0.0126
955.00,0.0115
952.00,0.0114
949.00,0.0116
946.00,0.0122
943.00,0.0127
940.00,0.0121
937.00,0.0111
934.00,0.0099
931.00,0.0090
928.00,0.0087
925.00,0.0089
922.00,0.0093
919.00,0.0102
916.00,0.0123
913.00,0.0162
910.00,0.0209
907.00,0.0240
904.00,0.0225
901.00,0.0176
898.00,0.0127
895.00,0.0098
892.00,0.0084
889.00,0.0076
886.00,0.0070
883.00,0.0064
880.00,0.0062
877.00,0.0061
874.00,0.0059
871.00,0.0056
868.00,0.0057
865.00,0.0055
862.00,0.0055
859.00,0.0056
856.00,0.0058
853.00,0.0066
850.00,0.0079
847.00,0.0100
844.00,0.0118
841.00,0.0122
838.00,0.0110
835.00,0.0087
832.00,0.0067
829.00,0.0058
826.00,0.0056
823.00,0.0053
820.00,0.0053
817.00,0.0054
814.00,0.0055
811.00,0.0056
808.00,0.0058
805.00,0.0060
802.00,0.0065
799.00,0.0070
796.00,0.0081
793.00,0.0095
790.00,0.0113
787.00,0.0135
784.00,0.0162
781.00,0.0200
778.00,0.0254
775.00,0.0332
772.00,0.0432
769.00,0.0553
766.00,0.0677
763.00,0.0798
760.00,0.0926
757.00,0.1026
754.00,0.1052
751.00,0.1038
748.00,0.1022
745.00,0.0931
742.00,0.0734
739.00,0.0540
736.00,0.0387
733.00,0.0258
730.00,0.0173
727.00,0.0136
724.00,0.0122
721.00,0.0120
718.00,0.0127
715.00,0.0153
712.00,0.0228
709.00,0.0419
706.00,0.0805
703.00,0.1418
700.00,0.2224
697.00,0.3058
694.00,0.3217
691.00,0.2264
688.00,0.1403
685.00,0.0965
682.00,0.0734
679.00,0.0593
676.00,0.0506
673.00,0.0449
670.00,0.0406
667.00,0.0355
664.00,0.0319
661.00,0.0281
658.00,0.0246
655.00,0.0216
652.00,0.0193
649.00,0.0177
646.00,0.0162
643.00,0.0153
640.00,0.0154
637.00,0.0163
634.00,0.0177
631.00,0.0187
628.00,0.0199
625.00,0.0205
622.00,0.0218
619.00,0.0214
616.00,0.0195
613.00,0.0186
610.00,0.0174
607.00,0.0169
604.00,0.0169
601.00,0.0172
598.00,0.0178
595.00,0.0183
592.00,0.0191
589.00,0.0203
586.00,0.0212
583.00,0.0226
580.00,0.0250
577.00,0.0286
574.00,0.0325
571.00,0.0367
568.00,0.0412
565.00,0.0450
562.00,0.0488
559.00,0.0529
556.00,0.0573
553.00,0.0625
550.00,0.0686
547.00,0.0761
544.00,0.0862
541.00,0.0963
538.00,0.1009
535.00,0.0948
532.00,0.0810
529.00,0.0658
526.00,0.0530
523.00,0.0436
520.00,0.0381
517.00,0.0338
514.00,0.0306
511.00,0.0273
508.00,0.0250
505.00,0.0228
502.00,0.0203
499.00,0.0187
496.00,0.0180
493.00,0.0171
490.00,0.0164
487.00,0.0160
484.00,0.0157
481.00,0.0153
478.00,0.0143
475.00,0.0140
472.00,0.0132
469.00,0.0137
466.00,0.0128
463.00,0.0123
460.00,0.0122
457.00,0.0133
454.00,0.0125
451.00,0.0114
448.00,0.0109
445.00,0.0115
442.00,0.0119
439.00,0.0110
436.00,0.0107
433.00,0.0107
430.00,0.0098
427.00,0.0087
424.00,0.0085
421.00,0.0093
418.00,0.0091
415.00,0.0086
412.00,0.0089
409.00,0.0134
406.00,0.0121
403.00,0.0102
400.00,0.0108