File: FTIR/Olivia/2025_07_30_Polystyrene_Std_scan2.csv
Created as New Dataset,Sample 958 By YargerLab Date Wednesday, July 30 2025
cm-1,A
4000.00,0.0011
3997.00,0.0011
3994.00,0.0011
3991.00,0.0011
3988.00,0.0011
3985.00,0.0011
3982.00,0.0011
3979.00,0.0011
3976.00,0.0010
3973.00,0.0010
3970.00,0.0010
3967.00,0.0011
3964.00,0.0011
3961.00,0.0011
3958.00,0.0011
3955.00,0.0011
3952.00,0.0011
3949.00,0.0011
3946.00,0.0012
3943.00,0.0012
3940.00,0.0011
3937.00,0.0011
3934.00,0.0012
3931.00,0.0011
3928.00,0.0011
3925.00,0.0011
3922.00,0.0011
3919.00,0.0012
3916.00,0.0012
3913.00,0.0012
3910.00,0.0011
3907.00,0.0012
3904.00,0.0013
3901.00,0.0014
3898.00,0.0013
3895.00,0.0012
3892.00,0.0012
3889.00,0.0013
3886.00,0.0013
3883.00,0.0014
3880.00,0.0013
3877.00,0.0013
3874.00,0.0013
3871.00,0.0013
3868.00,0.0014
3865.00,0.0014
3862.00,0.0013
3859.00,0.0013
3856.00,0.0016
3853.00,0.0017
3850.00,0.0017
3847.00,0.0014
3844.00,0.0013
3841.00,0.0014
3838.00,0.0015
3835.00,0.0016
3832.00,0.0015
3829.00,0.0013
3826.00,0.0013
3823.00,0.0014
3820.00,0.0015
3817.00,0.0015
3814.00,0.0014
3811.00,0.0013
3808.00,0.0013
3805.00,0.0014
3802.00,0.0015
3799.00,0.0016
3796.00,0.0014
3793.00,0.0012
3790.00,0.0011
3787.00,0.0012
3784.00,0.0012
3781.00,0.0012
3778.00,0.0012
3775.00,0.0012
3772.00,0.0012
3769.00,0.0013
3766.00,0.0013
3763.00,0.0013
3760.00,0.0013
3757.00,0.0014
3754.00,0.0016
3751.00,0.0018
3748.00,0.0019
3745.00,0.0019
3742.00,0.0017
3739.00,0.0016
3736.00,0.0016
3733.00,0.0016
3730.00,0.0015
3727.00,0.0013
3724.00,0.0012
3721.00,0.0011
3718.00,0.0011
3715.00,0.0012
3712.00,0.0013
3709.00,0.0014
3706.00,0.0013
3703.00,0.0011
3700.00,0.0011
3697.00,0.0011
3694.00,0.0011
3691.00,0.0014
3688.00,0.0014
3685.00,0.0013
3682.00,0.0012
3679.00,0.0013
3676.00,0.0014
3673.00,0.0015
3670.00,0.0014
3667.00,0.0012
3664.00,0.0011
3661.00,0.0010
3658.00,0.0011
3655.00,0.0012
3652.00,0.0014
3649.00,0.0015
3646.00,0.0015
3643.00,0.0012
3640.00,0.0010
3637.00,0.0010
3634.00,0.0011
3631.00,0.0013
3628.00,0.0014
3625.00,0.0013
3622.00,0.0012
3619.00,0.0013
3616.00,0.0013
3613.00,0.0012
3610.00,0.0013
3607.00,0.0013
3604.00,0.0012
3601.00,0.0011
3598.00,0.0011
3595.00,0.0012
3592.00,0.0011
3589.00,0.0013
3586.00,0.0013
3583.00,0.0012
3580.00,0.0011
3577.00,0.0011
3574.00,0.0012
3571.00,0.0012
3568.00,0.0013
3565.00,0.0013
3562.00,0.0013
3559.00,0.0012
3556.00,0.0012
3553.00,0.0012
3550.00,0.0012
3547.00,0.0013
3544.00,0.0013
3541.00,0.0013
3538.00,0.0012
3535.00,0.0013
3532.00,0.0013
3529.00,0.0013
3526.00,0.0013
3523.00,0.0013
3520.00,0.0013
3517.00,0.0013
3514.00,0.0013
3511.00,0.0013
3508.00,0.0013
3505.00,0.0014
3502.00,0.0014
3499.00,0.0013
3496.00,0.0013
3493.00,0.0013
3490.00,0.0013
3487.00,0.0013
3484.00,0.0013
3481.00,0.0013
3478.00,0.0013
3475.00,0.0013
3472.00,0.0013
3469.00,0.0013
3466.00,0.0013
3463.00,0.0012
3460.00,0.0013
3457.00,0.0012
3454.00,0.0012
3451.00,0.0013
3448.00,0.0013
3445.00,0.0013
3442.00,0.0013
3439.00,0.0013
3436.00,0.0013
3433.00,0.0013
3430.00,0.0013
3427.00,0.0013
3424.00,0.0012
3421.00,0.0012
3418.00,0.0012
3415.00,0.0013
3412.00,0.0013
3409.00,0.0012
3406.00,0.0012
3403.00,0.0013
3400.00,0.0013
3397.00,0.0013
3394.00,0.0012
3391.00,0.0012
3388.00,0.0012
3385.00,0.0012
3382.00,0.0012
3379.00,0.0012
3376.00,0.0012
3373.00,0.0012
3370.00,0.0012
3367.00,0.0012
3364.00,0.0012
3361.00,0.0012
3358.00,0.0011
3355.00,0.0011
3352.00,0.0012
3349.00,0.0011
3346.00,0.0011
3343.00,0.0011
3340.00,0.0012
3337.00,0.0011
3334.00,0.0011
3331.00,0.0010
3328.00,0.0010
3325.00,0.0011
3322.00,0.0011
3319.00,0.0010
3316.00,0.0010
3313.00,0.0011
3310.00,0.0011
3307.00,0.0011
3304.00,0.0011
3301.00,0.0011
3298.00,0.0011
3295.00,0.0011
3292.00,0.0011
3289.00,0.0011
3286.00,0.0011
3283.00,0.0011
3280.00,0.0011
3277.00,0.0011
3274.00,0.0011
3271.00,0.0011
3268.00,0.0011
3265.00,0.0011
3262.00,0.0011
3259.00,0.0011
3256.00,0.0011
3253.00,0.0010
3250.00,0.0010
3247.00,0.0010
3244.00,0.0010
3241.00,0.0010
3238.00,0.0010
3235.00,0.0010
3232.00,0.0010
3229.00,0.0010
3226.00,0.0010
3223.00,0.0009
3220.00,0.0009
3217.00,0.0009
3214.00,0.0010
3211.00,0.0010
3208.00,0.0010
3205.00,0.0010
3202.00,0.0010
3199.00,0.0010
3196.00,0.0009
3193.00,0.0009
3190.00,0.0009
3187.00,0.0009
3184.00,0.0009
3181.00,0.0009
3178.00,0.0010
3175.00,0.0010
3172.00,0.0009
3169.00,0.0010
3166.00,0.0010
3163.00,0.0010
3160.00,0.0010
3157.00,0.0010
3154.00,0.0010
3151.00,0.0010
3148.00,0.0010
3145.00,0.0010
3142.00,0.0009
3139.00,0.0009
3136.00,0.0009
3133.00,0.0010
3130.00,0.0010
3127.00,0.0010
3124.00,0.0010
3121.00,0.0011
3118.00,0.0011
3115.00,0.0012
3112.00,0.0013
3109.00,0.0015
3106.00,0.0017
3103.00,0.0019
3100.00,0.0019
3097.00,0.0018
3094.00,0.0019
3091.00,0.0023
3088.00,0.0029
3085.00,0.0036
3082.00,0.0041
3079.00,0.0038
3076.00,0.0033
3073.00,0.0031
3070.00,0.0032
3067.00,0.0038
3064.00,0.0046
3061.00,0.0053
3058.00,0.0054
3055.00,0.0047
3052.00,0.0038
3049.00,0.0032
3046.00,0.0030
3043.00,0.0030
3040.00,0.0033
3037.00,0.0040
3034.00,0.0051
3031.00,0.0070
3028.00,0.0091
3025.00,0.0101
3022.00,0.0089
3019.00,0.0065
3016.00,0.0044
3013.00,0.0033
3010.00,0.0027
3007.00,0.0026
3004.00,0.0028
3001.00,0.0029
2998.00,0.0026
2995.00,0.0021
2992.00,0.0017
2989.00,0.0015
2986.00,0.0014
2983.00,0.0013
2980.00,0.0014
2977.00,0.0015
2974.00,0.0015
2971.00,0.0014
2968.00,0.0014
2965.00,0.0014
2962.00,0.0014
2959.00,0.0015
2956.00,0.0018
2953.00,0.0022
2950.00,0.0027
2947.00,0.0033
2944.00,0.0038
2941.00,0.0044
2938.00,0.0051
2935.00,0.0058
2932.00,0.0067
2929.00,0.0076
2926.00,0.0083
2923.00,0.0088
2920.00,0.0091
2917.00,0.0092
2914.00,0.0090
2911.00,0.0086
2908.00,0.0079
2905.00,0.0072
2902.00,0.0064
2899.00,0.0056
2896.00,0.0050
2893.00,0.0045
2890.00,0.0041
2887.00,0.0039
2884.00,0.0037
2881.00,0.0035
2878.00,0.0032
2875.00,0.0028
2872.00,0.0026
2869.00,0.0025
2866.00,0.0026
2863.00,0.0026
2860.00,0.0027
2857.00,0.0029
2854.00,0.0033
2851.00,0.0039
2848.00,0.0043
2845.00,0.0043
2842.00,0.0038
2839.00,0.0031
2836.00,0.0024
2833.00,0.0020
2830.00,0.0017
2827.00,0.0015
2824.00,0.0015
2821.00,0.0015
2818.00,0.0014
2815.00,0.0014
2812.00,0.0014
2809.00,0.0014
2806.00,0.0014
2803.00,0.0013
2800.00,0.0013
2797.00,0.0013
2794.00,0.0012
2791.00,0.0012
2788.00,0.0012
2785.00,0.0012
2782.00,0.0012
2779.00,0.0012
2776.00,0.0012
2773.00,0.0012
2770.00,0.0012
2767.00,0.0011
2764.00,0.0011
2761.00,0.0011
2758.00,0.0011
2755.00,0.0011
2752.00,0.0011
2749.00,0.0011
2746.00,0.0011
2743.00,0.0011
2740.00,0.0011
2737.00,0.0011
2734.00,0.0011
2731.00,0.0011
2728.00,0.0012
2725.00,0.0012
2722.00,0.0012
2719.00,0.0012
2716.00,0.0012
2713.00,0.0011
2710.00,0.0011
2707.00,0.0011
2704.00,0.0011
2701.00,0.0011
2698.00,0.0011
2695.00,0.0011
2692.00,0.0011
2689.00,0.0011
2686.00,0.0011
2683.00,0.0011
2680.00,0.0011
2677.00,0.0011
2674.00,0.0011
2671.00,0.0011
2668.00,0.0012
2665.00,0.0013
2662.00,0.0014
2659.00,0.0015
2656.00,0.0015
2653.00,0.0016
2650.00,0.0016
2647.00,0.0016
2644.00,0.0015
2641.00,0.0016
2638.00,0.0016
2635.00,0.0016
2632.00,0.0016
2629.00,0.0016
2626.00,0.0015
2623.00,0.0014
2620.00,0.0014
2617.00,0.0014
2614.00,0.0013
2611.00,0.0014
2608.00,0.0013
2605.00,0.0013
2602.00,0.0013
2599.00,0.0013
2596.00,0.0013
2593.00,0.0012
2590.00,0.0011
2587.00,0.0012
2584.00,0.0012
2581.00,0.0012
2578.00,0.0012
2575.00,0.0011
2572.00,0.0011
2569.00,0.0010
2566.00,0.0010
2563.00,0.0010
2560.00,0.0009
2557.00,0.0009
2554.00,0.0010
2551.00,0.0010
2548.00,0.0009
2545.00,0.0009
2542.00,0.0009
2539.00,0.0009
2536.00,0.0009
2533.00,0.0009
2530.00,0.0009
2527.00,0.0008
2524.00,0.0008
2521.00,0.0008
2518.00,0.0008
2515.00,0.0008
2512.00,0.0008
2509.00,0.0008
2506.00,0.0008
2503.00,0.0007
2500.00,0.0009
2497.00,0.0009
2494.00,0.0009
2491.00,0.0008
2488.00,0.0008
2485.00,0.0009
2482.00,0.0008
2479.00,0.0007
2476.00,0.0008
2473.00,0.0008
2470.00,0.0008
2467.00,0.0007
2464.00,0.0008
2461.00,0.0008
2458.00,0.0009
2455.00,0.0009
2452.00,0.0008
2449.00,0.0008
2446.00,0.0008
2443.00,0.0007
2440.00,0.0006
2437.00,0.0006
2434.00,0.0006
2431.00,0.0007
2428.00,0.0006
2425.00,0.0006
2422.00,0.0006
2419.00,0.0005
2416.00,0.0006
2413.00,0.0005
2410.00,0.0005
2407.00,0.0005
2404.00,0.0005
2401.00,0.0004
2398.00,0.0004
2395.00,0.0004
2392.00,0.0004
2389.00,0.0004
2386.00,0.0004
2383.00,0.0004
2380.00,0.0004
2377.00,0.0004
2374.00,0.0004
2371.00,0.0005
2368.00,0.0004
2365.00,0.0005
2362.00,0.0008
2359.00,0.0007
2356.00,0.0005
2353.00,0.0004
2350.00,0.0004
2347.00,0.0010
2344.00,0.0013
2341.00,0.0011
2338.00,0.0009
2335.00,0.0008
2332.00,0.0008
2329.00,0.0009
2326.00,0.0018
2323.00,0.0017
2320.00,0.0013
2317.00,0.0012
2314.00,0.0012
2311.00,0.0011
2308.00,0.0011
2305.00,0.0011
2302.00,0.0012
2299.00,0.0012
2296.00,0.0013
2293.00,0.0016
2290.00,0.0017
2287.00,0.0018
2284.00,0.0017
2281.00,0.0015
2278.00,0.0014
2275.00,0.0012
2272.00,0.0012
2269.00,0.0013
2266.00,0.0011
2263.00,0.0012
2260.00,0.0012
2257.00,0.0009
2254.00,0.0008
2251.00,0.0008
2248.00,0.0009
2245.00,0.0009
2242.00,0.0009
2239.00,0.0010
2236.00,0.0009
2233.00,0.0007
2230.00,0.0008
2227.00,0.0008
2224.00,0.0008
2221.00,0.0008
2218.00,0.0008
2215.00,0.0008
2212.00,0.0007
2209.00,0.0007
2206.00,0.0008
2203.00,0.0008
2200.00,0.0008
2197.00,0.0007
2194.00,0.0007
2191.00,0.0010
2188.00,0.0010
2185.00,0.0010
2182.00,0.0004
2179.00,0.0004
2176.00,0.0000
2173.00,0.0005
2170.00,0.0012
2167.00,0.0016
2164.00,0.0018
2161.00,0.0005
2158.00,-0.0022
2155.00,-0.0018
2152.00,-0.0013
2149.00,-0.0011
2146.00,-0.0010
2143.00,-0.0009
2140.00,-0.0009
2137.00,-0.0009
2134.00,-0.0013
2131.00,-0.0011
2128.00,-0.0007
2125.00,-0.0004
2122.00,-0.0000
2119.00,0.0000
2116.00,0.0003
2113.00,0.0005
2110.00,0.0004
2107.00,0.0003
2104.00,0.0005
2101.00,0.0004
2098.00,0.0002
2095.00,-0.0001
2092.00,0.0000
2089.00,0.0003
2086.00,0.0006
2083.00,0.0007
2080.00,0.0007
2077.00,0.0008
2074.00,0.0007
2071.00,0.0006
2068.00,0.0006
2065.00,0.0003
2062.00,0.0001
2059.00,0.0001
2056.00,0.0004
2053.00,0.0010
2050.00,0.0011
2047.00,0.0004
2044.00,0.0005
2041.00,0.0005
2038.00,0.0007
2035.00,0.0003
2032.00,-0.0003
2029.00,-0.0001
2026.00,-0.0001
2023.00,0.0000
2020.00,-0.0003
2017.00,-0.0004
2014.00,-0.0004
2011.00,-0.0002
2008.00,-0.0004
2005.00,-0.0005
2002.00,-0.0003
1999.00,0.0000
1996.00,0.0003
1993.00,0.0004
1990.00,0.0005
1987.00,0.0009
1984.00,0.0011
1981.00,0.0016
1978.00,0.0006
1975.00,-0.0001
1972.00,-0.0002
1969.00,-0.0002
1966.00,-0.0001
1963.00,0.0003
1960.00,0.0002
1957.00,0.0002
1954.00,0.0003
1951.00,0.0006
1948.00,0.0010
1945.00,0.0010
1942.00,0.0010
1939.00,0.0010
1936.00,0.0007
1933.00,0.0003
1930.00,0.0002
1927.00,0.0002
1924.00,0.0003
1921.00,0.0003
1918.00,0.0002
1915.00,0.0001
1912.00,0.0000
1909.00,0.0001
1906.00,0.0002
1903.00,0.0002
1900.00,0.0003
1897.00,0.0003
1894.00,0.0005
1891.00,0.0006
1888.00,0.0008
1885.00,0.0009
1882.00,0.0010
1879.00,0.0011
1876.00,0.0011
1873.00,0.0013
1870.00,0.0014
1867.00,0.0013
1864.00,0.0012
1861.00,0.0010
1858.00,0.0007
1855.00,0.0006
1852.00,0.0004
1849.00,0.0003
1846.00,0.0003
1843.00,0.0002
1840.00,0.0002
1837.00,0.0003
1834.00,0.0004
1831.00,0.0005
1828.00,0.0006
1825.00,0.0007
1822.00,0.0008
1819.00,0.0008
1816.00,0.0008
1813.00,0.0011
1810.00,0.0014
1807.00,0.0016
1804.00,0.0017
1801.00,0.0017
1798.00,0.0017
1795.00,0.0015
1792.00,0.0013
1789.00,0.0011
1786.00,0.0010
1783.00,0.0011
1780.00,0.0010
1777.00,0.0010
1774.00,0.0011
1771.00,0.0011
1768.00,0.0011
1765.00,0.0012
1762.00,0.0012
1759.00,0.0013
1756.00,0.0014
1753.00,0.0015
1750.00,0.0016
1747.00,0.0015
1744.00,0.0015
1741.00,0.0016
1738.00,0.0017
1735.00,0.0017
1732.00,0.0016
1729.00,0.0016
1726.00,0.0015
1723.00,0.0016
1720.00,0.0016
1717.00,0.0015
1714.00,0.0015
1711.00,0.0015
1708.00,0.0016
1705.00,0.0017
1702.00,0.0019
1699.00,0.0023
1696.00,0.0024
1693.00,0.0030
1690.00,0.0036
1687.00,0.0042
1684.00,0.0045
1681.00,0.0047
1678.00,0.0048
1675.00,0.0049
1672.00,0.0048
1669.00,0.0048
1666.00,0.0047
1663.00,0.0045
1660.00,0.0043
1657.00,0.0042
1654.00,0.0039
1651.00,0.0033
1648.00,0.0030
1645.00,0.0026
1642.00,0.0023
1639.00,0.0022
1636.00,0.0019
1633.00,0.0017
1630.00,0.0016
1627.00,0.0016
1624.00,0.0016
1621.00,0.0017
1618.00,0.0018
1615.00,0.0020
1612.00,0.0025
1609.00,0.0038
1606.00,0.0065
1603.00,0.0103
1600.00,0.0113
1597.00,0.0082
1594.00,0.0053
1591.00,0.0039
1588.00,0.0035
1585.00,0.0045
1582.00,0.0048
1579.00,0.0034
1576.00,0.0022
1573.00,0.0018
1570.00,0.0017
1567.00,0.0015
1564.00,0.0015
1561.00,0.0015
1558.00,0.0015
1555.00,0.0016
1552.00,0.0018
1549.00,0.0020
1546.00,0.0021
1543.00,0.0023
1540.00,0.0021
1537.00,0.0020
1534.00,0.0019
1531.00,0.0018
1528.00,0.0017
1525.00,0.0017
1522.00,0.0016
1519.00,0.0017
1516.00,0.0017
1513.00,0.0018
1510.00,0.0021
1507.00,0.0023
1504.00,0.0029
1501.00,0.0044
1498.00,0.0091
1495.00,0.0224
1492.00,0.0300
1489.00,0.0187
1486.00,0.0097
1483.00,0.0060
1480.00,0.0042
1477.00,0.0036
1474.00,0.0033
1471.00,0.0032
1468.00,0.0034
1465.00,0.0039
1462.00,0.0048
1459.00,0.0068
1456.00,0.0166
1453.00,0.0282
1450.00,0.0286
1447.00,0.0219
1444.00,0.0175
1441.00,0.0139
1438.00,0.0113
1435.00,0.0084
1432.00,0.0066
1429.00,0.0053
1426.00,0.0048
1423.00,0.0044
1420.00,0.0041
1417.00,0.0035
1414.00,0.0032
1411.00,0.0030
1408.00,0.0029
1405.00,0.0028
1402.00,0.0028
1399.00,0.0029
1396.00,0.0030
1393.00,0.0033
1390.00,0.0037
1387.00,0.0044
1384.00,0.0051
1381.00,0.0057
1378.00,0.0063
1375.00,0.0068
1372.00,0.0070
1369.00,0.0070
1366.00,0.0068
1363.00,0.0067
1360.00,0.0064
1357.00,0.0061
1354.00,0.0059
1351.00,0.0058
1348.00,0.0058
1345.00,0.0056
1342.00,0.0053
1339.00,0.0051
1336.00,0.0052
1333.00,0.0056
1330.00,0.0060
1327.00,0.0062
1324.00,0.0060
1321.00,0.0058
1318.00,0.0059
1315.00,0.0061
1312.00,0.0061
1309.00,0.0060
1306.00,0.0057
1303.00,0.0054
1300.00,0.0053
1297.00,0.0055
1294.00,0.0057
1291.00,0.0059
1288.00,0.0059
1285.00,0.0056
1282.00,0.0053
1279.00,0.0051
1276.00,0.0048
1273.00,0.0046
1270.00,0.0043
1267.00,0.0039
1264.00,0.0036
1261.00,0.0034
1258.00,0.0033
1255.00,0.0033
1252.00,0.0033
1249.00,0.0034
1246.00,0.0035
1243.00,0.0035
1240.00,0.0034
1237.00,0.0034
1234.00,0.0034
1231.00,0.0034
1228.00,0.0035
1225.00,0.0036
1222.00,0.0036
1219.00,0.0036
1216.00,0.0036
1213.00,0.0037
1210.00,0.0038
1207.00,0.0041
1204.00,0.0045
1201.00,0.0050
1198.00,0.0052
1195.00,0.0053
1192.00,0.0054
1189.00,0.0055
1186.00,0.0060
1183.00,0.0070
1180.00,0.0071
1177.00,0.0059
1174.00,0.0048
1171.00,0.0044
1168.00,0.0043
1165.00,0.0044
1162.00,0.0047
1159.00,0.0056
1156.00,0.0071
1153.00,0.0072
1150.00,0.0056
1147.00,0.0043
1144.00,0.0038
1141.00,0.0035
1138.00,0.0033
1135.00,0.0032
1132.00,0.0033
1129.00,0.0034
1126.00,0.0034
1123.00,0.0034
1120.00,0.0036
1117.00,0.0041
1114.00,0.0044
1111.00,0.0044
1108.00,0.0044
1105.00,0.0044
1102.00,0.0045
1099.00,0.0046
1096.00,0.0049
1093.00,0.0051
1090.00,0.0052
1087.00,0.0056
1084.00,0.0062
1081.00,0.0070
1078.00,0.0078
1075.00,0.0088
1072.00,0.0101
1069.00,0.0107
1066.00,0.0103
1063.00,0.0093
1060.00,0.0081
1057.00,0.0073
1054.00,0.0067
1051.00,0.0061
1048.00,0.0057
1045.00,0.0055
1042.00,0.0054
1039.00,0.0059
1036.00,0.0078
1033.00,0.0121
1030.00,0.0168
1027.00,0.0179
1024.00,0.0149
1021.00,0.0118
1018.00,0.0099
1015.00,0.0086
1012.00,0.0078
1009.00,0.0074
1006.00,0.0077
1003.00,0.0082
1000.00,0.0073
997.00,0.0062
994.00,0.0059
991.00,0.0059
988.00,0.0063
985.00,0.0068
982.00,0.0073
979.00,0.0074
976.00,0.0069
973.00,0.0066
970.00,0.0071
967.00,0.0077
964.00,0.0080
961.00,0.0075
958.00,0.0066
955.00,0.0061
952.00,0.0061
949.00,0.0064
946.00,0.0066
943.00,0.0066
940.00,0.0064
937.00,0.0058
934.00,0.0052
931.00,0.0048
928.00,0.0046
925.00,0.0047
922.00,0.0050
919.00,0.0056
916.00,0.0068
913.00,0.0087
910.00,0.0113
907.00,0.0129
904.00,0.0122
901.00,0.0097
898.00,0.0071
895.00,0.0055
892.00,0.0047
889.00,0.0043
886.00,0.0040
883.00,0.0038
880.00,0.0036
877.00,0.0036
874.00,0.0035
871.00,0.0033
868.00,0.0032
865.00,0.0032
862.00,0.0032
859.00,0.0032
856.00,0.0033
853.00,0.0038
850.00,0.0045
847.00,0.0055
844.00,0.0064
841.00,0.0067
838.00,0.0062
835.00,0.0049
832.00,0.0037
829.00,0.0033
826.00,0.0032
823.00,0.0031
820.00,0.0031
817.00,0.0031
814.00,0.0032
811.00,0.0032
808.00,0.0032
805.00,0.0032
802.00,0.0035
799.00,0.0037
796.00,0.0043
793.00,0.0051
790.00,0.0062
787.00,0.0075
784.00,0.0090
781.00,0.0108
778.00,0.0138
775.00,0.0179
772.00,0.0233
769.00,0.0298
766.00,0.0364
763.00,0.0428
760.00,0.0493
757.00,0.0542
754.00,0.0556
751.00,0.0551
748.00,0.0547
745.00,0.0501
742.00,0.0398
739.00,0.0294
736.00,0.0209
733.00,0.0140
730.00,0.0094
727.00,0.0074
724.00,0.0066
721.00,0.0064
718.00,0.0068
715.00,0.0083
712.00,0.0124
709.00,0.0230
706.00,0.0447
703.00,0.0795
700.00,0.1234
697.00,0.1651
694.00,0.1735
691.00,0.1284
688.00,0.0827
685.00,0.0581
682.00,0.0444
679.00,0.0356
676.00,0.0301
673.00,0.0266
670.00,0.0243
667.00,0.0208
664.00,0.0192
661.00,0.0169
658.00,0.0148
655.00,0.0133
652.00,0.0119
649.00,0.0106
646.00,0.0096
643.00,0.0091
640.00,0.0092
637.00,0.0095
634.00,0.0103
631.00,0.0109
628.00,0.0114
625.00,0.0118
622.00,0.0124
619.00,0.0122
616.00,0.0112
613.00,0.0106
610.00,0.0099
607.00,0.0097
604.00,0.0097
601.00,0.0098
598.00,0.0101
595.00,0.0107
592.00,0.0112
589.00,0.0117
586.00,0.0123
583.00,0.0135
580.00,0.0146
577.00,0.0162
574.00,0.0186
571.00,0.0216
568.00,0.0240
565.00,0.0261
562.00,0.0284
559.00,0.0309
556.00,0.0335
553.00,0.0361
550.00,0.0396
547.00,0.0444
544.00,0.0500
541.00,0.0563
538.00,0.0597
535.00,0.0559
532.00,0.0484
529.00,0.0398
526.00,0.0323
523.00,0.0270
520.00,0.0234
517.00,0.0206
514.00,0.0190
511.00,0.0175
508.00,0.0154
505.00,0.0143
502.00,0.0134
499.00,0.0126
496.00,0.0115
493.00,0.0108
490.00,0.0107
487.00,0.0107
484.00,0.0100
481.00,0.0095
478.00,0.0098
475.00,0.0088
472.00,0.0092
469.00,0.0091
466.00,0.0084
463.00,0.0079
460.00,0.0079
457.00,0.0081
454.00,0.0087
451.00,0.0086
448.00,0.0077
445.00,0.0074
442.00,0.0074
439.00,0.0072
436.00,0.0071
433.00,0.0066
430.00,0.0056
427.00,0.0048
424.00,0.0063
421.00,0.0062
418.00,0.0058
415.00,0.0061
412.00,0.0055
409.00,0.0054
406.00,0.0074
403.00,0.0069
400.00,0.0072