File: FTIR/Olivia/2025_08_15_Polystyrene_film_scan1.csv
Created as New Dataset,Sample 112 By YargerLab Date Friday, August 15 2025
cm-1,A
4000.00,0.0014
3997.00,0.0014
3994.00,0.0014
3991.00,0.0014
3988.00,0.0013
3985.00,0.0013
3982.00,0.0013
3979.00,0.0014
3976.00,0.0013
3973.00,0.0013
3970.00,0.0013
3967.00,0.0013
3964.00,0.0013
3961.00,0.0013
3958.00,0.0013
3955.00,0.0013
3952.00,0.0012
3949.00,0.0012
3946.00,0.0013
3943.00,0.0013
3940.00,0.0013
3937.00,0.0013
3934.00,0.0013
3931.00,0.0013
3928.00,0.0013
3925.00,0.0013
3922.00,0.0013
3919.00,0.0013
3916.00,0.0012
3913.00,0.0012
3910.00,0.0013
3907.00,0.0013
3904.00,0.0013
3901.00,0.0013
3898.00,0.0013
3895.00,0.0013
3892.00,0.0013
3889.00,0.0012
3886.00,0.0012
3883.00,0.0013
3880.00,0.0012
3877.00,0.0013
3874.00,0.0013
3871.00,0.0013
3868.00,0.0012
3865.00,0.0012
3862.00,0.0012
3859.00,0.0012
3856.00,0.0012
3853.00,0.0012
3850.00,0.0012
3847.00,0.0013
3844.00,0.0012
3841.00,0.0012
3838.00,0.0012
3835.00,0.0012
3832.00,0.0013
3829.00,0.0013
3826.00,0.0012
3823.00,0.0012
3820.00,0.0012
3817.00,0.0012
3814.00,0.0012
3811.00,0.0012
3808.00,0.0012
3805.00,0.0013
3802.00,0.0013
3799.00,0.0013
3796.00,0.0013
3793.00,0.0012
3790.00,0.0012
3787.00,0.0012
3784.00,0.0012
3781.00,0.0012
3778.00,0.0012
3775.00,0.0011
3772.00,0.0012
3769.00,0.0012
3766.00,0.0012
3763.00,0.0012
3760.00,0.0012
3757.00,0.0012
3754.00,0.0012
3751.00,0.0012
3748.00,0.0011
3745.00,0.0012
3742.00,0.0011
3739.00,0.0010
3736.00,0.0011
3733.00,0.0012
3730.00,0.0012
3727.00,0.0012
3724.00,0.0012
3721.00,0.0011
3718.00,0.0011
3715.00,0.0012
3712.00,0.0011
3709.00,0.0011
3706.00,0.0012
3703.00,0.0011
3700.00,0.0011
3697.00,0.0011
3694.00,0.0011
3691.00,0.0011
3688.00,0.0011
3685.00,0.0011
3682.00,0.0012
3679.00,0.0012
3676.00,0.0012
3673.00,0.0013
3670.00,0.0013
3667.00,0.0013
3664.00,0.0012
3661.00,0.0012
3658.00,0.0012
3655.00,0.0013
3652.00,0.0013
3649.00,0.0013
3646.00,0.0013
3643.00,0.0013
3640.00,0.0012
3637.00,0.0013
3634.00,0.0013
3631.00,0.0012
3628.00,0.0013
3625.00,0.0013
3622.00,0.0014
3619.00,0.0014
3616.00,0.0013
3613.00,0.0013
3610.00,0.0014
3607.00,0.0014
3604.00,0.0014
3601.00,0.0014
3598.00,0.0015
3595.00,0.0015
3592.00,0.0015
3589.00,0.0015
3586.00,0.0015
3583.00,0.0015
3580.00,0.0016
3577.00,0.0016
3574.00,0.0016
3571.00,0.0016
3568.00,0.0016
3565.00,0.0016
3562.00,0.0017
3559.00,0.0017
3556.00,0.0017
3553.00,0.0017
3550.00,0.0018
3547.00,0.0018
3544.00,0.0019
3541.00,0.0019
3538.00,0.0019
3535.00,0.0019
3532.00,0.0019
3529.00,0.0020
3526.00,0.0020
3523.00,0.0020
3520.00,0.0021
3517.00,0.0021
3514.00,0.0021
3511.00,0.0022
3508.00,0.0022
3505.00,0.0022
3502.00,0.0022
3499.00,0.0022
3496.00,0.0022
3493.00,0.0023
3490.00,0.0023
3487.00,0.0023
3484.00,0.0024
3481.00,0.0024
3478.00,0.0023
3475.00,0.0024
3472.00,0.0025
3469.00,0.0025
3466.00,0.0025
3463.00,0.0025
3460.00,0.0025
3457.00,0.0025
3454.00,0.0025
3451.00,0.0025
3448.00,0.0025
3445.00,0.0026
3442.00,0.0025
3439.00,0.0025
3436.00,0.0026
3433.00,0.0025
3430.00,0.0025
3427.00,0.0025
3424.00,0.0025
3421.00,0.0025
3418.00,0.0025
3415.00,0.0025
3412.00,0.0025
3409.00,0.0025
3406.00,0.0025
3403.00,0.0025
3400.00,0.0025
3397.00,0.0025
3394.00,0.0025
3391.00,0.0025
3388.00,0.0025
3385.00,0.0025
3382.00,0.0025
3379.00,0.0025
3376.00,0.0024
3373.00,0.0024
3370.00,0.0025
3367.00,0.0025
3364.00,0.0025
3361.00,0.0024
3358.00,0.0025
3355.00,0.0025
3352.00,0.0024
3349.00,0.0024
3346.00,0.0024
3343.00,0.0024
3340.00,0.0023
3337.00,0.0023
3334.00,0.0024
3331.00,0.0023
3328.00,0.0023
3325.00,0.0023
3322.00,0.0024
3319.00,0.0023
3316.00,0.0023
3313.00,0.0023
3310.00,0.0023
3307.00,0.0023
3304.00,0.0022
3301.00,0.0022
3298.00,0.0022
3295.00,0.0022
3292.00,0.0023
3289.00,0.0022
3286.00,0.0022
3283.00,0.0022
3280.00,0.0022
3277.00,0.0022
3274.00,0.0022
3271.00,0.0021
3268.00,0.0021
3265.00,0.0021
3262.00,0.0022
3259.00,0.0021
3256.00,0.0021
3253.00,0.0021
3250.00,0.0021
3247.00,0.0021
3244.00,0.0021
3241.00,0.0021
3238.00,0.0021
3235.00,0.0020
3232.00,0.0020
3229.00,0.0021
3226.00,0.0020
3223.00,0.0020
3220.00,0.0019
3217.00,0.0019
3214.00,0.0020
3211.00,0.0020
3208.00,0.0021
3205.00,0.0021
3202.00,0.0021
3199.00,0.0020
3196.00,0.0020
3193.00,0.0020
3190.00,0.0020
3187.00,0.0019
3184.00,0.0019
3181.00,0.0019
3178.00,0.0019
3175.00,0.0019
3172.00,0.0019
3169.00,0.0020
3166.00,0.0020
3163.00,0.0020
3160.00,0.0019
3157.00,0.0019
3154.00,0.0019
3151.00,0.0018
3148.00,0.0018
3145.00,0.0017
3142.00,0.0017
3139.00,0.0017
3136.00,0.0018
3133.00,0.0018
3130.00,0.0018
3127.00,0.0018
3124.00,0.0019
3121.00,0.0019
3118.00,0.0021
3115.00,0.0023
3112.00,0.0027
3109.00,0.0033
3106.00,0.0039
3103.00,0.0040
3100.00,0.0039
3097.00,0.0037
3094.00,0.0041
3091.00,0.0051
3088.00,0.0070
3085.00,0.0089
3082.00,0.0094
3079.00,0.0082
3076.00,0.0071
3073.00,0.0069
3070.00,0.0077
3067.00,0.0094
3064.00,0.0116
3061.00,0.0130
3058.00,0.0124
3055.00,0.0103
3052.00,0.0084
3049.00,0.0071
3046.00,0.0066
3043.00,0.0069
3040.00,0.0080
3037.00,0.0101
3034.00,0.0136
3031.00,0.0187
3028.00,0.0236
3025.00,0.0245
3022.00,0.0201
3019.00,0.0138
3016.00,0.0095
3013.00,0.0073
3010.00,0.0063
3007.00,0.0065
3004.00,0.0071
3001.00,0.0073
2998.00,0.0063
2995.00,0.0051
2992.00,0.0044
2989.00,0.0042
2986.00,0.0042
2983.00,0.0042
2980.00,0.0044
2977.00,0.0046
2974.00,0.0048
2971.00,0.0051
2968.00,0.0054
2965.00,0.0059
2962.00,0.0065
2959.00,0.0071
2956.00,0.0079
2953.00,0.0088
2950.00,0.0100
2947.00,0.0116
2944.00,0.0136
2941.00,0.0160
2938.00,0.0190
2935.00,0.0222
2932.00,0.0256
2929.00,0.0286
2926.00,0.0306
2923.00,0.0315
2920.00,0.0311
2917.00,0.0296
2914.00,0.0277
2911.00,0.0253
2908.00,0.0229
2905.00,0.0205
2902.00,0.0182
2899.00,0.0161
2896.00,0.0142
2893.00,0.0129
2890.00,0.0119
2887.00,0.0110
2884.00,0.0103
2881.00,0.0096
2878.00,0.0090
2875.00,0.0085
2872.00,0.0082
2869.00,0.0082
2866.00,0.0084
2863.00,0.0093
2860.00,0.0106
2857.00,0.0120
2854.00,0.0132
2851.00,0.0139
2848.00,0.0135
2845.00,0.0121
2842.00,0.0099
2839.00,0.0075
2836.00,0.0057
2833.00,0.0047
2830.00,0.0040
2827.00,0.0037
2824.00,0.0035
2821.00,0.0033
2818.00,0.0031
2815.00,0.0030
2812.00,0.0030
2809.00,0.0030
2806.00,0.0029
2803.00,0.0028
2800.00,0.0027
2797.00,0.0027
2794.00,0.0026
2791.00,0.0025
2788.00,0.0025
2785.00,0.0025
2782.00,0.0025
2779.00,0.0024
2776.00,0.0024
2773.00,0.0023
2770.00,0.0023
2767.00,0.0022
2764.00,0.0022
2761.00,0.0022
2758.00,0.0022
2755.00,0.0021
2752.00,0.0021
2749.00,0.0021
2746.00,0.0021
2743.00,0.0021
2740.00,0.0021
2737.00,0.0022
2734.00,0.0022
2731.00,0.0022
2728.00,0.0022
2725.00,0.0022
2722.00,0.0022
2719.00,0.0022
2716.00,0.0022
2713.00,0.0022
2710.00,0.0022
2707.00,0.0021
2704.00,0.0021
2701.00,0.0021
2698.00,0.0021
2695.00,0.0021
2692.00,0.0021
2689.00,0.0021
2686.00,0.0021
2683.00,0.0021
2680.00,0.0021
2677.00,0.0021
2674.00,0.0021
2671.00,0.0021
2668.00,0.0021
2665.00,0.0021
2662.00,0.0022
2659.00,0.0023
2656.00,0.0023
2653.00,0.0023
2650.00,0.0023
2647.00,0.0022
2644.00,0.0022
2641.00,0.0022
2638.00,0.0023
2635.00,0.0023
2632.00,0.0023
2629.00,0.0022
2626.00,0.0022
2623.00,0.0021
2620.00,0.0020
2617.00,0.0020
2614.00,0.0020
2611.00,0.0020
2608.00,0.0021
2605.00,0.0021
2602.00,0.0020
2599.00,0.0020
2596.00,0.0019
2593.00,0.0019
2590.00,0.0019
2587.00,0.0018
2584.00,0.0019
2581.00,0.0019
2578.00,0.0018
2575.00,0.0018
2572.00,0.0018
2569.00,0.0017
2566.00,0.0018
2563.00,0.0018
2560.00,0.0017
2557.00,0.0016
2554.00,0.0016
2551.00,0.0016
2548.00,0.0016
2545.00,0.0017
2542.00,0.0017
2539.00,0.0017
2536.00,0.0017
2533.00,0.0017
2530.00,0.0015
2527.00,0.0016
2524.00,0.0016
2521.00,0.0017
2518.00,0.0016
2515.00,0.0015
2512.00,0.0015
2509.00,0.0015
2506.00,0.0015
2503.00,0.0015
2500.00,0.0015
2497.00,0.0015
2494.00,0.0015
2491.00,0.0015
2488.00,0.0014
2485.00,0.0014
2482.00,0.0015
2479.00,0.0015
2476.00,0.0014
2473.00,0.0013
2470.00,0.0012
2467.00,0.0012
2464.00,0.0012
2461.00,0.0012
2458.00,0.0013
2455.00,0.0014
2452.00,0.0013
2449.00,0.0014
2446.00,0.0013
2443.00,0.0013
2440.00,0.0013
2437.00,0.0013
2434.00,0.0012
2431.00,0.0012
2428.00,0.0012
2425.00,0.0012
2422.00,0.0012
2419.00,0.0012
2416.00,0.0011
2413.00,0.0011
2410.00,0.0012
2407.00,0.0011
2404.00,0.0011
2401.00,0.0011
2398.00,0.0010
2395.00,0.0011
2392.00,0.0011
2389.00,0.0011
2386.00,0.0011
2383.00,0.0011
2380.00,0.0011
2377.00,0.0012
2374.00,0.0011
2371.00,0.0010
2368.00,0.0012
2365.00,0.0012
2362.00,0.0013
2359.00,0.0014
2356.00,0.0014
2353.00,0.0014
2350.00,0.0015
2347.00,0.0015
2344.00,0.0016
2341.00,0.0017
2338.00,0.0018
2335.00,0.0017
2332.00,0.0016
2329.00,0.0016
2326.00,0.0020
2323.00,0.0019
2320.00,0.0017
2317.00,0.0017
2314.00,0.0017
2311.00,0.0018
2308.00,0.0016
2305.00,0.0016
2302.00,0.0016
2299.00,0.0015
2296.00,0.0015
2293.00,0.0017
2290.00,0.0019
2287.00,0.0018
2284.00,0.0016
2281.00,0.0015
2278.00,0.0014
2275.00,0.0013
2272.00,0.0013
2269.00,0.0013
2266.00,0.0014
2263.00,0.0013
2260.00,0.0014
2257.00,0.0014
2254.00,0.0012
2251.00,0.0012
2248.00,0.0012
2245.00,0.0011
2242.00,0.0013
2239.00,0.0014
2236.00,0.0012
2233.00,0.0012
2230.00,0.0012
2227.00,0.0011
2224.00,0.0012
2221.00,0.0010
2218.00,0.0010
2215.00,0.0010
2212.00,0.0009
2209.00,0.0010
2206.00,0.0010
2203.00,0.0010
2200.00,0.0012
2197.00,0.0011
2194.00,0.0012
2191.00,0.0011
2188.00,0.0009
2185.00,0.0010
2182.00,0.0008
2179.00,0.0009
2176.00,0.0008
2173.00,0.0011
2170.00,0.0011
2167.00,0.0010
2164.00,0.0012
2161.00,0.0001
2158.00,-0.0014
2155.00,-0.0005
2152.00,-0.0003
2149.00,0.0002
2146.00,0.0000
2143.00,0.0000
2140.00,0.0001
2137.00,-0.0001
2134.00,-0.0004
2131.00,0.0000
2128.00,0.0002
2125.00,0.0003
2122.00,0.0005
2119.00,0.0006
2116.00,0.0007
2113.00,0.0007
2110.00,0.0007
2107.00,0.0006
2104.00,0.0007
2101.00,0.0006
2098.00,0.0006
2095.00,0.0004
2092.00,0.0006
2089.00,0.0006
2086.00,0.0007
2083.00,0.0008
2080.00,0.0007
2077.00,0.0008
2074.00,0.0006
2071.00,0.0006
2068.00,0.0005
2065.00,0.0004
2062.00,0.0002
2059.00,0.0003
2056.00,0.0004
2053.00,0.0006
2050.00,0.0007
2047.00,0.0003
2044.00,0.0003
2041.00,0.0004
2038.00,0.0003
2035.00,-0.0000
2032.00,-0.0000
2029.00,-0.0001
2026.00,0.0000
2023.00,-0.0002
2020.00,-0.0002
2017.00,-0.0001
2014.00,0.0005
2011.00,0.0004
2008.00,-0.0000
2005.00,-0.0002
2002.00,-0.0001
1999.00,0.0002
1996.00,0.0005
1993.00,0.0006
1990.00,0.0007
1987.00,0.0006
1984.00,0.0010
1981.00,0.0014
1978.00,0.0005
1975.00,0.0004
1972.00,0.0006
1969.00,0.0008
1966.00,0.0012
1963.00,0.0018
1960.00,0.0020
1957.00,0.0023
1954.00,0.0023
1951.00,0.0027
1948.00,0.0032
1945.00,0.0035
1942.00,0.0034
1939.00,0.0033
1936.00,0.0027
1933.00,0.0020
1930.00,0.0013
1927.00,0.0011
1924.00,0.0011
1921.00,0.0010
1918.00,0.0008
1915.00,0.0008
1912.00,0.0009
1909.00,0.0009
1906.00,0.0009
1903.00,0.0010
1900.00,0.0011
1897.00,0.0014
1894.00,0.0017
1891.00,0.0020
1888.00,0.0024
1885.00,0.0027
1882.00,0.0028
1879.00,0.0029
1876.00,0.0031
1873.00,0.0034
1870.00,0.0034
1867.00,0.0033
1864.00,0.0029
1861.00,0.0025
1858.00,0.0020
1855.00,0.0016
1852.00,0.0014
1849.00,0.0012
1846.00,0.0011
1843.00,0.0011
1840.00,0.0011
1837.00,0.0011
1834.00,0.0012
1831.00,0.0014
1828.00,0.0016
1825.00,0.0019
1822.00,0.0021
1819.00,0.0024
1816.00,0.0027
1813.00,0.0030
1810.00,0.0034
1807.00,0.0038
1804.00,0.0041
1801.00,0.0041
1798.00,0.0038
1795.00,0.0033
1792.00,0.0028
1789.00,0.0024
1786.00,0.0023
1783.00,0.0022
1780.00,0.0023
1777.00,0.0024
1774.00,0.0025
1771.00,0.0026
1768.00,0.0026
1765.00,0.0028
1762.00,0.0030
1759.00,0.0034
1756.00,0.0039
1753.00,0.0044
1750.00,0.0050
1747.00,0.0055
1744.00,0.0058
1741.00,0.0060
1738.00,0.0061
1735.00,0.0059
1732.00,0.0057
1729.00,0.0053
1726.00,0.0049
1723.00,0.0046
1720.00,0.0042
1717.00,0.0040
1714.00,0.0039
1711.00,0.0038
1708.00,0.0037
1705.00,0.0038
1702.00,0.0038
1699.00,0.0040
1696.00,0.0043
1693.00,0.0049
1690.00,0.0054
1687.00,0.0057
1684.00,0.0066
1681.00,0.0071
1678.00,0.0072
1675.00,0.0076
1672.00,0.0077
1669.00,0.0079
1666.00,0.0078
1663.00,0.0076
1660.00,0.0073
1657.00,0.0067
1654.00,0.0061
1651.00,0.0057
1648.00,0.0052
1645.00,0.0048
1642.00,0.0044
1639.00,0.0041
1636.00,0.0038
1633.00,0.0037
1630.00,0.0036
1627.00,0.0037
1624.00,0.0038
1621.00,0.0040
1618.00,0.0041
1615.00,0.0048
1612.00,0.0058
1609.00,0.0090
1606.00,0.0158
1603.00,0.0239
1600.00,0.0246
1597.00,0.0170
1594.00,0.0111
1591.00,0.0083
1588.00,0.0079
1585.00,0.0103
1582.00,0.0102
1579.00,0.0067
1576.00,0.0046
1573.00,0.0037
1570.00,0.0033
1567.00,0.0030
1564.00,0.0028
1561.00,0.0028
1558.00,0.0028
1555.00,0.0031
1552.00,0.0034
1549.00,0.0038
1546.00,0.0040
1543.00,0.0041
1540.00,0.0041
1537.00,0.0038
1534.00,0.0035
1531.00,0.0031
1528.00,0.0029
1525.00,0.0028
1522.00,0.0028
1519.00,0.0029
1516.00,0.0031
1513.00,0.0033
1510.00,0.0036
1507.00,0.0044
1504.00,0.0061
1501.00,0.0092
1498.00,0.0207
1495.00,0.0524
1492.00,0.0605
1489.00,0.0352
1486.00,0.0189
1483.00,0.0117
1480.00,0.0083
1477.00,0.0071
1474.00,0.0067
1471.00,0.0071
1468.00,0.0077
1465.00,0.0088
1462.00,0.0104
1459.00,0.0145
1456.00,0.0414
1453.00,0.0631
1450.00,0.0584
1447.00,0.0448
1444.00,0.0353
1441.00,0.0274
1438.00,0.0214
1435.00,0.0158
1432.00,0.0119
1429.00,0.0094
1426.00,0.0082
1423.00,0.0074
1420.00,0.0068
1417.00,0.0063
1414.00,0.0059
1411.00,0.0056
1408.00,0.0055
1405.00,0.0055
1402.00,0.0056
1399.00,0.0058
1396.00,0.0060
1393.00,0.0068
1390.00,0.0078
1387.00,0.0094
1384.00,0.0108
1381.00,0.0120
1378.00,0.0131
1375.00,0.0141
1372.00,0.0145
1369.00,0.0142
1366.00,0.0138
1363.00,0.0134
1360.00,0.0129
1357.00,0.0122
1354.00,0.0119
1351.00,0.0118
1348.00,0.0116
1345.00,0.0112
1342.00,0.0105
1339.00,0.0102
1336.00,0.0105
1333.00,0.0112
1330.00,0.0120
1327.00,0.0121
1324.00,0.0116
1321.00,0.0113
1318.00,0.0114
1315.00,0.0118
1312.00,0.0120
1309.00,0.0117
1306.00,0.0112
1303.00,0.0108
1300.00,0.0105
1297.00,0.0106
1294.00,0.0109
1291.00,0.0107
1288.00,0.0102
1285.00,0.0098
1282.00,0.0095
1279.00,0.0092
1276.00,0.0087
1273.00,0.0081
1270.00,0.0076
1267.00,0.0072
1264.00,0.0070
1261.00,0.0068
1258.00,0.0068
1255.00,0.0068
1252.00,0.0069
1249.00,0.0070
1246.00,0.0071
1243.00,0.0070
1240.00,0.0070
1237.00,0.0069
1234.00,0.0068
1231.00,0.0069
1228.00,0.0070
1225.00,0.0070
1222.00,0.0070
1219.00,0.0070
1216.00,0.0070
1213.00,0.0072
1210.00,0.0076
1207.00,0.0081
1204.00,0.0088
1201.00,0.0096
1198.00,0.0103
1195.00,0.0105
1192.00,0.0106
1189.00,0.0108
1186.00,0.0120
1183.00,0.0139
1180.00,0.0139
1177.00,0.0114
1174.00,0.0095
1171.00,0.0089
1168.00,0.0087
1165.00,0.0088
1162.00,0.0096
1159.00,0.0116
1156.00,0.0141
1153.00,0.0137
1150.00,0.0107
1147.00,0.0084
1144.00,0.0073
1141.00,0.0066
1138.00,0.0063
1135.00,0.0061
1132.00,0.0061
1129.00,0.0062
1126.00,0.0062
1123.00,0.0064
1120.00,0.0069
1117.00,0.0074
1114.00,0.0080
1111.00,0.0081
1108.00,0.0079
1105.00,0.0078
1102.00,0.0080
1099.00,0.0083
1096.00,0.0086
1093.00,0.0089
1090.00,0.0095
1087.00,0.0101
1084.00,0.0112
1081.00,0.0125
1078.00,0.0138
1075.00,0.0157
1072.00,0.0180
1069.00,0.0191
1066.00,0.0182
1063.00,0.0161
1060.00,0.0143
1057.00,0.0129
1054.00,0.0118
1051.00,0.0109
1048.00,0.0102
1045.00,0.0099
1042.00,0.0098
1039.00,0.0108
1036.00,0.0145
1033.00,0.0226
1030.00,0.0309
1027.00,0.0320
1024.00,0.0259
1021.00,0.0205
1018.00,0.0173
1015.00,0.0151
1012.00,0.0135
1009.00,0.0128
1006.00,0.0134
1003.00,0.0140
1000.00,0.0121
997.00,0.0102
994.00,0.0099
991.00,0.0100
988.00,0.0106
985.00,0.0114
982.00,0.0123
979.00,0.0124
976.00,0.0118
973.00,0.0113
970.00,0.0119
967.00,0.0132
964.00,0.0138
961.00,0.0127
958.00,0.0111
955.00,0.0103
952.00,0.0101
949.00,0.0105
946.00,0.0110
943.00,0.0112
940.00,0.0106
937.00,0.0097
934.00,0.0087
931.00,0.0080
928.00,0.0078
925.00,0.0081
922.00,0.0086
919.00,0.0096
916.00,0.0115
913.00,0.0150
910.00,0.0194
907.00,0.0221
904.00,0.0207
901.00,0.0161
898.00,0.0117
895.00,0.0092
892.00,0.0080
889.00,0.0073
886.00,0.0068
883.00,0.0065
880.00,0.0062
877.00,0.0059
874.00,0.0059
871.00,0.0058
868.00,0.0057
865.00,0.0056
862.00,0.0055
859.00,0.0056
856.00,0.0058
853.00,0.0064
850.00,0.0078
847.00,0.0098
844.00,0.0114
841.00,0.0116
838.00,0.0104
835.00,0.0084
832.00,0.0065
829.00,0.0057
826.00,0.0055
823.00,0.0054
820.00,0.0054
817.00,0.0056
814.00,0.0057
811.00,0.0057
808.00,0.0059
805.00,0.0060
802.00,0.0064
799.00,0.0070
796.00,0.0078
793.00,0.0091
790.00,0.0109
787.00,0.0130
784.00,0.0156
781.00,0.0190
778.00,0.0242
775.00,0.0316
772.00,0.0412
769.00,0.0527
766.00,0.0642
763.00,0.0753
760.00,0.0870
757.00,0.0959
754.00,0.0976
751.00,0.0965
748.00,0.0955
745.00,0.0866
742.00,0.0678
739.00,0.0498
736.00,0.0357
733.00,0.0238
730.00,0.0162
727.00,0.0129
724.00,0.0117
721.00,0.0115
718.00,0.0122
715.00,0.0148
712.00,0.0219
709.00,0.0399
706.00,0.0762
703.00,0.1333
700.00,0.2073
697.00,0.2834
694.00,0.2959
691.00,0.2077
688.00,0.1295
685.00,0.0895
682.00,0.0681
679.00,0.0554
676.00,0.0474
673.00,0.0421
670.00,0.0381
667.00,0.0343
664.00,0.0307
661.00,0.0271
658.00,0.0239
655.00,0.0211
652.00,0.0190
649.00,0.0177
646.00,0.0163
643.00,0.0156
640.00,0.0156
637.00,0.0163
634.00,0.0175
631.00,0.0186
628.00,0.0196
625.00,0.0201
622.00,0.0212
619.00,0.0208
616.00,0.0192
613.00,0.0179
610.00,0.0170
607.00,0.0167
604.00,0.0168
601.00,0.0173
598.00,0.0178
595.00,0.0185
592.00,0.0189
589.00,0.0196
586.00,0.0208
583.00,0.0223
580.00,0.0245
577.00,0.0276
574.00,0.0315
571.00,0.0357
568.00,0.0397
565.00,0.0433
562.00,0.0470
559.00,0.0511
556.00,0.0550
553.00,0.0595
550.00,0.0651
547.00,0.0729
544.00,0.0822
541.00,0.0912
538.00,0.0950
535.00,0.0895
532.00,0.0761
529.00,0.0619
526.00,0.0499
523.00,0.0414
520.00,0.0359
517.00,0.0319
514.00,0.0290
511.00,0.0262
508.00,0.0237
505.00,0.0218
502.00,0.0209
499.00,0.0193
496.00,0.0181
493.00,0.0169
490.00,0.0169
487.00,0.0158
484.00,0.0151
481.00,0.0150
478.00,0.0147
475.00,0.0139
472.00,0.0142
469.00,0.0137
466.00,0.0132
463.00,0.0130
460.00,0.0126
457.00,0.0125
454.00,0.0122
451.00,0.0130
448.00,0.0136
445.00,0.0125
442.00,0.0117
439.00,0.0116
436.00,0.0122
433.00,0.0120
430.00,0.0112
427.00,0.0105
424.00,0.0104
421.00,0.0112
418.00,0.0106
415.00,0.0098
412.00,0.0105
409.00,0.0130
406.00,0.0133
403.00,0.0131
400.00,0.0100