File: FTIR/Olivia/2025_07_21_Polystyrene_Std_scan2.csv
Created as New Dataset,Sample 841 By YargerLab Date Monday, July 21 2025
cm-1,A
4000.00,0.0008
3997.00,0.0008
3994.00,0.0008
3991.00,0.0007
3988.00,0.0008
3985.00,0.0008
3982.00,0.0007
3979.00,0.0008
3976.00,0.0008
3973.00,0.0008
3970.00,0.0008
3967.00,0.0008
3964.00,0.0007
3961.00,0.0007
3958.00,0.0008
3955.00,0.0008
3952.00,0.0007
3949.00,0.0007
3946.00,0.0007
3943.00,0.0008
3940.00,0.0007
3937.00,0.0007
3934.00,0.0007
3931.00,0.0007
3928.00,0.0007
3925.00,0.0007
3922.00,0.0007
3919.00,0.0007
3916.00,0.0007
3913.00,0.0007
3910.00,0.0007
3907.00,0.0007
3904.00,0.0007
3901.00,0.0007
3898.00,0.0007
3895.00,0.0007
3892.00,0.0007
3889.00,0.0008
3886.00,0.0007
3883.00,0.0007
3880.00,0.0006
3877.00,0.0006
3874.00,0.0007
3871.00,0.0006
3868.00,0.0006
3865.00,0.0007
3862.00,0.0007
3859.00,0.0008
3856.00,0.0007
3853.00,0.0006
3850.00,0.0006
3847.00,0.0007
3844.00,0.0007
3841.00,0.0006
3838.00,0.0007
3835.00,0.0007
3832.00,0.0007
3829.00,0.0007
3826.00,0.0008
3823.00,0.0007
3820.00,0.0007
3817.00,0.0006
3814.00,0.0007
3811.00,0.0008
3808.00,0.0008
3805.00,0.0008
3802.00,0.0007
3799.00,0.0007
3796.00,0.0007
3793.00,0.0007
3790.00,0.0008
3787.00,0.0008
3784.00,0.0008
3781.00,0.0008
3778.00,0.0008
3775.00,0.0008
3772.00,0.0008
3769.00,0.0008
3766.00,0.0008
3763.00,0.0008
3760.00,0.0008
3757.00,0.0008
3754.00,0.0008
3751.00,0.0008
3748.00,0.0008
3745.00,0.0007
3742.00,0.0007
3739.00,0.0007
3736.00,0.0007
3733.00,0.0006
3730.00,0.0006
3727.00,0.0007
3724.00,0.0007
3721.00,0.0007
3718.00,0.0007
3715.00,0.0007
3712.00,0.0006
3709.00,0.0006
3706.00,0.0007
3703.00,0.0007
3700.00,0.0007
3697.00,0.0007
3694.00,0.0007
3691.00,0.0006
3688.00,0.0006
3685.00,0.0007
3682.00,0.0008
3679.00,0.0008
3676.00,0.0006
3673.00,0.0005
3670.00,0.0005
3667.00,0.0006
3664.00,0.0007
3661.00,0.0006
3658.00,0.0007
3655.00,0.0006
3652.00,0.0006
3649.00,0.0006
3646.00,0.0006
3643.00,0.0007
3640.00,0.0007
3637.00,0.0006
3634.00,0.0006
3631.00,0.0006
3628.00,0.0006
3625.00,0.0006
3622.00,0.0007
3619.00,0.0007
3616.00,0.0007
3613.00,0.0007
3610.00,0.0008
3607.00,0.0007
3604.00,0.0007
3601.00,0.0007
3598.00,0.0007
3595.00,0.0007
3592.00,0.0008
3589.00,0.0008
3586.00,0.0008
3583.00,0.0008
3580.00,0.0008
3577.00,0.0008
3574.00,0.0008
3571.00,0.0009
3568.00,0.0007
3565.00,0.0007
3562.00,0.0009
3559.00,0.0009
3556.00,0.0009
3553.00,0.0009
3550.00,0.0009
3547.00,0.0009
3544.00,0.0009
3541.00,0.0010
3538.00,0.0010
3535.00,0.0010
3532.00,0.0010
3529.00,0.0010
3526.00,0.0010
3523.00,0.0010
3520.00,0.0011
3517.00,0.0011
3514.00,0.0011
3511.00,0.0011
3508.00,0.0011
3505.00,0.0010
3502.00,0.0010
3499.00,0.0011
3496.00,0.0012
3493.00,0.0012
3490.00,0.0012
3487.00,0.0012
3484.00,0.0012
3481.00,0.0012
3478.00,0.0012
3475.00,0.0012
3472.00,0.0012
3469.00,0.0013
3466.00,0.0013
3463.00,0.0013
3460.00,0.0013
3457.00,0.0013
3454.00,0.0012
3451.00,0.0013
3448.00,0.0013
3445.00,0.0013
3442.00,0.0013
3439.00,0.0012
3436.00,0.0013
3433.00,0.0013
3430.00,0.0013
3427.00,0.0012
3424.00,0.0012
3421.00,0.0012
3418.00,0.0012
3415.00,0.0012
3412.00,0.0012
3409.00,0.0013
3406.00,0.0013
3403.00,0.0012
3400.00,0.0013
3397.00,0.0013
3394.00,0.0013
3391.00,0.0013
3388.00,0.0012
3385.00,0.0013
3382.00,0.0013
3379.00,0.0013
3376.00,0.0013
3373.00,0.0013
3370.00,0.0012
3367.00,0.0013
3364.00,0.0013
3361.00,0.0013
3358.00,0.0013
3355.00,0.0013
3352.00,0.0012
3349.00,0.0012
3346.00,0.0012
3343.00,0.0012
3340.00,0.0013
3337.00,0.0013
3334.00,0.0012
3331.00,0.0012
3328.00,0.0012
3325.00,0.0012
3322.00,0.0013
3319.00,0.0012
3316.00,0.0012
3313.00,0.0012
3310.00,0.0013
3307.00,0.0013
3304.00,0.0012
3301.00,0.0012
3298.00,0.0013
3295.00,0.0012
3292.00,0.0012
3289.00,0.0012
3286.00,0.0012
3283.00,0.0012
3280.00,0.0013
3277.00,0.0013
3274.00,0.0012
3271.00,0.0011
3268.00,0.0012
3265.00,0.0012
3262.00,0.0012
3259.00,0.0012
3256.00,0.0012
3253.00,0.0012
3250.00,0.0012
3247.00,0.0012
3244.00,0.0012
3241.00,0.0012
3238.00,0.0012
3235.00,0.0011
3232.00,0.0011
3229.00,0.0011
3226.00,0.0011
3223.00,0.0011
3220.00,0.0011
3217.00,0.0011
3214.00,0.0011
3211.00,0.0011
3208.00,0.0012
3205.00,0.0011
3202.00,0.0011
3199.00,0.0012
3196.00,0.0012
3193.00,0.0011
3190.00,0.0011
3187.00,0.0011
3184.00,0.0011
3181.00,0.0011
3178.00,0.0011
3175.00,0.0011
3172.00,0.0012
3169.00,0.0012
3166.00,0.0012
3163.00,0.0013
3160.00,0.0012
3157.00,0.0012
3154.00,0.0012
3151.00,0.0011
3148.00,0.0011
3145.00,0.0011
3142.00,0.0011
3139.00,0.0011
3136.00,0.0011
3133.00,0.0011
3130.00,0.0012
3127.00,0.0012
3124.00,0.0011
3121.00,0.0012
3118.00,0.0013
3115.00,0.0015
3112.00,0.0018
3109.00,0.0022
3106.00,0.0026
3103.00,0.0029
3100.00,0.0028
3097.00,0.0027
3094.00,0.0029
3091.00,0.0035
3088.00,0.0048
3085.00,0.0063
3082.00,0.0071
3079.00,0.0065
3076.00,0.0055
3073.00,0.0052
3070.00,0.0056
3067.00,0.0066
3064.00,0.0082
3061.00,0.0095
3058.00,0.0095
3055.00,0.0081
3052.00,0.0066
3049.00,0.0055
3046.00,0.0051
3043.00,0.0052
3040.00,0.0058
3037.00,0.0072
3034.00,0.0095
3031.00,0.0130
3028.00,0.0169
3025.00,0.0186
3022.00,0.0163
3019.00,0.0116
3016.00,0.0078
3013.00,0.0056
3010.00,0.0046
3007.00,0.0045
3004.00,0.0048
3001.00,0.0050
2998.00,0.0043
2995.00,0.0032
2992.00,0.0025
2989.00,0.0022
2986.00,0.0021
2983.00,0.0018
2980.00,0.0018
2977.00,0.0021
2974.00,0.0023
2971.00,0.0023
2968.00,0.0027
2965.00,0.0031
2962.00,0.0035
2959.00,0.0041
2956.00,0.0047
2953.00,0.0055
2950.00,0.0065
2947.00,0.0076
2944.00,0.0091
2941.00,0.0108
2938.00,0.0128
2935.00,0.0151
2932.00,0.0176
2929.00,0.0198
2926.00,0.0215
2923.00,0.0224
2920.00,0.0223
2917.00,0.0216
2914.00,0.0204
2911.00,0.0187
2908.00,0.0169
2905.00,0.0152
2902.00,0.0135
2899.00,0.0117
2896.00,0.0102
2893.00,0.0092
2890.00,0.0083
2887.00,0.0077
2884.00,0.0071
2881.00,0.0066
2878.00,0.0061
2875.00,0.0058
2872.00,0.0055
2869.00,0.0054
2866.00,0.0056
2863.00,0.0061
2860.00,0.0069
2857.00,0.0080
2854.00,0.0091
2851.00,0.0098
2848.00,0.0098
2845.00,0.0090
2842.00,0.0075
2839.00,0.0057
2836.00,0.0043
2833.00,0.0033
2830.00,0.0027
2827.00,0.0025
2824.00,0.0023
2821.00,0.0022
2818.00,0.0021
2815.00,0.0020
2812.00,0.0020
2809.00,0.0020
2806.00,0.0019
2803.00,0.0019
2800.00,0.0018
2797.00,0.0017
2794.00,0.0017
2791.00,0.0017
2788.00,0.0016
2785.00,0.0016
2782.00,0.0016
2779.00,0.0016
2776.00,0.0016
2773.00,0.0016
2770.00,0.0015
2767.00,0.0014
2764.00,0.0014
2761.00,0.0014
2758.00,0.0014
2755.00,0.0014
2752.00,0.0014
2749.00,0.0014
2746.00,0.0014
2743.00,0.0014
2740.00,0.0014
2737.00,0.0014
2734.00,0.0014
2731.00,0.0014
2728.00,0.0014
2725.00,0.0015
2722.00,0.0015
2719.00,0.0015
2716.00,0.0015
2713.00,0.0014
2710.00,0.0015
2707.00,0.0014
2704.00,0.0014
2701.00,0.0014
2698.00,0.0014
2695.00,0.0014
2692.00,0.0014
2689.00,0.0014
2686.00,0.0014
2683.00,0.0014
2680.00,0.0014
2677.00,0.0014
2674.00,0.0014
2671.00,0.0014
2668.00,0.0015
2665.00,0.0016
2662.00,0.0017
2659.00,0.0018
2656.00,0.0019
2653.00,0.0019
2650.00,0.0019
2647.00,0.0019
2644.00,0.0020
2641.00,0.0020
2638.00,0.0019
2635.00,0.0019
2632.00,0.0020
2629.00,0.0020
2626.00,0.0019
2623.00,0.0018
2620.00,0.0018
2617.00,0.0017
2614.00,0.0017
2611.00,0.0017
2608.00,0.0017
2605.00,0.0017
2602.00,0.0017
2599.00,0.0016
2596.00,0.0016
2593.00,0.0015
2590.00,0.0015
2587.00,0.0016
2584.00,0.0016
2581.00,0.0014
2578.00,0.0014
2575.00,0.0014
2572.00,0.0014
2569.00,0.0013
2566.00,0.0013
2563.00,0.0013
2560.00,0.0012
2557.00,0.0013
2554.00,0.0013
2551.00,0.0012
2548.00,0.0013
2545.00,0.0013
2542.00,0.0013
2539.00,0.0011
2536.00,0.0011
2533.00,0.0011
2530.00,0.0012
2527.00,0.0012
2524.00,0.0011
2521.00,0.0012
2518.00,0.0011
2515.00,0.0011
2512.00,0.0011
2509.00,0.0011
2506.00,0.0011
2503.00,0.0010
2500.00,0.0011
2497.00,0.0011
2494.00,0.0011
2491.00,0.0011
2488.00,0.0011
2485.00,0.0011
2482.00,0.0011
2479.00,0.0010
2476.00,0.0009
2473.00,0.0009
2470.00,0.0010
2467.00,0.0010
2464.00,0.0010
2461.00,0.0011
2458.00,0.0011
2455.00,0.0012
2452.00,0.0012
2449.00,0.0011
2446.00,0.0010
2443.00,0.0010
2440.00,0.0009
2437.00,0.0009
2434.00,0.0009
2431.00,0.0009
2428.00,0.0008
2425.00,0.0008
2422.00,0.0008
2419.00,0.0008
2416.00,0.0008
2413.00,0.0008
2410.00,0.0008
2407.00,0.0006
2404.00,0.0006
2401.00,0.0007
2398.00,0.0007
2395.00,0.0007
2392.00,0.0006
2389.00,0.0006
2386.00,0.0005
2383.00,0.0005
2380.00,0.0005
2377.00,0.0005
2374.00,0.0005
2371.00,0.0004
2368.00,0.0003
2365.00,0.0003
2362.00,0.0005
2359.00,0.0007
2356.00,0.0007
2353.00,0.0007
2350.00,0.0008
2347.00,0.0009
2344.00,0.0010
2341.00,0.0011
2338.00,0.0012
2335.00,0.0012
2332.00,0.0011
2329.00,0.0013
2326.00,0.0023
2323.00,0.0022
2320.00,0.0019
2317.00,0.0019
2314.00,0.0017
2311.00,0.0017
2308.00,0.0015
2305.00,0.0015
2302.00,0.0015
2299.00,0.0015
2296.00,0.0018
2293.00,0.0020
2290.00,0.0021
2287.00,0.0022
2284.00,0.0020
2281.00,0.0018
2278.00,0.0017
2275.00,0.0015
2272.00,0.0015
2269.00,0.0016
2266.00,0.0013
2263.00,0.0013
2260.00,0.0014
2257.00,0.0012
2254.00,0.0011
2251.00,0.0012
2248.00,0.0011
2245.00,0.0012
2242.00,0.0012
2239.00,0.0011
2236.00,0.0010
2233.00,0.0011
2230.00,0.0010
2227.00,0.0011
2224.00,0.0009
2221.00,0.0010
2218.00,0.0010
2215.00,0.0012
2212.00,0.0011
2209.00,0.0011
2206.00,0.0010
2203.00,0.0010
2200.00,0.0009
2197.00,0.0007
2194.00,0.0008
2191.00,0.0011
2188.00,0.0013
2185.00,0.0012
2182.00,0.0006
2179.00,0.0009
2176.00,0.0006
2173.00,0.0009
2170.00,0.0016
2167.00,0.0016
2164.00,0.0018
2161.00,0.0006
2158.00,-0.0025
2155.00,-0.0019
2152.00,-0.0010
2149.00,-0.0008
2146.00,-0.0011
2143.00,-0.0010
2140.00,-0.0010
2137.00,-0.0011
2134.00,-0.0015
2131.00,-0.0009
2128.00,-0.0005
2125.00,-0.0003
2122.00,-0.0000
2119.00,0.0004
2116.00,0.0006
2113.00,0.0006
2110.00,0.0006
2107.00,0.0007
2104.00,0.0007
2101.00,0.0007
2098.00,0.0005
2095.00,0.0002
2092.00,0.0002
2089.00,0.0005
2086.00,0.0005
2083.00,0.0006
2080.00,0.0009
2077.00,0.0009
2074.00,0.0006
2071.00,0.0005
2068.00,0.0005
2065.00,0.0007
2062.00,0.0007
2059.00,0.0003
2056.00,0.0002
2053.00,0.0011
2050.00,0.0012
2047.00,0.0004
2044.00,0.0002
2041.00,0.0005
2038.00,0.0006
2035.00,0.0005
2032.00,0.0005
2029.00,0.0004
2026.00,0.0005
2023.00,0.0000
2020.00,-0.0002
2017.00,0.0002
2014.00,0.0001
2011.00,0.0003
2008.00,-0.0000
2005.00,-0.0007
2002.00,-0.0002
1999.00,0.0004
1996.00,0.0005
1993.00,0.0006
1990.00,0.0007
1987.00,0.0010
1984.00,0.0015
1981.00,0.0022
1978.00,0.0010
1975.00,0.0001
1972.00,-0.0002
1969.00,-0.0002
1966.00,0.0005
1963.00,0.0006
1960.00,0.0004
1957.00,0.0008
1954.00,0.0014
1951.00,0.0017
1948.00,0.0020
1945.00,0.0024
1942.00,0.0024
1939.00,0.0021
1936.00,0.0017
1933.00,0.0014
1930.00,0.0009
1927.00,0.0007
1924.00,0.0006
1921.00,0.0007
1918.00,0.0006
1915.00,0.0005
1912.00,0.0004
1909.00,0.0004
1906.00,0.0006
1903.00,0.0007
1900.00,0.0008
1897.00,0.0009
1894.00,0.0012
1891.00,0.0014
1888.00,0.0017
1885.00,0.0018
1882.00,0.0020
1879.00,0.0022
1876.00,0.0024
1873.00,0.0026
1870.00,0.0027
1867.00,0.0025
1864.00,0.0021
1861.00,0.0018
1858.00,0.0015
1855.00,0.0012
1852.00,0.0010
1849.00,0.0009
1846.00,0.0009
1843.00,0.0008
1840.00,0.0007
1837.00,0.0006
1834.00,0.0008
1831.00,0.0009
1828.00,0.0013
1825.00,0.0015
1822.00,0.0017
1819.00,0.0016
1816.00,0.0018
1813.00,0.0022
1810.00,0.0025
1807.00,0.0028
1804.00,0.0031
1801.00,0.0031
1798.00,0.0030
1795.00,0.0027
1792.00,0.0023
1789.00,0.0019
1786.00,0.0018
1783.00,0.0017
1780.00,0.0017
1777.00,0.0018
1774.00,0.0020
1771.00,0.0021
1768.00,0.0021
1765.00,0.0021
1762.00,0.0023
1759.00,0.0026
1756.00,0.0029
1753.00,0.0031
1750.00,0.0035
1747.00,0.0037
1744.00,0.0038
1741.00,0.0039
1738.00,0.0038
1735.00,0.0038
1732.00,0.0035
1729.00,0.0034
1726.00,0.0033
1723.00,0.0031
1720.00,0.0031
1717.00,0.0030
1714.00,0.0028
1711.00,0.0028
1708.00,0.0027
1705.00,0.0027
1702.00,0.0027
1699.00,0.0026
1696.00,0.0026
1693.00,0.0027
1690.00,0.0029
1687.00,0.0031
1684.00,0.0033
1681.00,0.0033
1678.00,0.0034
1675.00,0.0035
1672.00,0.0036
1669.00,0.0036
1666.00,0.0036
1663.00,0.0035
1660.00,0.0034
1657.00,0.0033
1654.00,0.0031
1651.00,0.0029
1648.00,0.0029
1645.00,0.0027
1642.00,0.0026
1639.00,0.0026
1636.00,0.0026
1633.00,0.0025
1630.00,0.0026
1627.00,0.0026
1624.00,0.0027
1621.00,0.0028
1618.00,0.0030
1615.00,0.0034
1612.00,0.0042
1609.00,0.0064
1606.00,0.0113
1603.00,0.0177
1600.00,0.0190
1597.00,0.0137
1594.00,0.0089
1591.00,0.0065
1588.00,0.0060
1585.00,0.0076
1582.00,0.0081
1579.00,0.0057
1576.00,0.0038
1573.00,0.0031
1570.00,0.0027
1567.00,0.0024
1564.00,0.0024
1561.00,0.0023
1558.00,0.0024
1555.00,0.0026
1552.00,0.0028
1549.00,0.0032
1546.00,0.0035
1543.00,0.0035
1540.00,0.0034
1537.00,0.0032
1534.00,0.0030
1531.00,0.0027
1528.00,0.0025
1525.00,0.0023
1522.00,0.0024
1519.00,0.0024
1516.00,0.0025
1513.00,0.0028
1510.00,0.0030
1507.00,0.0034
1504.00,0.0045
1501.00,0.0069
1498.00,0.0148
1495.00,0.0368
1492.00,0.0487
1489.00,0.0296
1486.00,0.0153
1483.00,0.0096
1480.00,0.0068
1477.00,0.0057
1474.00,0.0053
1471.00,0.0053
1468.00,0.0056
1465.00,0.0061
1462.00,0.0073
1459.00,0.0108
1456.00,0.0276
1453.00,0.0465
1450.00,0.0464
1447.00,0.0350
1444.00,0.0275
1441.00,0.0214
1438.00,0.0170
1435.00,0.0118
1432.00,0.0090
1429.00,0.0069
1426.00,0.0059
1423.00,0.0053
1420.00,0.0050
1417.00,0.0046
1414.00,0.0045
1411.00,0.0043
1408.00,0.0043
1405.00,0.0042
1402.00,0.0042
1399.00,0.0043
1396.00,0.0045
1393.00,0.0050
1390.00,0.0059
1387.00,0.0069
1384.00,0.0080
1381.00,0.0090
1378.00,0.0100
1375.00,0.0108
1372.00,0.0111
1369.00,0.0111
1366.00,0.0109
1363.00,0.0106
1360.00,0.0102
1357.00,0.0098
1354.00,0.0095
1351.00,0.0094
1348.00,0.0093
1345.00,0.0090
1342.00,0.0085
1339.00,0.0082
1336.00,0.0083
1333.00,0.0089
1330.00,0.0095
1327.00,0.0096
1324.00,0.0092
1321.00,0.0089
1318.00,0.0089
1315.00,0.0092
1312.00,0.0094
1309.00,0.0092
1306.00,0.0087
1303.00,0.0083
1300.00,0.0079
1297.00,0.0076
1294.00,0.0076
1291.00,0.0075
1288.00,0.0072
1285.00,0.0070
1282.00,0.0070
1279.00,0.0068
1276.00,0.0064
1273.00,0.0059
1270.00,0.0056
1267.00,0.0053
1264.00,0.0052
1261.00,0.0050
1258.00,0.0050
1255.00,0.0051
1252.00,0.0051
1249.00,0.0052
1246.00,0.0053
1243.00,0.0053
1240.00,0.0052
1237.00,0.0052
1234.00,0.0052
1231.00,0.0052
1228.00,0.0053
1225.00,0.0054
1222.00,0.0054
1219.00,0.0055
1216.00,0.0056
1213.00,0.0058
1210.00,0.0061
1207.00,0.0065
1204.00,0.0071
1201.00,0.0077
1198.00,0.0081
1195.00,0.0083
1192.00,0.0084
1189.00,0.0087
1186.00,0.0096
1183.00,0.0110
1180.00,0.0112
1177.00,0.0092
1174.00,0.0076
1171.00,0.0069
1168.00,0.0067
1165.00,0.0067
1162.00,0.0073
1159.00,0.0089
1156.00,0.0110
1153.00,0.0110
1150.00,0.0085
1147.00,0.0066
1144.00,0.0057
1141.00,0.0051
1138.00,0.0049
1135.00,0.0048
1132.00,0.0048
1129.00,0.0048
1126.00,0.0050
1123.00,0.0052
1120.00,0.0055
1117.00,0.0062
1114.00,0.0066
1111.00,0.0068
1108.00,0.0066
1105.00,0.0066
1102.00,0.0066
1099.00,0.0069
1096.00,0.0072
1093.00,0.0074
1090.00,0.0079
1087.00,0.0084
1084.00,0.0092
1081.00,0.0103
1078.00,0.0115
1075.00,0.0130
1072.00,0.0149
1069.00,0.0159
1066.00,0.0150
1063.00,0.0133
1060.00,0.0117
1057.00,0.0106
1054.00,0.0098
1051.00,0.0091
1048.00,0.0086
1045.00,0.0083
1042.00,0.0084
1039.00,0.0092
1036.00,0.0121
1033.00,0.0186
1030.00,0.0253
1027.00,0.0268
1024.00,0.0220
1021.00,0.0174
1018.00,0.0146
1015.00,0.0128
1012.00,0.0117
1009.00,0.0111
1006.00,0.0114
1003.00,0.0121
1000.00,0.0107
997.00,0.0091
994.00,0.0086
991.00,0.0087
988.00,0.0092
985.00,0.0100
982.00,0.0108
979.00,0.0108
976.00,0.0103
973.00,0.0098
970.00,0.0103
967.00,0.0113
964.00,0.0118
961.00,0.0110
958.00,0.0096
955.00,0.0088
952.00,0.0086
949.00,0.0089
946.00,0.0093
943.00,0.0094
940.00,0.0091
937.00,0.0084
934.00,0.0076
931.00,0.0069
928.00,0.0068
925.00,0.0070
922.00,0.0075
919.00,0.0084
916.00,0.0101
913.00,0.0129
910.00,0.0166
907.00,0.0190
904.00,0.0179
901.00,0.0142
898.00,0.0104
895.00,0.0081
892.00,0.0070
889.00,0.0063
886.00,0.0059
883.00,0.0055
880.00,0.0053
877.00,0.0052
874.00,0.0050
871.00,0.0048
868.00,0.0047
865.00,0.0047
862.00,0.0048
859.00,0.0048
856.00,0.0049
853.00,0.0054
850.00,0.0066
847.00,0.0082
844.00,0.0096
841.00,0.0099
838.00,0.0090
835.00,0.0071
832.00,0.0056
829.00,0.0048
826.00,0.0046
823.00,0.0044
820.00,0.0044
817.00,0.0045
814.00,0.0046
811.00,0.0046
808.00,0.0047
805.00,0.0050
802.00,0.0053
799.00,0.0058
796.00,0.0066
793.00,0.0077
790.00,0.0092
787.00,0.0109
784.00,0.0131
781.00,0.0159
778.00,0.0202
775.00,0.0263
772.00,0.0342
769.00,0.0436
766.00,0.0533
763.00,0.0627
760.00,0.0723
757.00,0.0796
754.00,0.0816
751.00,0.0810
748.00,0.0804
745.00,0.0737
742.00,0.0584
739.00,0.0430
736.00,0.0306
733.00,0.0205
730.00,0.0139
727.00,0.0109
724.00,0.0097
721.00,0.0096
718.00,0.0103
715.00,0.0125
712.00,0.0183
709.00,0.0334
706.00,0.0639
703.00,0.1124
700.00,0.1745
697.00,0.2373
694.00,0.2528
691.00,0.1849
688.00,0.1174
685.00,0.0815
682.00,0.0622
679.00,0.0501
676.00,0.0428
673.00,0.0378
670.00,0.0341
667.00,0.0301
664.00,0.0272
661.00,0.0239
658.00,0.0208
655.00,0.0184
652.00,0.0165
649.00,0.0148
646.00,0.0137
643.00,0.0130
640.00,0.0129
637.00,0.0137
634.00,0.0148
631.00,0.0158
628.00,0.0166
625.00,0.0171
622.00,0.0179
619.00,0.0177
616.00,0.0161
613.00,0.0152
610.00,0.0150
607.00,0.0142
604.00,0.0140
601.00,0.0144
598.00,0.0148
595.00,0.0155
592.00,0.0162
589.00,0.0170
586.00,0.0178
583.00,0.0190
580.00,0.0208
577.00,0.0234
574.00,0.0270
571.00,0.0303
568.00,0.0338
565.00,0.0370
562.00,0.0405
559.00,0.0439
556.00,0.0476
553.00,0.0515
550.00,0.0564
547.00,0.0632
544.00,0.0712
541.00,0.0793
538.00,0.0835
535.00,0.0794
532.00,0.0682
529.00,0.0558
526.00,0.0455
523.00,0.0377
520.00,0.0326
517.00,0.0287
514.00,0.0265
511.00,0.0242
508.00,0.0219
505.00,0.0201
502.00,0.0182
499.00,0.0172
496.00,0.0164
493.00,0.0157
490.00,0.0149
487.00,0.0141
484.00,0.0140
481.00,0.0137
478.00,0.0131
475.00,0.0126
472.00,0.0126
469.00,0.0121
466.00,0.0118
463.00,0.0113
460.00,0.0108
457.00,0.0104
454.00,0.0100
451.00,0.0107
448.00,0.0106
445.00,0.0103
442.00,0.0095
439.00,0.0093
436.00,0.0093
433.00,0.0092
430.00,0.0095
427.00,0.0099
424.00,0.0102
421.00,0.0083
418.00,0.0087
415.00,0.0081
412.00,0.0086
409.00,0.0086
406.00,0.0093
403.00,0.0109
400.00,0.0086