File: FTIR/Olivia/2025_08_04_1CBN_3PVP10kDa_MC_powder_scan1.csv
Created as New Dataset,Sample 1042 By YargerLab Date Monday, August 04 2025
cm-1,A
4000.00,0.0045
3997.00,0.0045
3994.00,0.0045
3991.00,0.0045
3988.00,0.0045
3985.00,0.0045
3982.00,0.0046
3979.00,0.0045
3976.00,0.0045
3973.00,0.0045
3970.00,0.0045
3967.00,0.0045
3964.00,0.0045
3961.00,0.0046
3958.00,0.0046
3955.00,0.0046
3952.00,0.0045
3949.00,0.0045
3946.00,0.0046
3943.00,0.0046
3940.00,0.0046
3937.00,0.0046
3934.00,0.0046
3931.00,0.0046
3928.00,0.0046
3925.00,0.0046
3922.00,0.0046
3919.00,0.0046
3916.00,0.0046
3913.00,0.0046
3910.00,0.0046
3907.00,0.0046
3904.00,0.0048
3901.00,0.0048
3898.00,0.0047
3895.00,0.0047
3892.00,0.0046
3889.00,0.0047
3886.00,0.0048
3883.00,0.0048
3880.00,0.0047
3877.00,0.0047
3874.00,0.0047
3871.00,0.0048
3868.00,0.0048
3865.00,0.0048
3862.00,0.0047
3859.00,0.0047
3856.00,0.0049
3853.00,0.0050
3850.00,0.0050
3847.00,0.0048
3844.00,0.0047
3841.00,0.0048
3838.00,0.0048
3835.00,0.0048
3832.00,0.0048
3829.00,0.0047
3826.00,0.0047
3823.00,0.0048
3820.00,0.0049
3817.00,0.0048
3814.00,0.0048
3811.00,0.0047
3808.00,0.0048
3805.00,0.0049
3802.00,0.0049
3799.00,0.0048
3796.00,0.0047
3793.00,0.0046
3790.00,0.0046
3787.00,0.0045
3784.00,0.0045
3781.00,0.0046
3778.00,0.0046
3775.00,0.0046
3772.00,0.0046
3769.00,0.0047
3766.00,0.0047
3763.00,0.0047
3760.00,0.0048
3757.00,0.0048
3754.00,0.0049
3751.00,0.0051
3748.00,0.0051
3745.00,0.0050
3742.00,0.0050
3739.00,0.0049
3736.00,0.0049
3733.00,0.0049
3730.00,0.0048
3727.00,0.0046
3724.00,0.0046
3721.00,0.0046
3718.00,0.0046
3715.00,0.0047
3712.00,0.0048
3709.00,0.0047
3706.00,0.0047
3703.00,0.0046
3700.00,0.0045
3697.00,0.0045
3694.00,0.0046
3691.00,0.0048
3688.00,0.0049
3685.00,0.0048
3682.00,0.0046
3679.00,0.0048
3676.00,0.0050
3673.00,0.0051
3670.00,0.0050
3667.00,0.0049
3664.00,0.0049
3661.00,0.0048
3658.00,0.0049
3655.00,0.0051
3652.00,0.0053
3649.00,0.0054
3646.00,0.0054
3643.00,0.0053
3640.00,0.0053
3637.00,0.0053
3634.00,0.0055
3631.00,0.0058
3628.00,0.0059
3625.00,0.0059
3622.00,0.0059
3619.00,0.0061
3616.00,0.0063
3613.00,0.0064
3610.00,0.0065
3607.00,0.0066
3604.00,0.0067
3601.00,0.0068
3598.00,0.0069
3595.00,0.0071
3592.00,0.0073
3589.00,0.0076
3586.00,0.0077
3583.00,0.0078
3580.00,0.0080
3577.00,0.0082
3574.00,0.0085
3571.00,0.0087
3568.00,0.0090
3565.00,0.0092
3562.00,0.0094
3559.00,0.0095
3556.00,0.0097
3553.00,0.0100
3550.00,0.0102
3547.00,0.0104
3544.00,0.0106
3541.00,0.0107
3538.00,0.0109
3535.00,0.0111
3532.00,0.0113
3529.00,0.0115
3526.00,0.0117
3523.00,0.0119
3520.00,0.0120
3517.00,0.0121
3514.00,0.0122
3511.00,0.0124
3508.00,0.0124
3505.00,0.0126
3502.00,0.0127
3499.00,0.0129
3496.00,0.0130
3493.00,0.0131
3490.00,0.0133
3487.00,0.0134
3484.00,0.0135
3481.00,0.0136
3478.00,0.0138
3475.00,0.0140
3472.00,0.0142
3469.00,0.0144
3466.00,0.0145
3463.00,0.0147
3460.00,0.0149
3457.00,0.0150
3454.00,0.0152
3451.00,0.0154
3448.00,0.0156
3445.00,0.0157
3442.00,0.0160
3439.00,0.0162
3436.00,0.0163
3433.00,0.0165
3430.00,0.0167
3427.00,0.0170
3424.00,0.0172
3421.00,0.0175
3418.00,0.0178
3415.00,0.0180
3412.00,0.0181
3409.00,0.0182
3406.00,0.0184
3403.00,0.0185
3400.00,0.0186
3397.00,0.0185
3394.00,0.0184
3391.00,0.0184
3388.00,0.0183
3385.00,0.0181
3382.00,0.0179
3379.00,0.0177
3376.00,0.0175
3373.00,0.0173
3370.00,0.0171
3367.00,0.0169
3364.00,0.0167
3361.00,0.0165
3358.00,0.0163
3355.00,0.0162
3352.00,0.0159
3349.00,0.0158
3346.00,0.0157
3343.00,0.0156
3340.00,0.0155
3337.00,0.0153
3334.00,0.0154
3331.00,0.0153
3328.00,0.0152
3325.00,0.0151
3322.00,0.0152
3319.00,0.0152
3316.00,0.0152
3313.00,0.0151
3310.00,0.0150
3307.00,0.0149
3304.00,0.0151
3301.00,0.0152
3298.00,0.0152
3295.00,0.0152
3292.00,0.0153
3289.00,0.0154
3286.00,0.0155
3283.00,0.0155
3280.00,0.0155
3277.00,0.0155
3274.00,0.0155
3271.00,0.0154
3268.00,0.0155
3265.00,0.0156
3262.00,0.0157
3259.00,0.0156
3256.00,0.0157
3253.00,0.0157
3250.00,0.0157
3247.00,0.0157
3244.00,0.0157
3241.00,0.0156
3238.00,0.0155
3235.00,0.0154
3232.00,0.0154
3229.00,0.0153
3226.00,0.0153
3223.00,0.0151
3220.00,0.0150
3217.00,0.0148
3214.00,0.0147
3211.00,0.0145
3208.00,0.0143
3205.00,0.0141
3202.00,0.0139
3199.00,0.0137
3196.00,0.0135
3193.00,0.0133
3190.00,0.0131
3187.00,0.0129
3184.00,0.0126
3181.00,0.0125
3178.00,0.0123
3175.00,0.0121
3172.00,0.0119
3169.00,0.0117
3166.00,0.0115
3163.00,0.0112
3160.00,0.0110
3157.00,0.0108
3154.00,0.0106
3151.00,0.0104
3148.00,0.0102
3145.00,0.0100
3142.00,0.0098
3139.00,0.0096
3136.00,0.0095
3133.00,0.0094
3130.00,0.0093
3127.00,0.0091
3124.00,0.0090
3121.00,0.0088
3118.00,0.0087
3115.00,0.0086
3112.00,0.0085
3109.00,0.0084
3106.00,0.0083
3103.00,0.0082
3100.00,0.0081
3097.00,0.0080
3094.00,0.0079
3091.00,0.0080
3088.00,0.0080
3085.00,0.0080
3082.00,0.0079
3079.00,0.0078
3076.00,0.0078
3073.00,0.0077
3070.00,0.0077
3067.00,0.0076
3064.00,0.0075
3061.00,0.0075
3058.00,0.0075
3055.00,0.0075
3052.00,0.0075
3049.00,0.0075
3046.00,0.0074
3043.00,0.0074
3040.00,0.0075
3037.00,0.0076
3034.00,0.0076
3031.00,0.0077
3028.00,0.0076
3025.00,0.0074
3022.00,0.0074
3019.00,0.0073
3016.00,0.0074
3013.00,0.0075
3010.00,0.0076
3007.00,0.0079
3004.00,0.0083
3001.00,0.0089
2998.00,0.0096
2995.00,0.0104
2992.00,0.0111
2989.00,0.0119
2986.00,0.0126
2983.00,0.0135
2980.00,0.0146
2977.00,0.0156
2974.00,0.0164
2971.00,0.0177
2968.00,0.0186
2965.00,0.0194
2962.00,0.0202
2959.00,0.0205
2956.00,0.0200
2953.00,0.0192
2950.00,0.0186
2947.00,0.0184
2944.00,0.0188
2941.00,0.0196
2938.00,0.0209
2935.00,0.0227
2932.00,0.0249
2929.00,0.0267
2926.00,0.0272
2923.00,0.0263
2920.00,0.0246
2917.00,0.0227
2914.00,0.0210
2911.00,0.0196
2908.00,0.0186
2905.00,0.0177
2902.00,0.0170
2899.00,0.0164
2896.00,0.0160
2893.00,0.0157
2890.00,0.0155
2887.00,0.0153
2884.00,0.0151
2881.00,0.0152
2878.00,0.0156
2875.00,0.0163
2872.00,0.0167
2869.00,0.0166
2866.00,0.0165
2863.00,0.0172
2860.00,0.0186
2857.00,0.0196
2854.00,0.0195
2851.00,0.0182
2848.00,0.0160
2845.00,0.0140
2842.00,0.0124
2839.00,0.0113
2836.00,0.0106
2833.00,0.0100
2830.00,0.0095
2827.00,0.0091
2824.00,0.0087
2821.00,0.0084
2818.00,0.0082
2815.00,0.0080
2812.00,0.0078
2809.00,0.0076
2806.00,0.0075
2803.00,0.0075
2800.00,0.0073
2797.00,0.0072
2794.00,0.0072
2791.00,0.0070
2788.00,0.0070
2785.00,0.0069
2782.00,0.0068
2779.00,0.0068
2776.00,0.0067
2773.00,0.0067
2770.00,0.0066
2767.00,0.0066
2764.00,0.0066
2761.00,0.0066
2758.00,0.0066
2755.00,0.0066
2752.00,0.0066
2749.00,0.0066
2746.00,0.0066
2743.00,0.0066
2740.00,0.0066
2737.00,0.0066
2734.00,0.0068
2731.00,0.0068
2728.00,0.0068
2725.00,0.0067
2722.00,0.0067
2719.00,0.0067
2716.00,0.0066
2713.00,0.0065
2710.00,0.0065
2707.00,0.0065
2704.00,0.0065
2701.00,0.0064
2698.00,0.0064
2695.00,0.0064
2692.00,0.0063
2689.00,0.0063
2686.00,0.0063
2683.00,0.0062
2680.00,0.0062
2677.00,0.0062
2674.00,0.0062
2671.00,0.0063
2668.00,0.0063
2665.00,0.0065
2662.00,0.0066
2659.00,0.0067
2656.00,0.0068
2653.00,0.0068
2650.00,0.0068
2647.00,0.0068
2644.00,0.0068
2641.00,0.0068
2638.00,0.0068
2635.00,0.0067
2632.00,0.0067
2629.00,0.0066
2626.00,0.0066
2623.00,0.0066
2620.00,0.0065
2617.00,0.0065
2614.00,0.0064
2611.00,0.0064
2608.00,0.0064
2605.00,0.0064
2602.00,0.0064
2599.00,0.0064
2596.00,0.0064
2593.00,0.0064
2590.00,0.0064
2587.00,0.0065
2584.00,0.0065
2581.00,0.0064
2578.00,0.0064
2575.00,0.0063
2572.00,0.0063
2569.00,0.0063
2566.00,0.0063
2563.00,0.0063
2560.00,0.0062
2557.00,0.0062
2554.00,0.0061
2551.00,0.0061
2548.00,0.0060
2545.00,0.0061
2542.00,0.0060
2539.00,0.0060
2536.00,0.0060
2533.00,0.0060
2530.00,0.0060
2527.00,0.0059
2524.00,0.0059
2521.00,0.0058
2518.00,0.0058
2515.00,0.0057
2512.00,0.0057
2509.00,0.0057
2506.00,0.0057
2503.00,0.0057
2500.00,0.0056
2497.00,0.0056
2494.00,0.0056
2491.00,0.0056
2488.00,0.0056
2485.00,0.0056
2482.00,0.0056
2479.00,0.0056
2476.00,0.0055
2473.00,0.0056
2470.00,0.0056
2467.00,0.0055
2464.00,0.0056
2461.00,0.0057
2458.00,0.0057
2455.00,0.0057
2452.00,0.0057
2449.00,0.0057
2446.00,0.0056
2443.00,0.0056
2440.00,0.0056
2437.00,0.0055
2434.00,0.0055
2431.00,0.0055
2428.00,0.0054
2425.00,0.0054
2422.00,0.0054
2419.00,0.0053
2416.00,0.0054
2413.00,0.0054
2410.00,0.0055
2407.00,0.0054
2404.00,0.0053
2401.00,0.0053
2398.00,0.0053
2395.00,0.0053
2392.00,0.0053
2389.00,0.0052
2386.00,0.0051
2383.00,0.0050
2380.00,0.0050
2377.00,0.0050
2374.00,0.0051
2371.00,0.0049
2368.00,0.0048
2365.00,0.0049
2362.00,0.0049
2359.00,0.0050
2356.00,0.0050
2353.00,0.0049
2350.00,0.0049
2347.00,0.0052
2344.00,0.0054
2341.00,0.0053
2338.00,0.0054
2335.00,0.0054
2332.00,0.0054
2329.00,0.0056
2326.00,0.0065
2323.00,0.0063
2320.00,0.0058
2317.00,0.0056
2314.00,0.0056
2311.00,0.0054
2308.00,0.0054
2305.00,0.0055
2302.00,0.0056
2299.00,0.0057
2296.00,0.0060
2293.00,0.0061
2290.00,0.0064
2287.00,0.0066
2284.00,0.0064
2281.00,0.0063
2278.00,0.0063
2275.00,0.0062
2272.00,0.0060
2269.00,0.0058
2266.00,0.0056
2263.00,0.0057
2260.00,0.0059
2257.00,0.0056
2254.00,0.0054
2251.00,0.0056
2248.00,0.0057
2245.00,0.0057
2242.00,0.0057
2239.00,0.0057
2236.00,0.0057
2233.00,0.0057
2230.00,0.0057
2227.00,0.0057
2224.00,0.0058
2221.00,0.0059
2218.00,0.0057
2215.00,0.0055
2212.00,0.0057
2209.00,0.0058
2206.00,0.0057
2203.00,0.0057
2200.00,0.0056
2197.00,0.0057
2194.00,0.0056
2191.00,0.0061
2188.00,0.0063
2185.00,0.0059
2182.00,0.0053
2179.00,0.0054
2176.00,0.0052
2173.00,0.0056
2170.00,0.0061
2167.00,0.0066
2164.00,0.0071
2161.00,0.0055
2158.00,0.0024
2155.00,0.0029
2152.00,0.0038
2149.00,0.0042
2146.00,0.0039
2143.00,0.0037
2140.00,0.0039
2137.00,0.0037
2134.00,0.0036
2131.00,0.0040
2128.00,0.0044
2125.00,0.0047
2122.00,0.0049
2119.00,0.0051
2116.00,0.0055
2113.00,0.0056
2110.00,0.0053
2107.00,0.0052
2104.00,0.0053
2101.00,0.0053
2098.00,0.0051
2095.00,0.0048
2092.00,0.0050
2089.00,0.0051
2086.00,0.0052
2083.00,0.0053
2080.00,0.0055
2077.00,0.0054
2074.00,0.0053
2071.00,0.0054
2068.00,0.0055
2065.00,0.0053
2062.00,0.0053
2059.00,0.0052
2056.00,0.0052
2053.00,0.0057
2050.00,0.0062
2047.00,0.0052
2044.00,0.0052
2041.00,0.0052
2038.00,0.0053
2035.00,0.0049
2032.00,0.0047
2029.00,0.0047
2026.00,0.0046
2023.00,0.0042
2020.00,0.0042
2017.00,0.0044
2014.00,0.0045
2011.00,0.0041
2008.00,0.0040
2005.00,0.0037
2002.00,0.0040
1999.00,0.0047
1996.00,0.0048
1993.00,0.0047
1990.00,0.0048
1987.00,0.0047
1984.00,0.0052
1981.00,0.0056
1978.00,0.0044
1975.00,0.0037
1972.00,0.0038
1969.00,0.0034
1966.00,0.0036
1963.00,0.0036
1960.00,0.0033
1957.00,0.0034
1954.00,0.0038
1951.00,0.0041
1948.00,0.0039
1945.00,0.0040
1942.00,0.0040
1939.00,0.0040
1936.00,0.0039
1933.00,0.0039
1930.00,0.0040
1927.00,0.0042
1924.00,0.0042
1921.00,0.0042
1918.00,0.0042
1915.00,0.0044
1912.00,0.0047
1909.00,0.0048
1906.00,0.0046
1903.00,0.0045
1900.00,0.0045
1897.00,0.0045
1894.00,0.0047
1891.00,0.0045
1888.00,0.0045
1885.00,0.0045
1882.00,0.0044
1879.00,0.0045
1876.00,0.0045
1873.00,0.0044
1870.00,0.0044
1867.00,0.0045
1864.00,0.0044
1861.00,0.0045
1858.00,0.0045
1855.00,0.0046
1852.00,0.0045
1849.00,0.0045
1846.00,0.0046
1843.00,0.0046
1840.00,0.0045
1837.00,0.0045
1834.00,0.0045
1831.00,0.0045
1828.00,0.0044
1825.00,0.0044
1822.00,0.0044
1819.00,0.0043
1816.00,0.0042
1813.00,0.0044
1810.00,0.0045
1807.00,0.0045
1804.00,0.0045
1801.00,0.0045
1798.00,0.0045
1795.00,0.0046
1792.00,0.0046
1789.00,0.0045
1786.00,0.0046
1783.00,0.0047
1780.00,0.0046
1777.00,0.0047
1774.00,0.0048
1771.00,0.0047
1768.00,0.0046
1765.00,0.0048
1762.00,0.0049
1759.00,0.0049
1756.00,0.0050
1753.00,0.0050
1750.00,0.0050
1747.00,0.0050
1744.00,0.0051
1741.00,0.0052
1738.00,0.0053
1735.00,0.0053
1732.00,0.0055
1729.00,0.0057
1726.00,0.0061
1723.00,0.0064
1720.00,0.0066
1717.00,0.0068
1714.00,0.0072
1711.00,0.0080
1708.00,0.0090
1705.00,0.0101
1702.00,0.0117
1699.00,0.0144
1696.00,0.0180
1693.00,0.0228
1690.00,0.0279
1687.00,0.0335
1684.00,0.0394
1681.00,0.0447
1678.00,0.0503
1675.00,0.0553
1672.00,0.0598
1669.00,0.0640
1666.00,0.0679
1663.00,0.0718
1660.00,0.0745
1657.00,0.0773
1654.00,0.0791
1651.00,0.0762
1648.00,0.0765
1645.00,0.0718
1642.00,0.0687
1639.00,0.0648
1636.00,0.0590
1633.00,0.0531
1630.00,0.0519
1627.00,0.0525
1624.00,0.0535
1621.00,0.0521
1618.00,0.0485
1615.00,0.0419
1612.00,0.0400
1609.00,0.0376
1606.00,0.0329
1603.00,0.0282
1600.00,0.0247
1597.00,0.0227
1594.00,0.0221
1591.00,0.0237
1588.00,0.0269
1585.00,0.0289
1582.00,0.0283
1579.00,0.0262
1576.00,0.0230
1573.00,0.0205
1570.00,0.0192
1567.00,0.0179
1564.00,0.0162
1561.00,0.0147
1558.00,0.0127
1555.00,0.0120
1552.00,0.0120
1549.00,0.0117
1546.00,0.0115
1543.00,0.0109
1540.00,0.0103
1537.00,0.0103
1534.00,0.0102
1531.00,0.0101
1528.00,0.0101
1525.00,0.0102
1522.00,0.0103
1519.00,0.0106
1516.00,0.0113
1513.00,0.0121
1510.00,0.0129
1507.00,0.0136
1504.00,0.0153
1501.00,0.0185
1498.00,0.0233
1495.00,0.0263
1492.00,0.0248
1489.00,0.0209
1486.00,0.0175
1483.00,0.0154
1480.00,0.0145
1477.00,0.0147
1474.00,0.0162
1471.00,0.0208
1468.00,0.0278
1465.00,0.0347
1462.00,0.0381
1459.00,0.0386
1456.00,0.0335
1453.00,0.0304
1450.00,0.0302
1447.00,0.0328
1444.00,0.0377
1441.00,0.0430
1438.00,0.0469
1435.00,0.0487
1432.00,0.0504
1429.00,0.0521
1426.00,0.0550
1423.00,0.0573
1420.00,0.0555
1417.00,0.0475
1414.00,0.0404
1411.00,0.0349
1408.00,0.0327
1405.00,0.0331
1402.00,0.0342
1399.00,0.0333
1396.00,0.0299
1393.00,0.0259
1390.00,0.0245
1387.00,0.0260
1384.00,0.0263
1381.00,0.0269
1378.00,0.0280
1375.00,0.0275
1372.00,0.0260
1369.00,0.0263
1366.00,0.0281
1363.00,0.0284
1360.00,0.0291
1357.00,0.0264
1354.00,0.0234
1351.00,0.0223
1348.00,0.0220
1345.00,0.0213
1342.00,0.0201
1339.00,0.0190
1336.00,0.0188
1333.00,0.0198
1330.00,0.0211
1327.00,0.0224
1324.00,0.0239
1321.00,0.0257
1318.00,0.0268
1315.00,0.0263
1312.00,0.0252
1309.00,0.0247
1306.00,0.0261
1303.00,0.0298
1300.00,0.0343
1297.00,0.0396
1294.00,0.0477
1291.00,0.0555
1288.00,0.0609
1285.00,0.0629
1282.00,0.0608
1279.00,0.0570
1276.00,0.0553
1273.00,0.0551
1270.00,0.0536
1267.00,0.0498
1264.00,0.0447
1261.00,0.0395
1258.00,0.0350
1255.00,0.0318
1252.00,0.0298
1249.00,0.0294
1246.00,0.0305
1243.00,0.0319
1240.00,0.0331
1237.00,0.0354
1234.00,0.0379
1231.00,0.0378
1228.00,0.0360
1225.00,0.0344
1222.00,0.0335
1219.00,0.0337
1216.00,0.0343
1213.00,0.0338
1210.00,0.0312
1207.00,0.0287
1204.00,0.0279
1201.00,0.0292
1198.00,0.0318
1195.00,0.0340
1192.00,0.0328
1189.00,0.0293
1186.00,0.0259
1183.00,0.0238
1180.00,0.0230
1177.00,0.0230
1174.00,0.0234
1171.00,0.0238
1168.00,0.0239
1165.00,0.0239
1162.00,0.0244
1159.00,0.0271
1156.00,0.0319
1153.00,0.0317
1150.00,0.0255
1147.00,0.0213
1144.00,0.0196
1141.00,0.0190
1138.00,0.0193
1135.00,0.0214
1132.00,0.0272
1129.00,0.0327
1126.00,0.0316
1123.00,0.0268
1120.00,0.0227
1117.00,0.0210
1114.00,0.0206
1111.00,0.0199
1108.00,0.0194
1105.00,0.0203
1102.00,0.0233
1099.00,0.0253
1096.00,0.0228
1093.00,0.0195
1090.00,0.0179
1087.00,0.0173
1084.00,0.0170
1081.00,0.0172
1078.00,0.0175
1075.00,0.0179
1072.00,0.0182
1069.00,0.0188
1066.00,0.0198
1063.00,0.0217
1060.00,0.0261
1057.00,0.0337
1054.00,0.0396
1051.00,0.0405
1048.00,0.0386
1045.00,0.0332
1042.00,0.0275
1039.00,0.0242
1036.00,0.0239
1033.00,0.0253
1030.00,0.0299
1027.00,0.0358
1024.00,0.0333
1021.00,0.0276
1018.00,0.0241
1015.00,0.0218
1012.00,0.0201
1009.00,0.0201
1006.00,0.0223
1003.00,0.0240
1000.00,0.0232
997.00,0.0215
994.00,0.0201
991.00,0.0188
988.00,0.0173
985.00,0.0162
982.00,0.0157
979.00,0.0153
976.00,0.0152
973.00,0.0150
970.00,0.0147
967.00,0.0146
964.00,0.0147
961.00,0.0148
958.00,0.0141
955.00,0.0133
952.00,0.0130
949.00,0.0132
946.00,0.0134
943.00,0.0139
940.00,0.0150
937.00,0.0163
934.00,0.0173
931.00,0.0173
928.00,0.0166
925.00,0.0166
922.00,0.0170
919.00,0.0162
916.00,0.0149
913.00,0.0142
910.00,0.0140
907.00,0.0142
904.00,0.0152
901.00,0.0173
898.00,0.0183
895.00,0.0172
892.00,0.0174
889.00,0.0178
886.00,0.0155
883.00,0.0146
880.00,0.0150
877.00,0.0172
874.00,0.0217
871.00,0.0264
868.00,0.0264
865.00,0.0233
862.00,0.0208
859.00,0.0198
856.00,0.0218
853.00,0.0251
850.00,0.0281
847.00,0.0284
844.00,0.0264
841.00,0.0252
838.00,0.0259
835.00,0.0282
832.00,0.0280
829.00,0.0244
826.00,0.0209
823.00,0.0224
820.00,0.0292
817.00,0.0315
814.00,0.0290
811.00,0.0210
808.00,0.0180
805.00,0.0166
802.00,0.0161
799.00,0.0159
796.00,0.0159
793.00,0.0159
790.00,0.0160
787.00,0.0161
784.00,0.0164
781.00,0.0168
778.00,0.0175
775.00,0.0189
772.00,0.0191
769.00,0.0186
766.00,0.0190
763.00,0.0198
760.00,0.0212
757.00,0.0220
754.00,0.0224
751.00,0.0232
748.00,0.0242
745.00,0.0253
742.00,0.0267
739.00,0.0291
736.00,0.0329
733.00,0.0339
730.00,0.0327
727.00,0.0314
724.00,0.0284
721.00,0.0269
718.00,0.0269
715.00,0.0278
712.00,0.0275
709.00,0.0269
706.00,0.0271
703.00,0.0277
700.00,0.0286
697.00,0.0294
694.00,0.0293
691.00,0.0302
688.00,0.0320
685.00,0.0321
682.00,0.0322
679.00,0.0330
676.00,0.0347
673.00,0.0368
670.00,0.0383
667.00,0.0390
664.00,0.0403
661.00,0.0422
658.00,0.0431
655.00,0.0440
652.00,0.0452
649.00,0.0461
646.00,0.0462
643.00,0.0455
640.00,0.0446
637.00,0.0435
634.00,0.0426
631.00,0.0420
628.00,0.0417
625.00,0.0418
622.00,0.0425
619.00,0.0428
616.00,0.0419
613.00,0.0411
610.00,0.0415
607.00,0.0432
604.00,0.0457
601.00,0.0469
598.00,0.0474
595.00,0.0477
592.00,0.0482
589.00,0.0487
586.00,0.0496
583.00,0.0513
580.00,0.0536
577.00,0.0562
574.00,0.0563
571.00,0.0550
568.00,0.0537
565.00,0.0536
562.00,0.0541
559.00,0.0544
556.00,0.0529
553.00,0.0515
550.00,0.0518
547.00,0.0528
544.00,0.0525
541.00,0.0510
538.00,0.0497
535.00,0.0498
532.00,0.0513
529.00,0.0512
526.00,0.0499
523.00,0.0485
520.00,0.0479
517.00,0.0472
514.00,0.0470
511.00,0.0469
508.00,0.0476
505.00,0.0483
502.00,0.0476
499.00,0.0472
496.00,0.0473
493.00,0.0477
490.00,0.0477
487.00,0.0474
484.00,0.0478
481.00,0.0473
478.00,0.0474
475.00,0.0473
472.00,0.0469
469.00,0.0469
466.00,0.0468
463.00,0.0459
460.00,0.0461
457.00,0.0456
454.00,0.0459
451.00,0.0447
448.00,0.0443
445.00,0.0445
442.00,0.0441
439.00,0.0434
436.00,0.0432
433.00,0.0430
430.00,0.0416
427.00,0.0410
424.00,0.0416
421.00,0.0422
418.00,0.0417
415.00,0.0389
412.00,0.0401
409.00,0.0424
406.00,0.0409
403.00,0.0396
400.00,0.0415