File: FTIR/Olivia/2025_08_04_1CBN_3PVP10kDa_MC_powder_scan2.csv
Created as New Dataset,Sample 1043 By YargerLab Date Monday, August 04 2025
cm-1,A
4000.00,0.0028
3997.00,0.0029
3994.00,0.0029
3991.00,0.0029
3988.00,0.0029
3985.00,0.0029
3982.00,0.0029
3979.00,0.0029
3976.00,0.0028
3973.00,0.0028
3970.00,0.0029
3967.00,0.0028
3964.00,0.0029
3961.00,0.0029
3958.00,0.0029
3955.00,0.0029
3952.00,0.0029
3949.00,0.0029
3946.00,0.0029
3943.00,0.0029
3940.00,0.0029
3937.00,0.0029
3934.00,0.0029
3931.00,0.0029
3928.00,0.0030
3925.00,0.0029
3922.00,0.0029
3919.00,0.0030
3916.00,0.0030
3913.00,0.0030
3910.00,0.0029
3907.00,0.0030
3904.00,0.0032
3901.00,0.0032
3898.00,0.0031
3895.00,0.0031
3892.00,0.0031
3889.00,0.0031
3886.00,0.0031
3883.00,0.0031
3880.00,0.0031
3877.00,0.0031
3874.00,0.0031
3871.00,0.0032
3868.00,0.0033
3865.00,0.0032
3862.00,0.0031
3859.00,0.0031
3856.00,0.0033
3853.00,0.0035
3850.00,0.0035
3847.00,0.0033
3844.00,0.0031
3841.00,0.0032
3838.00,0.0033
3835.00,0.0033
3832.00,0.0032
3829.00,0.0031
3826.00,0.0031
3823.00,0.0032
3820.00,0.0033
3817.00,0.0033
3814.00,0.0032
3811.00,0.0031
3808.00,0.0032
3805.00,0.0032
3802.00,0.0033
3799.00,0.0033
3796.00,0.0032
3793.00,0.0030
3790.00,0.0029
3787.00,0.0029
3784.00,0.0029
3781.00,0.0030
3778.00,0.0030
3775.00,0.0030
3772.00,0.0030
3769.00,0.0030
3766.00,0.0031
3763.00,0.0031
3760.00,0.0032
3757.00,0.0032
3754.00,0.0034
3751.00,0.0035
3748.00,0.0036
3745.00,0.0036
3742.00,0.0035
3739.00,0.0034
3736.00,0.0034
3733.00,0.0034
3730.00,0.0033
3727.00,0.0031
3724.00,0.0030
3721.00,0.0030
3718.00,0.0030
3715.00,0.0031
3712.00,0.0032
3709.00,0.0031
3706.00,0.0030
3703.00,0.0029
3700.00,0.0029
3697.00,0.0029
3694.00,0.0029
3691.00,0.0030
3688.00,0.0031
3685.00,0.0031
3682.00,0.0030
3679.00,0.0031
3676.00,0.0033
3673.00,0.0034
3670.00,0.0033
3667.00,0.0031
3664.00,0.0030
3661.00,0.0030
3658.00,0.0030
3655.00,0.0031
3652.00,0.0034
3649.00,0.0036
3646.00,0.0035
3643.00,0.0033
3640.00,0.0032
3637.00,0.0032
3634.00,0.0033
3631.00,0.0036
3628.00,0.0036
3625.00,0.0036
3622.00,0.0036
3619.00,0.0036
3616.00,0.0038
3613.00,0.0039
3610.00,0.0040
3607.00,0.0040
3604.00,0.0039
3601.00,0.0040
3598.00,0.0040
3595.00,0.0041
3592.00,0.0042
3589.00,0.0044
3586.00,0.0044
3583.00,0.0045
3580.00,0.0045
3577.00,0.0046
3574.00,0.0048
3571.00,0.0050
3568.00,0.0052
3565.00,0.0052
3562.00,0.0052
3559.00,0.0053
3556.00,0.0054
3553.00,0.0056
3550.00,0.0057
3547.00,0.0059
3544.00,0.0059
3541.00,0.0060
3538.00,0.0061
3535.00,0.0062
3532.00,0.0064
3529.00,0.0065
3526.00,0.0066
3523.00,0.0067
3520.00,0.0067
3517.00,0.0068
3514.00,0.0069
3511.00,0.0070
3508.00,0.0070
3505.00,0.0072
3502.00,0.0072
3499.00,0.0073
3496.00,0.0073
3493.00,0.0074
3490.00,0.0074
3487.00,0.0075
3484.00,0.0076
3481.00,0.0077
3478.00,0.0077
3475.00,0.0079
3472.00,0.0079
3469.00,0.0080
3466.00,0.0082
3463.00,0.0083
3460.00,0.0083
3457.00,0.0084
3454.00,0.0085
3451.00,0.0086
3448.00,0.0087
3445.00,0.0088
3442.00,0.0089
3439.00,0.0090
3436.00,0.0091
3433.00,0.0092
3430.00,0.0094
3427.00,0.0095
3424.00,0.0096
3421.00,0.0098
3418.00,0.0099
3415.00,0.0100
3412.00,0.0102
3409.00,0.0103
3406.00,0.0103
3403.00,0.0104
3400.00,0.0105
3397.00,0.0104
3394.00,0.0104
3391.00,0.0104
3388.00,0.0104
3385.00,0.0103
3382.00,0.0102
3379.00,0.0101
3376.00,0.0100
3373.00,0.0099
3370.00,0.0099
3367.00,0.0097
3364.00,0.0096
3361.00,0.0095
3358.00,0.0094
3355.00,0.0094
3352.00,0.0093
3349.00,0.0092
3346.00,0.0091
3343.00,0.0090
3340.00,0.0090
3337.00,0.0088
3334.00,0.0088
3331.00,0.0088
3328.00,0.0088
3325.00,0.0088
3322.00,0.0088
3319.00,0.0087
3316.00,0.0087
3313.00,0.0087
3310.00,0.0087
3307.00,0.0087
3304.00,0.0088
3301.00,0.0088
3298.00,0.0088
3295.00,0.0088
3292.00,0.0088
3289.00,0.0089
3286.00,0.0089
3283.00,0.0089
3280.00,0.0089
3277.00,0.0090
3274.00,0.0090
3271.00,0.0090
3268.00,0.0090
3265.00,0.0090
3262.00,0.0091
3259.00,0.0090
3256.00,0.0091
3253.00,0.0091
3250.00,0.0090
3247.00,0.0090
3244.00,0.0091
3241.00,0.0090
3238.00,0.0090
3235.00,0.0089
3232.00,0.0089
3229.00,0.0089
3226.00,0.0089
3223.00,0.0088
3220.00,0.0087
3217.00,0.0086
3214.00,0.0086
3211.00,0.0084
3208.00,0.0084
3205.00,0.0083
3202.00,0.0081
3199.00,0.0081
3196.00,0.0079
3193.00,0.0078
3190.00,0.0077
3187.00,0.0076
3184.00,0.0075
3181.00,0.0074
3178.00,0.0073
3175.00,0.0072
3172.00,0.0071
3169.00,0.0069
3166.00,0.0068
3163.00,0.0066
3160.00,0.0065
3157.00,0.0064
3154.00,0.0063
3151.00,0.0062
3148.00,0.0061
3145.00,0.0060
3142.00,0.0058
3139.00,0.0057
3136.00,0.0057
3133.00,0.0056
3130.00,0.0056
3127.00,0.0054
3124.00,0.0054
3121.00,0.0053
3118.00,0.0053
3115.00,0.0051
3112.00,0.0050
3109.00,0.0050
3106.00,0.0050
3103.00,0.0049
3100.00,0.0048
3097.00,0.0048
3094.00,0.0048
3091.00,0.0048
3088.00,0.0048
3085.00,0.0048
3082.00,0.0048
3079.00,0.0047
3076.00,0.0046
3073.00,0.0046
3070.00,0.0046
3067.00,0.0045
3064.00,0.0045
3061.00,0.0045
3058.00,0.0045
3055.00,0.0045
3052.00,0.0045
3049.00,0.0045
3046.00,0.0044
3043.00,0.0044
3040.00,0.0044
3037.00,0.0045
3034.00,0.0046
3031.00,0.0045
3028.00,0.0045
3025.00,0.0044
3022.00,0.0043
3019.00,0.0043
3016.00,0.0044
3013.00,0.0044
3010.00,0.0044
3007.00,0.0045
3004.00,0.0047
3001.00,0.0049
2998.00,0.0053
2995.00,0.0057
2992.00,0.0061
2989.00,0.0065
2986.00,0.0069
2983.00,0.0073
2980.00,0.0078
2977.00,0.0085
2974.00,0.0089
2971.00,0.0096
2968.00,0.0102
2965.00,0.0106
2962.00,0.0110
2959.00,0.0111
2956.00,0.0109
2953.00,0.0105
2950.00,0.0102
2947.00,0.0101
2944.00,0.0104
2941.00,0.0109
2938.00,0.0116
2935.00,0.0125
2932.00,0.0136
2929.00,0.0144
2926.00,0.0145
2923.00,0.0136
2920.00,0.0124
2917.00,0.0112
2914.00,0.0105
2911.00,0.0101
2908.00,0.0097
2905.00,0.0093
2902.00,0.0089
2899.00,0.0087
2896.00,0.0084
2893.00,0.0083
2890.00,0.0081
2887.00,0.0080
2884.00,0.0079
2881.00,0.0080
2878.00,0.0083
2875.00,0.0087
2872.00,0.0090
2869.00,0.0090
2866.00,0.0090
2863.00,0.0093
2860.00,0.0100
2857.00,0.0104
2854.00,0.0101
2851.00,0.0092
2848.00,0.0080
2845.00,0.0072
2842.00,0.0066
2839.00,0.0060
2836.00,0.0057
2833.00,0.0054
2830.00,0.0052
2827.00,0.0050
2824.00,0.0048
2821.00,0.0047
2818.00,0.0045
2815.00,0.0044
2812.00,0.0043
2809.00,0.0043
2806.00,0.0042
2803.00,0.0042
2800.00,0.0041
2797.00,0.0041
2794.00,0.0040
2791.00,0.0040
2788.00,0.0039
2785.00,0.0039
2782.00,0.0038
2779.00,0.0038
2776.00,0.0038
2773.00,0.0037
2770.00,0.0037
2767.00,0.0037
2764.00,0.0037
2761.00,0.0037
2758.00,0.0037
2755.00,0.0037
2752.00,0.0037
2749.00,0.0037
2746.00,0.0037
2743.00,0.0037
2740.00,0.0037
2737.00,0.0037
2734.00,0.0037
2731.00,0.0038
2728.00,0.0038
2725.00,0.0038
2722.00,0.0038
2719.00,0.0037
2716.00,0.0037
2713.00,0.0037
2710.00,0.0037
2707.00,0.0037
2704.00,0.0036
2701.00,0.0036
2698.00,0.0036
2695.00,0.0036
2692.00,0.0036
2689.00,0.0036
2686.00,0.0035
2683.00,0.0035
2680.00,0.0035
2677.00,0.0035
2674.00,0.0035
2671.00,0.0035
2668.00,0.0036
2665.00,0.0037
2662.00,0.0038
2659.00,0.0039
2656.00,0.0040
2653.00,0.0040
2650.00,0.0040
2647.00,0.0040
2644.00,0.0040
2641.00,0.0040
2638.00,0.0040
2635.00,0.0039
2632.00,0.0039
2629.00,0.0038
2626.00,0.0038
2623.00,0.0038
2620.00,0.0037
2617.00,0.0037
2614.00,0.0037
2611.00,0.0037
2608.00,0.0037
2605.00,0.0037
2602.00,0.0037
2599.00,0.0038
2596.00,0.0037
2593.00,0.0036
2590.00,0.0036
2587.00,0.0036
2584.00,0.0036
2581.00,0.0036
2578.00,0.0036
2575.00,0.0036
2572.00,0.0036
2569.00,0.0035
2566.00,0.0035
2563.00,0.0035
2560.00,0.0035
2557.00,0.0035
2554.00,0.0034
2551.00,0.0033
2548.00,0.0033
2545.00,0.0034
2542.00,0.0034
2539.00,0.0034
2536.00,0.0034
2533.00,0.0034
2530.00,0.0033
2527.00,0.0033
2524.00,0.0033
2521.00,0.0033
2518.00,0.0032
2515.00,0.0033
2512.00,0.0032
2509.00,0.0032
2506.00,0.0031
2503.00,0.0031
2500.00,0.0031
2497.00,0.0031
2494.00,0.0031
2491.00,0.0031
2488.00,0.0031
2485.00,0.0031
2482.00,0.0030
2479.00,0.0030
2476.00,0.0030
2473.00,0.0031
2470.00,0.0031
2467.00,0.0030
2464.00,0.0031
2461.00,0.0031
2458.00,0.0032
2455.00,0.0032
2452.00,0.0032
2449.00,0.0032
2446.00,0.0031
2443.00,0.0031
2440.00,0.0030
2437.00,0.0030
2434.00,0.0030
2431.00,0.0030
2428.00,0.0030
2425.00,0.0030
2422.00,0.0030
2419.00,0.0030
2416.00,0.0029
2413.00,0.0029
2410.00,0.0029
2407.00,0.0028
2404.00,0.0028
2401.00,0.0028
2398.00,0.0028
2395.00,0.0028
2392.00,0.0028
2389.00,0.0027
2386.00,0.0026
2383.00,0.0025
2380.00,0.0024
2377.00,0.0024
2374.00,0.0024
2371.00,0.0024
2368.00,0.0022
2365.00,0.0023
2362.00,0.0025
2359.00,0.0024
2356.00,0.0023
2353.00,0.0021
2350.00,0.0022
2347.00,0.0028
2344.00,0.0027
2341.00,0.0027
2338.00,0.0027
2335.00,0.0027
2332.00,0.0027
2329.00,0.0028
2326.00,0.0037
2323.00,0.0036
2320.00,0.0031
2317.00,0.0030
2314.00,0.0030
2311.00,0.0028
2308.00,0.0028
2305.00,0.0029
2302.00,0.0030
2299.00,0.0031
2296.00,0.0034
2293.00,0.0036
2290.00,0.0039
2287.00,0.0041
2284.00,0.0039
2281.00,0.0038
2278.00,0.0037
2275.00,0.0035
2272.00,0.0032
2269.00,0.0032
2266.00,0.0032
2263.00,0.0034
2260.00,0.0034
2257.00,0.0034
2254.00,0.0032
2251.00,0.0032
2248.00,0.0033
2245.00,0.0033
2242.00,0.0032
2239.00,0.0032
2236.00,0.0033
2233.00,0.0033
2230.00,0.0033
2227.00,0.0032
2224.00,0.0032
2221.00,0.0033
2218.00,0.0030
2215.00,0.0030
2212.00,0.0033
2209.00,0.0032
2206.00,0.0032
2203.00,0.0031
2200.00,0.0033
2197.00,0.0034
2194.00,0.0033
2191.00,0.0035
2188.00,0.0037
2185.00,0.0035
2182.00,0.0027
2179.00,0.0029
2176.00,0.0029
2173.00,0.0030
2170.00,0.0037
2167.00,0.0041
2164.00,0.0047
2161.00,0.0032
2158.00,0.0005
2155.00,0.0009
2152.00,0.0015
2149.00,0.0019
2146.00,0.0018
2143.00,0.0017
2140.00,0.0018
2137.00,0.0015
2134.00,0.0013
2131.00,0.0017
2128.00,0.0019
2125.00,0.0022
2122.00,0.0024
2119.00,0.0026
2116.00,0.0029
2113.00,0.0031
2110.00,0.0029
2107.00,0.0027
2104.00,0.0028
2101.00,0.0028
2098.00,0.0026
2095.00,0.0023
2092.00,0.0026
2089.00,0.0027
2086.00,0.0028
2083.00,0.0029
2080.00,0.0030
2077.00,0.0030
2074.00,0.0029
2071.00,0.0030
2068.00,0.0028
2065.00,0.0028
2062.00,0.0027
2059.00,0.0029
2056.00,0.0030
2053.00,0.0035
2050.00,0.0038
2047.00,0.0030
2044.00,0.0028
2041.00,0.0028
2038.00,0.0032
2035.00,0.0027
2032.00,0.0024
2029.00,0.0025
2026.00,0.0024
2023.00,0.0021
2020.00,0.0022
2017.00,0.0024
2014.00,0.0025
2011.00,0.0021
2008.00,0.0019
2005.00,0.0017
2002.00,0.0020
1999.00,0.0024
1996.00,0.0026
1993.00,0.0026
1990.00,0.0026
1987.00,0.0028
1984.00,0.0030
1981.00,0.0034
1978.00,0.0022
1975.00,0.0017
1972.00,0.0018
1969.00,0.0016
1966.00,0.0014
1963.00,0.0016
1960.00,0.0015
1957.00,0.0016
1954.00,0.0018
1951.00,0.0019
1948.00,0.0018
1945.00,0.0019
1942.00,0.0019
1939.00,0.0020
1936.00,0.0018
1933.00,0.0018
1930.00,0.0020
1927.00,0.0020
1924.00,0.0020
1921.00,0.0022
1918.00,0.0021
1915.00,0.0022
1912.00,0.0023
1909.00,0.0025
1906.00,0.0024
1903.00,0.0023
1900.00,0.0023
1897.00,0.0023
1894.00,0.0024
1891.00,0.0023
1888.00,0.0022
1885.00,0.0023
1882.00,0.0022
1879.00,0.0022
1876.00,0.0023
1873.00,0.0023
1870.00,0.0023
1867.00,0.0023
1864.00,0.0023
1861.00,0.0023
1858.00,0.0023
1855.00,0.0023
1852.00,0.0024
1849.00,0.0024
1846.00,0.0024
1843.00,0.0024
1840.00,0.0023
1837.00,0.0023
1834.00,0.0023
1831.00,0.0024
1828.00,0.0023
1825.00,0.0023
1822.00,0.0023
1819.00,0.0021
1816.00,0.0020
1813.00,0.0023
1810.00,0.0023
1807.00,0.0023
1804.00,0.0024
1801.00,0.0023
1798.00,0.0024
1795.00,0.0025
1792.00,0.0025
1789.00,0.0025
1786.00,0.0025
1783.00,0.0026
1780.00,0.0025
1777.00,0.0025
1774.00,0.0026
1771.00,0.0027
1768.00,0.0025
1765.00,0.0026
1762.00,0.0027
1759.00,0.0027
1756.00,0.0027
1753.00,0.0027
1750.00,0.0028
1747.00,0.0027
1744.00,0.0027
1741.00,0.0029
1738.00,0.0030
1735.00,0.0030
1732.00,0.0031
1729.00,0.0031
1726.00,0.0033
1723.00,0.0034
1720.00,0.0037
1717.00,0.0038
1714.00,0.0040
1711.00,0.0043
1708.00,0.0049
1705.00,0.0054
1702.00,0.0064
1699.00,0.0075
1696.00,0.0092
1693.00,0.0114
1690.00,0.0140
1687.00,0.0170
1684.00,0.0197
1681.00,0.0219
1678.00,0.0252
1675.00,0.0278
1672.00,0.0303
1669.00,0.0322
1666.00,0.0342
1663.00,0.0366
1660.00,0.0374
1657.00,0.0397
1654.00,0.0419
1651.00,0.0376
1648.00,0.0395
1645.00,0.0360
1642.00,0.0351
1639.00,0.0340
1636.00,0.0314
1633.00,0.0274
1630.00,0.0278
1627.00,0.0284
1624.00,0.0295
1621.00,0.0285
1618.00,0.0274
1615.00,0.0229
1612.00,0.0220
1609.00,0.0207
1606.00,0.0179
1603.00,0.0153
1600.00,0.0133
1597.00,0.0122
1594.00,0.0120
1591.00,0.0131
1588.00,0.0151
1585.00,0.0163
1582.00,0.0158
1579.00,0.0147
1576.00,0.0128
1573.00,0.0112
1570.00,0.0105
1567.00,0.0097
1564.00,0.0088
1561.00,0.0083
1558.00,0.0069
1555.00,0.0065
1552.00,0.0063
1549.00,0.0061
1546.00,0.0061
1543.00,0.0058
1540.00,0.0055
1537.00,0.0055
1534.00,0.0054
1531.00,0.0053
1528.00,0.0054
1525.00,0.0055
1522.00,0.0057
1519.00,0.0059
1516.00,0.0062
1513.00,0.0067
1510.00,0.0072
1507.00,0.0076
1504.00,0.0085
1501.00,0.0102
1498.00,0.0129
1495.00,0.0142
1492.00,0.0136
1489.00,0.0113
1486.00,0.0094
1483.00,0.0085
1480.00,0.0079
1477.00,0.0080
1474.00,0.0088
1471.00,0.0110
1468.00,0.0149
1465.00,0.0184
1462.00,0.0201
1459.00,0.0211
1456.00,0.0179
1453.00,0.0164
1450.00,0.0165
1447.00,0.0177
1444.00,0.0202
1441.00,0.0231
1438.00,0.0254
1435.00,0.0256
1432.00,0.0269
1429.00,0.0276
1426.00,0.0291
1423.00,0.0301
1420.00,0.0296
1417.00,0.0250
1414.00,0.0216
1411.00,0.0190
1408.00,0.0180
1405.00,0.0184
1402.00,0.0191
1399.00,0.0187
1396.00,0.0166
1393.00,0.0141
1390.00,0.0133
1387.00,0.0140
1384.00,0.0142
1381.00,0.0146
1378.00,0.0151
1375.00,0.0149
1372.00,0.0139
1369.00,0.0141
1366.00,0.0153
1363.00,0.0158
1360.00,0.0161
1357.00,0.0147
1354.00,0.0129
1351.00,0.0122
1348.00,0.0120
1345.00,0.0117
1342.00,0.0111
1339.00,0.0104
1336.00,0.0102
1333.00,0.0107
1330.00,0.0114
1327.00,0.0121
1324.00,0.0129
1321.00,0.0139
1318.00,0.0145
1315.00,0.0143
1312.00,0.0137
1309.00,0.0137
1306.00,0.0145
1303.00,0.0165
1300.00,0.0188
1297.00,0.0215
1294.00,0.0255
1291.00,0.0294
1288.00,0.0321
1285.00,0.0332
1282.00,0.0322
1279.00,0.0302
1276.00,0.0292
1273.00,0.0289
1270.00,0.0281
1267.00,0.0262
1264.00,0.0236
1261.00,0.0209
1258.00,0.0185
1255.00,0.0167
1252.00,0.0158
1249.00,0.0157
1246.00,0.0164
1243.00,0.0173
1240.00,0.0181
1237.00,0.0194
1234.00,0.0207
1231.00,0.0208
1228.00,0.0199
1225.00,0.0189
1222.00,0.0184
1219.00,0.0184
1216.00,0.0188
1213.00,0.0186
1210.00,0.0172
1207.00,0.0158
1204.00,0.0154
1201.00,0.0162
1198.00,0.0179
1195.00,0.0192
1192.00,0.0185
1189.00,0.0163
1186.00,0.0143
1183.00,0.0131
1180.00,0.0125
1177.00,0.0124
1174.00,0.0126
1171.00,0.0129
1168.00,0.0130
1165.00,0.0130
1162.00,0.0135
1159.00,0.0153
1156.00,0.0182
1153.00,0.0181
1150.00,0.0144
1147.00,0.0117
1144.00,0.0107
1141.00,0.0102
1138.00,0.0105
1135.00,0.0119
1132.00,0.0155
1129.00,0.0189
1126.00,0.0182
1123.00,0.0152
1120.00,0.0126
1117.00,0.0116
1114.00,0.0114
1111.00,0.0110
1108.00,0.0107
1105.00,0.0113
1102.00,0.0131
1099.00,0.0144
1096.00,0.0128
1093.00,0.0108
1090.00,0.0098
1087.00,0.0094
1084.00,0.0093
1081.00,0.0093
1078.00,0.0095
1075.00,0.0098
1072.00,0.0101
1069.00,0.0105
1066.00,0.0112
1063.00,0.0127
1060.00,0.0156
1057.00,0.0202
1054.00,0.0237
1051.00,0.0241
1048.00,0.0227
1045.00,0.0193
1042.00,0.0158
1039.00,0.0139
1036.00,0.0135
1033.00,0.0144
1030.00,0.0172
1027.00,0.0207
1024.00,0.0192
1021.00,0.0156
1018.00,0.0133
1015.00,0.0120
1012.00,0.0111
1009.00,0.0111
1006.00,0.0123
1003.00,0.0133
1000.00,0.0129
997.00,0.0120
994.00,0.0113
991.00,0.0105
988.00,0.0096
985.00,0.0091
982.00,0.0087
979.00,0.0085
976.00,0.0084
973.00,0.0082
970.00,0.0081
967.00,0.0079
964.00,0.0080
961.00,0.0081
958.00,0.0077
955.00,0.0072
952.00,0.0070
949.00,0.0072
946.00,0.0072
943.00,0.0075
940.00,0.0082
937.00,0.0090
934.00,0.0096
931.00,0.0096
928.00,0.0093
925.00,0.0093
922.00,0.0095
919.00,0.0090
916.00,0.0082
913.00,0.0078
910.00,0.0077
907.00,0.0078
904.00,0.0085
901.00,0.0097
898.00,0.0101
895.00,0.0095
892.00,0.0095
889.00,0.0097
886.00,0.0085
883.00,0.0081
880.00,0.0084
877.00,0.0096
874.00,0.0122
871.00,0.0148
868.00,0.0147
865.00,0.0129
862.00,0.0115
859.00,0.0109
856.00,0.0120
853.00,0.0137
850.00,0.0152
847.00,0.0154
844.00,0.0143
841.00,0.0137
838.00,0.0141
835.00,0.0154
832.00,0.0152
829.00,0.0134
826.00,0.0116
823.00,0.0124
820.00,0.0161
817.00,0.0174
814.00,0.0161
811.00,0.0118
808.00,0.0099
805.00,0.0089
802.00,0.0085
799.00,0.0086
796.00,0.0085
793.00,0.0085
790.00,0.0086
787.00,0.0087
784.00,0.0088
781.00,0.0090
778.00,0.0095
775.00,0.0103
772.00,0.0103
769.00,0.0100
766.00,0.0102
763.00,0.0107
760.00,0.0114
757.00,0.0118
754.00,0.0120
751.00,0.0124
748.00,0.0130
745.00,0.0135
742.00,0.0142
739.00,0.0156
736.00,0.0177
733.00,0.0181
730.00,0.0174
727.00,0.0167
724.00,0.0151
721.00,0.0140
718.00,0.0141
715.00,0.0147
712.00,0.0145
709.00,0.0142
706.00,0.0143
703.00,0.0146
700.00,0.0150
697.00,0.0154
694.00,0.0155
691.00,0.0160
688.00,0.0168
685.00,0.0168
682.00,0.0169
679.00,0.0174
676.00,0.0181
673.00,0.0192
670.00,0.0202
667.00,0.0201
664.00,0.0209
661.00,0.0219
658.00,0.0223
655.00,0.0228
652.00,0.0234
649.00,0.0238
646.00,0.0238
643.00,0.0233
640.00,0.0229
637.00,0.0224
634.00,0.0218
631.00,0.0214
628.00,0.0213
625.00,0.0215
622.00,0.0219
619.00,0.0222
616.00,0.0216
613.00,0.0210
610.00,0.0212
607.00,0.0222
604.00,0.0234
601.00,0.0240
598.00,0.0243
595.00,0.0246
592.00,0.0249
589.00,0.0250
586.00,0.0253
583.00,0.0260
580.00,0.0275
577.00,0.0287
574.00,0.0286
571.00,0.0278
568.00,0.0270
565.00,0.0271
562.00,0.0275
559.00,0.0278
556.00,0.0271
553.00,0.0265
550.00,0.0264
547.00,0.0272
544.00,0.0272
541.00,0.0262
538.00,0.0256
535.00,0.0259
532.00,0.0267
529.00,0.0264
526.00,0.0259
523.00,0.0255
520.00,0.0251
517.00,0.0247
514.00,0.0247
511.00,0.0249
508.00,0.0249
505.00,0.0252
502.00,0.0254
499.00,0.0251
496.00,0.0252
493.00,0.0253
490.00,0.0252
487.00,0.0252
484.00,0.0260
481.00,0.0261
478.00,0.0260
475.00,0.0257
472.00,0.0253
469.00,0.0253
466.00,0.0252
463.00,0.0246
460.00,0.0252
457.00,0.0248
454.00,0.0246
451.00,0.0245
448.00,0.0242
445.00,0.0237
442.00,0.0227
439.00,0.0231
436.00,0.0228
433.00,0.0220
430.00,0.0218
427.00,0.0217
424.00,0.0219
421.00,0.0210
418.00,0.0207
415.00,0.0195
412.00,0.0203
409.00,0.0209
406.00,0.0211
403.00,0.0226
400.00,0.0234