File: FTIR/Olivia/2025_07_28_Polystyrene_Std_scan1.csv
Created as New Dataset,Sample 932 By YargerLab Date Monday, July 28 2025
cm-1,A
4000.00,0.0013
3997.00,0.0012
3994.00,0.0012
3991.00,0.0012
3988.00,0.0012
3985.00,0.0012
3982.00,0.0013
3979.00,0.0013
3976.00,0.0012
3973.00,0.0013
3970.00,0.0012
3967.00,0.0012
3964.00,0.0012
3961.00,0.0012
3958.00,0.0013
3955.00,0.0012
3952.00,0.0012
3949.00,0.0012
3946.00,0.0011
3943.00,0.0012
3940.00,0.0012
3937.00,0.0012
3934.00,0.0011
3931.00,0.0011
3928.00,0.0012
3925.00,0.0012
3922.00,0.0012
3919.00,0.0011
3916.00,0.0011
3913.00,0.0011
3910.00,0.0012
3907.00,0.0012
3904.00,0.0011
3901.00,0.0010
3898.00,0.0010
3895.00,0.0011
3892.00,0.0011
3889.00,0.0011
3886.00,0.0010
3883.00,0.0010
3880.00,0.0011
3877.00,0.0010
3874.00,0.0010
3871.00,0.0010
3868.00,0.0010
3865.00,0.0009
3862.00,0.0010
3859.00,0.0011
3856.00,0.0012
3853.00,0.0011
3850.00,0.0009
3847.00,0.0010
3844.00,0.0011
3841.00,0.0010
3838.00,0.0010
3835.00,0.0010
3832.00,0.0010
3829.00,0.0011
3826.00,0.0011
3823.00,0.0010
3820.00,0.0010
3817.00,0.0010
3814.00,0.0011
3811.00,0.0012
3808.00,0.0012
3805.00,0.0011
3802.00,0.0011
3799.00,0.0011
3796.00,0.0011
3793.00,0.0012
3790.00,0.0012
3787.00,0.0012
3784.00,0.0012
3781.00,0.0011
3778.00,0.0011
3775.00,0.0011
3772.00,0.0011
3769.00,0.0011
3766.00,0.0011
3763.00,0.0011
3760.00,0.0010
3757.00,0.0011
3754.00,0.0011
3751.00,0.0010
3748.00,0.0009
3745.00,0.0009
3742.00,0.0010
3739.00,0.0009
3736.00,0.0009
3733.00,0.0009
3730.00,0.0010
3727.00,0.0010
3724.00,0.0011
3721.00,0.0010
3718.00,0.0010
3715.00,0.0011
3712.00,0.0010
3709.00,0.0010
3706.00,0.0010
3703.00,0.0011
3700.00,0.0011
3697.00,0.0011
3694.00,0.0011
3691.00,0.0009
3688.00,0.0008
3685.00,0.0009
3682.00,0.0010
3679.00,0.0010
3676.00,0.0010
3673.00,0.0009
3670.00,0.0009
3667.00,0.0010
3664.00,0.0009
3661.00,0.0010
3658.00,0.0010
3655.00,0.0010
3652.00,0.0009
3649.00,0.0010
3646.00,0.0010
3643.00,0.0011
3640.00,0.0011
3637.00,0.0010
3634.00,0.0011
3631.00,0.0011
3628.00,0.0010
3625.00,0.0010
3622.00,0.0011
3619.00,0.0011
3616.00,0.0010
3613.00,0.0010
3610.00,0.0010
3607.00,0.0010
3604.00,0.0011
3601.00,0.0011
3598.00,0.0011
3595.00,0.0011
3592.00,0.0011
3589.00,0.0011
3586.00,0.0011
3583.00,0.0011
3580.00,0.0012
3577.00,0.0012
3574.00,0.0012
3571.00,0.0012
3568.00,0.0012
3565.00,0.0011
3562.00,0.0011
3559.00,0.0012
3556.00,0.0013
3553.00,0.0013
3550.00,0.0013
3547.00,0.0013
3544.00,0.0014
3541.00,0.0014
3538.00,0.0015
3535.00,0.0015
3532.00,0.0015
3529.00,0.0015
3526.00,0.0015
3523.00,0.0015
3520.00,0.0015
3517.00,0.0016
3514.00,0.0016
3511.00,0.0016
3508.00,0.0016
3505.00,0.0016
3502.00,0.0017
3499.00,0.0016
3496.00,0.0016
3493.00,0.0017
3490.00,0.0017
3487.00,0.0018
3484.00,0.0018
3481.00,0.0018
3478.00,0.0018
3475.00,0.0018
3472.00,0.0018
3469.00,0.0018
3466.00,0.0018
3463.00,0.0018
3460.00,0.0018
3457.00,0.0019
3454.00,0.0019
3451.00,0.0019
3448.00,0.0019
3445.00,0.0020
3442.00,0.0020
3439.00,0.0020
3436.00,0.0019
3433.00,0.0019
3430.00,0.0019
3427.00,0.0019
3424.00,0.0019
3421.00,0.0019
3418.00,0.0019
3415.00,0.0019
3412.00,0.0020
3409.00,0.0020
3406.00,0.0019
3403.00,0.0019
3400.00,0.0019
3397.00,0.0019
3394.00,0.0019
3391.00,0.0019
3388.00,0.0019
3385.00,0.0019
3382.00,0.0020
3379.00,0.0019
3376.00,0.0019
3373.00,0.0020
3370.00,0.0019
3367.00,0.0019
3364.00,0.0019
3361.00,0.0019
3358.00,0.0019
3355.00,0.0019
3352.00,0.0019
3349.00,0.0020
3346.00,0.0020
3343.00,0.0019
3340.00,0.0019
3337.00,0.0019
3334.00,0.0020
3331.00,0.0020
3328.00,0.0020
3325.00,0.0019
3322.00,0.0019
3319.00,0.0019
3316.00,0.0019
3313.00,0.0019
3310.00,0.0019
3307.00,0.0019
3304.00,0.0019
3301.00,0.0019
3298.00,0.0019
3295.00,0.0018
3292.00,0.0019
3289.00,0.0019
3286.00,0.0019
3283.00,0.0019
3280.00,0.0019
3277.00,0.0019
3274.00,0.0019
3271.00,0.0019
3268.00,0.0019
3265.00,0.0019
3262.00,0.0019
3259.00,0.0019
3256.00,0.0018
3253.00,0.0019
3250.00,0.0018
3247.00,0.0018
3244.00,0.0018
3241.00,0.0018
3238.00,0.0018
3235.00,0.0018
3232.00,0.0018
3229.00,0.0018
3226.00,0.0018
3223.00,0.0018
3220.00,0.0018
3217.00,0.0018
3214.00,0.0018
3211.00,0.0019
3208.00,0.0019
3205.00,0.0019
3202.00,0.0019
3199.00,0.0019
3196.00,0.0019
3193.00,0.0018
3190.00,0.0018
3187.00,0.0018
3184.00,0.0017
3181.00,0.0017
3178.00,0.0017
3175.00,0.0018
3172.00,0.0018
3169.00,0.0019
3166.00,0.0020
3163.00,0.0020
3160.00,0.0019
3157.00,0.0018
3154.00,0.0018
3151.00,0.0018
3148.00,0.0017
3145.00,0.0017
3142.00,0.0017
3139.00,0.0017
3136.00,0.0017
3133.00,0.0018
3130.00,0.0018
3127.00,0.0018
3124.00,0.0018
3121.00,0.0019
3118.00,0.0021
3115.00,0.0025
3112.00,0.0030
3109.00,0.0037
3106.00,0.0045
3103.00,0.0048
3100.00,0.0046
3097.00,0.0045
3094.00,0.0050
3091.00,0.0063
3088.00,0.0086
3085.00,0.0112
3082.00,0.0120
3079.00,0.0107
3076.00,0.0092
3073.00,0.0088
3070.00,0.0097
3067.00,0.0117
3064.00,0.0145
3061.00,0.0165
3058.00,0.0160
3055.00,0.0134
3052.00,0.0109
3049.00,0.0092
3046.00,0.0085
3043.00,0.0088
3040.00,0.0102
3037.00,0.0128
3034.00,0.0172
3031.00,0.0236
3028.00,0.0299
3025.00,0.0318
3022.00,0.0268
3019.00,0.0188
3016.00,0.0127
3013.00,0.0094
3010.00,0.0080
3007.00,0.0080
3004.00,0.0087
3001.00,0.0087
2998.00,0.0074
2995.00,0.0057
2992.00,0.0046
2989.00,0.0042
2986.00,0.0041
2983.00,0.0038
2980.00,0.0038
2977.00,0.0042
2974.00,0.0045
2971.00,0.0049
2968.00,0.0055
2965.00,0.0063
2962.00,0.0071
2959.00,0.0081
2956.00,0.0093
2953.00,0.0106
2950.00,0.0122
2947.00,0.0143
2944.00,0.0169
2941.00,0.0201
2938.00,0.0238
2935.00,0.0280
2932.00,0.0322
2929.00,0.0361
2926.00,0.0389
2923.00,0.0403
2920.00,0.0401
2917.00,0.0386
2914.00,0.0361
2911.00,0.0332
2908.00,0.0302
2905.00,0.0271
2902.00,0.0240
2899.00,0.0210
2896.00,0.0185
2893.00,0.0166
2890.00,0.0151
2887.00,0.0140
2884.00,0.0130
2881.00,0.0121
2878.00,0.0113
2875.00,0.0108
2872.00,0.0104
2869.00,0.0103
2866.00,0.0106
2863.00,0.0116
2860.00,0.0131
2857.00,0.0150
2854.00,0.0167
2851.00,0.0177
2848.00,0.0174
2845.00,0.0158
2842.00,0.0130
2839.00,0.0099
2836.00,0.0075
2833.00,0.0059
2830.00,0.0049
2827.00,0.0044
2824.00,0.0040
2821.00,0.0038
2818.00,0.0037
2815.00,0.0036
2812.00,0.0035
2809.00,0.0034
2806.00,0.0033
2803.00,0.0032
2800.00,0.0031
2797.00,0.0030
2794.00,0.0029
2791.00,0.0028
2788.00,0.0028
2785.00,0.0028
2782.00,0.0027
2779.00,0.0027
2776.00,0.0027
2773.00,0.0026
2770.00,0.0025
2767.00,0.0024
2764.00,0.0024
2761.00,0.0024
2758.00,0.0024
2755.00,0.0024
2752.00,0.0023
2749.00,0.0023
2746.00,0.0023
2743.00,0.0023
2740.00,0.0023
2737.00,0.0023
2734.00,0.0023
2731.00,0.0024
2728.00,0.0024
2725.00,0.0023
2722.00,0.0023
2719.00,0.0023
2716.00,0.0023
2713.00,0.0023
2710.00,0.0023
2707.00,0.0023
2704.00,0.0023
2701.00,0.0023
2698.00,0.0023
2695.00,0.0023
2692.00,0.0023
2689.00,0.0023
2686.00,0.0023
2683.00,0.0022
2680.00,0.0022
2677.00,0.0023
2674.00,0.0023
2671.00,0.0023
2668.00,0.0023
2665.00,0.0024
2662.00,0.0026
2659.00,0.0027
2656.00,0.0027
2653.00,0.0028
2650.00,0.0028
2647.00,0.0028
2644.00,0.0028
2641.00,0.0028
2638.00,0.0029
2635.00,0.0029
2632.00,0.0029
2629.00,0.0028
2626.00,0.0027
2623.00,0.0026
2620.00,0.0026
2617.00,0.0025
2614.00,0.0025
2611.00,0.0025
2608.00,0.0026
2605.00,0.0026
2602.00,0.0025
2599.00,0.0025
2596.00,0.0023
2593.00,0.0023
2590.00,0.0022
2587.00,0.0022
2584.00,0.0022
2581.00,0.0023
2578.00,0.0022
2575.00,0.0020
2572.00,0.0020
2569.00,0.0019
2566.00,0.0019
2563.00,0.0019
2560.00,0.0019
2557.00,0.0019
2554.00,0.0019
2551.00,0.0019
2548.00,0.0019
2545.00,0.0018
2542.00,0.0018
2539.00,0.0017
2536.00,0.0018
2533.00,0.0018
2530.00,0.0017
2527.00,0.0017
2524.00,0.0018
2521.00,0.0017
2518.00,0.0017
2515.00,0.0017
2512.00,0.0017
2509.00,0.0017
2506.00,0.0016
2503.00,0.0016
2500.00,0.0016
2497.00,0.0015
2494.00,0.0015
2491.00,0.0015
2488.00,0.0015
2485.00,0.0015
2482.00,0.0015
2479.00,0.0015
2476.00,0.0014
2473.00,0.0014
2470.00,0.0015
2467.00,0.0014
2464.00,0.0014
2461.00,0.0014
2458.00,0.0015
2455.00,0.0016
2452.00,0.0015
2449.00,0.0014
2446.00,0.0014
2443.00,0.0014
2440.00,0.0014
2437.00,0.0013
2434.00,0.0013
2431.00,0.0011
2428.00,0.0010
2425.00,0.0010
2422.00,0.0010
2419.00,0.0010
2416.00,0.0011
2413.00,0.0011
2410.00,0.0011
2407.00,0.0009
2404.00,0.0008
2401.00,0.0009
2398.00,0.0009
2395.00,0.0009
2392.00,0.0009
2389.00,0.0009
2386.00,0.0009
2383.00,0.0009
2380.00,0.0010
2377.00,0.0010
2374.00,0.0010
2371.00,0.0010
2368.00,0.0010
2365.00,0.0011
2362.00,0.0013
2359.00,0.0015
2356.00,0.0015
2353.00,0.0014
2350.00,0.0015
2347.00,0.0017
2344.00,0.0018
2341.00,0.0020
2338.00,0.0021
2335.00,0.0021
2332.00,0.0020
2329.00,0.0021
2326.00,0.0033
2323.00,0.0031
2320.00,0.0027
2317.00,0.0025
2314.00,0.0025
2311.00,0.0023
2308.00,0.0022
2305.00,0.0021
2302.00,0.0020
2299.00,0.0020
2296.00,0.0022
2293.00,0.0024
2290.00,0.0026
2287.00,0.0026
2284.00,0.0024
2281.00,0.0020
2278.00,0.0018
2275.00,0.0018
2272.00,0.0018
2269.00,0.0016
2266.00,0.0014
2263.00,0.0016
2260.00,0.0017
2257.00,0.0015
2254.00,0.0013
2251.00,0.0013
2248.00,0.0013
2245.00,0.0014
2242.00,0.0013
2239.00,0.0013
2236.00,0.0012
2233.00,0.0013
2230.00,0.0013
2227.00,0.0011
2224.00,0.0010
2221.00,0.0011
2218.00,0.0012
2215.00,0.0011
2212.00,0.0009
2209.00,0.0010
2206.00,0.0011
2203.00,0.0010
2200.00,0.0011
2197.00,0.0011
2194.00,0.0011
2191.00,0.0012
2188.00,0.0014
2185.00,0.0011
2182.00,0.0003
2179.00,0.0008
2176.00,0.0007
2173.00,0.0007
2170.00,0.0014
2167.00,0.0020
2164.00,0.0026
2161.00,0.0005
2158.00,-0.0030
2155.00,-0.0022
2152.00,-0.0016
2149.00,-0.0012
2146.00,-0.0013
2143.00,-0.0011
2140.00,-0.0011
2137.00,-0.0016
2134.00,-0.0020
2131.00,-0.0014
2128.00,-0.0007
2125.00,-0.0004
2122.00,-0.0001
2119.00,0.0002
2116.00,0.0006
2113.00,0.0007
2110.00,0.0007
2107.00,0.0007
2104.00,0.0007
2101.00,0.0006
2098.00,0.0004
2095.00,0.0001
2092.00,0.0003
2089.00,0.0005
2086.00,0.0007
2083.00,0.0007
2080.00,0.0008
2077.00,0.0008
2074.00,0.0007
2071.00,0.0006
2068.00,0.0005
2065.00,0.0002
2062.00,0.0003
2059.00,0.0001
2056.00,0.0003
2053.00,0.0013
2050.00,0.0012
2047.00,0.0001
2044.00,0.0002
2041.00,0.0006
2038.00,0.0008
2035.00,0.0004
2032.00,-0.0003
2029.00,-0.0006
2026.00,-0.0006
2023.00,-0.0003
2020.00,-0.0006
2017.00,-0.0005
2014.00,-0.0000
2011.00,0.0000
2008.00,-0.0006
2005.00,-0.0011
2002.00,-0.0007
1999.00,-0.0001
1996.00,0.0003
1993.00,0.0009
1990.00,0.0011
1987.00,0.0012
1984.00,0.0019
1981.00,0.0024
1978.00,0.0005
1975.00,0.0001
1972.00,0.0003
1969.00,0.0006
1966.00,0.0007
1963.00,0.0013
1960.00,0.0014
1957.00,0.0020
1954.00,0.0025
1951.00,0.0030
1948.00,0.0036
1945.00,0.0040
1942.00,0.0041
1939.00,0.0037
1936.00,0.0031
1933.00,0.0022
1930.00,0.0016
1927.00,0.0013
1924.00,0.0010
1921.00,0.0010
1918.00,0.0008
1915.00,0.0007
1912.00,0.0008
1909.00,0.0008
1906.00,0.0009
1903.00,0.0010
1900.00,0.0011
1897.00,0.0015
1894.00,0.0019
1891.00,0.0023
1888.00,0.0026
1885.00,0.0029
1882.00,0.0032
1879.00,0.0034
1876.00,0.0036
1873.00,0.0039
1870.00,0.0041
1867.00,0.0039
1864.00,0.0034
1861.00,0.0028
1858.00,0.0022
1855.00,0.0017
1852.00,0.0014
1849.00,0.0011
1846.00,0.0010
1843.00,0.0009
1840.00,0.0009
1837.00,0.0010
1834.00,0.0011
1831.00,0.0014
1828.00,0.0017
1825.00,0.0020
1822.00,0.0023
1819.00,0.0024
1816.00,0.0027
1813.00,0.0033
1810.00,0.0039
1807.00,0.0043
1804.00,0.0046
1801.00,0.0047
1798.00,0.0043
1795.00,0.0038
1792.00,0.0032
1789.00,0.0026
1786.00,0.0023
1783.00,0.0023
1780.00,0.0022
1777.00,0.0023
1774.00,0.0024
1771.00,0.0024
1768.00,0.0025
1765.00,0.0026
1762.00,0.0030
1759.00,0.0033
1756.00,0.0038
1753.00,0.0043
1750.00,0.0050
1747.00,0.0054
1744.00,0.0057
1741.00,0.0058
1738.00,0.0057
1735.00,0.0056
1732.00,0.0053
1729.00,0.0050
1726.00,0.0047
1723.00,0.0045
1720.00,0.0043
1717.00,0.0042
1714.00,0.0039
1711.00,0.0039
1708.00,0.0040
1705.00,0.0040
1702.00,0.0041
1699.00,0.0042
1696.00,0.0042
1693.00,0.0045
1690.00,0.0049
1687.00,0.0052
1684.00,0.0056
1681.00,0.0057
1678.00,0.0056
1675.00,0.0057
1672.00,0.0058
1669.00,0.0058
1666.00,0.0058
1663.00,0.0056
1660.00,0.0054
1657.00,0.0052
1654.00,0.0049
1651.00,0.0044
1648.00,0.0041
1645.00,0.0037
1642.00,0.0035
1639.00,0.0034
1636.00,0.0033
1633.00,0.0033
1630.00,0.0034
1627.00,0.0037
1624.00,0.0039
1621.00,0.0042
1618.00,0.0044
1615.00,0.0050
1612.00,0.0065
1609.00,0.0103
1606.00,0.0185
1603.00,0.0281
1600.00,0.0292
1597.00,0.0205
1594.00,0.0133
1591.00,0.0099
1588.00,0.0095
1585.00,0.0122
1582.00,0.0122
1579.00,0.0082
1576.00,0.0054
1573.00,0.0043
1570.00,0.0037
1567.00,0.0032
1564.00,0.0031
1561.00,0.0031
1558.00,0.0032
1555.00,0.0034
1552.00,0.0038
1549.00,0.0042
1546.00,0.0046
1543.00,0.0048
1540.00,0.0045
1537.00,0.0042
1534.00,0.0038
1531.00,0.0034
1528.00,0.0031
1525.00,0.0030
1522.00,0.0030
1519.00,0.0031
1516.00,0.0032
1513.00,0.0035
1510.00,0.0040
1507.00,0.0047
1504.00,0.0065
1501.00,0.0104
1498.00,0.0239
1495.00,0.0593
1492.00,0.0725
1489.00,0.0431
1486.00,0.0225
1483.00,0.0137
1480.00,0.0096
1477.00,0.0081
1474.00,0.0076
1471.00,0.0076
1468.00,0.0082
1465.00,0.0093
1462.00,0.0114
1459.00,0.0173
1456.00,0.0453
1453.00,0.0727
1450.00,0.0700
1447.00,0.0534
1444.00,0.0417
1441.00,0.0323
1438.00,0.0254
1435.00,0.0185
1432.00,0.0140
1429.00,0.0108
1426.00,0.0092
1423.00,0.0081
1420.00,0.0076
1417.00,0.0070
1414.00,0.0066
1411.00,0.0064
1408.00,0.0063
1405.00,0.0063
1402.00,0.0062
1399.00,0.0063
1396.00,0.0065
1393.00,0.0071
1390.00,0.0083
1387.00,0.0099
1384.00,0.0114
1381.00,0.0129
1378.00,0.0143
1375.00,0.0155
1372.00,0.0159
1369.00,0.0157
1366.00,0.0155
1363.00,0.0153
1360.00,0.0146
1357.00,0.0138
1354.00,0.0134
1351.00,0.0132
1348.00,0.0131
1345.00,0.0126
1342.00,0.0121
1339.00,0.0116
1336.00,0.0118
1333.00,0.0126
1330.00,0.0135
1327.00,0.0136
1324.00,0.0130
1321.00,0.0126
1318.00,0.0127
1315.00,0.0131
1312.00,0.0133
1309.00,0.0129
1306.00,0.0124
1303.00,0.0118
1300.00,0.0112
1297.00,0.0110
1294.00,0.0109
1291.00,0.0108
1288.00,0.0105
1285.00,0.0102
1282.00,0.0100
1279.00,0.0096
1276.00,0.0090
1273.00,0.0084
1270.00,0.0079
1267.00,0.0076
1264.00,0.0074
1261.00,0.0072
1258.00,0.0070
1255.00,0.0069
1252.00,0.0069
1249.00,0.0071
1246.00,0.0072
1243.00,0.0072
1240.00,0.0072
1237.00,0.0072
1234.00,0.0071
1231.00,0.0071
1228.00,0.0072
1225.00,0.0073
1222.00,0.0073
1219.00,0.0073
1216.00,0.0074
1213.00,0.0076
1210.00,0.0080
1207.00,0.0085
1204.00,0.0093
1201.00,0.0102
1198.00,0.0109
1195.00,0.0112
1192.00,0.0113
1189.00,0.0116
1186.00,0.0129
1183.00,0.0149
1180.00,0.0149
1177.00,0.0121
1174.00,0.0098
1171.00,0.0088
1168.00,0.0086
1165.00,0.0087
1162.00,0.0095
1159.00,0.0119
1156.00,0.0148
1153.00,0.0145
1150.00,0.0110
1147.00,0.0083
1144.00,0.0070
1141.00,0.0063
1138.00,0.0059
1135.00,0.0058
1132.00,0.0058
1129.00,0.0059
1126.00,0.0060
1123.00,0.0063
1120.00,0.0067
1117.00,0.0076
1114.00,0.0083
1111.00,0.0085
1108.00,0.0084
1105.00,0.0083
1102.00,0.0085
1099.00,0.0088
1096.00,0.0091
1093.00,0.0095
1090.00,0.0099
1087.00,0.0106
1084.00,0.0117
1081.00,0.0131
1078.00,0.0147
1075.00,0.0167
1072.00,0.0193
1069.00,0.0206
1066.00,0.0197
1063.00,0.0176
1060.00,0.0155
1057.00,0.0139
1054.00,0.0127
1051.00,0.0117
1048.00,0.0108
1045.00,0.0104
1042.00,0.0105
1039.00,0.0116
1036.00,0.0159
1033.00,0.0250
1030.00,0.0341
1027.00,0.0353
1024.00,0.0284
1021.00,0.0223
1018.00,0.0186
1015.00,0.0162
1012.00,0.0146
1009.00,0.0138
1006.00,0.0144
1003.00,0.0150
1000.00,0.0129
997.00,0.0109
994.00,0.0104
991.00,0.0105
988.00,0.0111
985.00,0.0121
982.00,0.0131
979.00,0.0133
976.00,0.0125
973.00,0.0119
970.00,0.0124
967.00,0.0138
964.00,0.0144
961.00,0.0133
958.00,0.0113
955.00,0.0101
952.00,0.0099
949.00,0.0101
946.00,0.0106
943.00,0.0109
940.00,0.0105
937.00,0.0096
934.00,0.0085
931.00,0.0079
928.00,0.0077
925.00,0.0080
922.00,0.0086
919.00,0.0097
916.00,0.0120
913.00,0.0159
910.00,0.0207
907.00,0.0238
904.00,0.0225
901.00,0.0177
898.00,0.0127
895.00,0.0096
892.00,0.0081
889.00,0.0074
886.00,0.0069
883.00,0.0064
880.00,0.0061
877.00,0.0060
874.00,0.0058
871.00,0.0057
868.00,0.0056
865.00,0.0055
862.00,0.0054
859.00,0.0054
856.00,0.0057
853.00,0.0064
850.00,0.0078
847.00,0.0097
844.00,0.0116
841.00,0.0122
838.00,0.0110
835.00,0.0086
832.00,0.0065
829.00,0.0057
826.00,0.0055
823.00,0.0053
820.00,0.0053
817.00,0.0054
814.00,0.0056
811.00,0.0057
808.00,0.0058
805.00,0.0059
802.00,0.0061
799.00,0.0066
796.00,0.0076
793.00,0.0091
790.00,0.0109
787.00,0.0132
784.00,0.0161
781.00,0.0197
778.00,0.0251
775.00,0.0329
772.00,0.0431
769.00,0.0552
766.00,0.0673
763.00,0.0795
760.00,0.0923
757.00,0.1023
754.00,0.1054
751.00,0.1042
748.00,0.1023
745.00,0.0932
742.00,0.0738
739.00,0.0546
736.00,0.0392
733.00,0.0262
730.00,0.0174
727.00,0.0133
724.00,0.0118
721.00,0.0113
718.00,0.0121
715.00,0.0150
712.00,0.0227
709.00,0.0419
706.00,0.0785
703.00,0.1328
700.00,0.2004
697.00,0.2717
694.00,0.2938
691.00,0.2158
688.00,0.1348
685.00,0.0922
682.00,0.0696
679.00,0.0561
676.00,0.0479
673.00,0.0425
670.00,0.0386
667.00,0.0340
664.00,0.0303
661.00,0.0266
658.00,0.0233
655.00,0.0206
652.00,0.0184
649.00,0.0170
646.00,0.0157
643.00,0.0150
640.00,0.0148
637.00,0.0157
634.00,0.0169
631.00,0.0180
628.00,0.0190
625.00,0.0197
622.00,0.0207
619.00,0.0205
616.00,0.0186
613.00,0.0174
610.00,0.0165
607.00,0.0160
604.00,0.0160
601.00,0.0164
598.00,0.0172
595.00,0.0178
592.00,0.0186
589.00,0.0195
586.00,0.0203
583.00,0.0220
580.00,0.0242
577.00,0.0275
574.00,0.0314
571.00,0.0352
568.00,0.0392
565.00,0.0432
562.00,0.0471
559.00,0.0507
556.00,0.0549
553.00,0.0598
550.00,0.0654
547.00,0.0728
544.00,0.0824
541.00,0.0917
538.00,0.0958
535.00,0.0903
532.00,0.0773
529.00,0.0629
526.00,0.0503
523.00,0.0406
520.00,0.0353
517.00,0.0314
514.00,0.0282
511.00,0.0254
508.00,0.0228
505.00,0.0210
502.00,0.0189
499.00,0.0172
496.00,0.0168
493.00,0.0162
490.00,0.0150
487.00,0.0141
484.00,0.0139
481.00,0.0135
478.00,0.0126
475.00,0.0126
472.00,0.0118
469.00,0.0127
466.00,0.0125
463.00,0.0122
460.00,0.0120
457.00,0.0120
454.00,0.0111
451.00,0.0112
448.00,0.0110
445.00,0.0109
442.00,0.0104
439.00,0.0105
436.00,0.0105
433.00,0.0100
430.00,0.0096
427.00,0.0089
424.00,0.0093
421.00,0.0100
418.00,0.0090
415.00,0.0096
412.00,0.0092
409.00,0.0096
406.00,0.0111
403.00,0.0088
400.00,0.0066