File: FTIR/Olivia/2025_07_30_Polystyrene_Std_scan4.csv
Created as New Dataset,Sample 960 By YargerLab Date Wednesday, July 30 2025
cm-1,A
4000.00,0.0006
3997.00,0.0006
3994.00,0.0006
3991.00,0.0006
3988.00,0.0006
3985.00,0.0006
3982.00,0.0006
3979.00,0.0006
3976.00,0.0006
3973.00,0.0006
3970.00,0.0006
3967.00,0.0006
3964.00,0.0005
3961.00,0.0005
3958.00,0.0006
3955.00,0.0005
3952.00,0.0006
3949.00,0.0006
3946.00,0.0005
3943.00,0.0005
3940.00,0.0006
3937.00,0.0006
3934.00,0.0006
3931.00,0.0006
3928.00,0.0005
3925.00,0.0005
3922.00,0.0006
3919.00,0.0005
3916.00,0.0006
3913.00,0.0006
3910.00,0.0006
3907.00,0.0006
3904.00,0.0005
3901.00,0.0004
3898.00,0.0004
3895.00,0.0005
3892.00,0.0005
3889.00,0.0005
3886.00,0.0005
3883.00,0.0005
3880.00,0.0004
3877.00,0.0004
3874.00,0.0005
3871.00,0.0004
3868.00,0.0005
3865.00,0.0004
3862.00,0.0004
3859.00,0.0005
3856.00,0.0005
3853.00,0.0005
3850.00,0.0004
3847.00,0.0005
3844.00,0.0005
3841.00,0.0005
3838.00,0.0004
3835.00,0.0004
3832.00,0.0005
3829.00,0.0005
3826.00,0.0005
3823.00,0.0005
3820.00,0.0005
3817.00,0.0004
3814.00,0.0005
3811.00,0.0006
3808.00,0.0006
3805.00,0.0006
3802.00,0.0005
3799.00,0.0005
3796.00,0.0005
3793.00,0.0006
3790.00,0.0006
3787.00,0.0006
3784.00,0.0006
3781.00,0.0006
3778.00,0.0006
3775.00,0.0006
3772.00,0.0006
3769.00,0.0006
3766.00,0.0005
3763.00,0.0006
3760.00,0.0005
3757.00,0.0005
3754.00,0.0006
3751.00,0.0005
3748.00,0.0004
3745.00,0.0002
3742.00,0.0004
3739.00,0.0005
3736.00,0.0005
3733.00,0.0003
3730.00,0.0004
3727.00,0.0005
3724.00,0.0005
3721.00,0.0005
3718.00,0.0005
3715.00,0.0006
3712.00,0.0005
3709.00,0.0004
3706.00,0.0004
3703.00,0.0004
3700.00,0.0004
3697.00,0.0005
3694.00,0.0005
3691.00,0.0004
3688.00,0.0004
3685.00,0.0004
3682.00,0.0004
3679.00,0.0004
3676.00,0.0003
3673.00,0.0004
3670.00,0.0003
3667.00,0.0004
3664.00,0.0004
3661.00,0.0005
3658.00,0.0004
3655.00,0.0005
3652.00,0.0004
3649.00,0.0004
3646.00,0.0004
3643.00,0.0004
3640.00,0.0005
3637.00,0.0005
3634.00,0.0005
3631.00,0.0004
3628.00,0.0004
3625.00,0.0004
3622.00,0.0005
3619.00,0.0005
3616.00,0.0004
3613.00,0.0005
3610.00,0.0004
3607.00,0.0004
3604.00,0.0005
3601.00,0.0006
3598.00,0.0006
3595.00,0.0006
3592.00,0.0006
3589.00,0.0005
3586.00,0.0005
3583.00,0.0006
3580.00,0.0006
3577.00,0.0006
3574.00,0.0006
3571.00,0.0006
3568.00,0.0006
3565.00,0.0007
3562.00,0.0007
3559.00,0.0007
3556.00,0.0008
3553.00,0.0008
3550.00,0.0008
3547.00,0.0007
3544.00,0.0008
3541.00,0.0008
3538.00,0.0008
3535.00,0.0009
3532.00,0.0009
3529.00,0.0009
3526.00,0.0009
3523.00,0.0009
3520.00,0.0009
3517.00,0.0009
3514.00,0.0010
3511.00,0.0010
3508.00,0.0011
3505.00,0.0011
3502.00,0.0011
3499.00,0.0011
3496.00,0.0011
3493.00,0.0012
3490.00,0.0012
3487.00,0.0011
3484.00,0.0012
3481.00,0.0012
3478.00,0.0012
3475.00,0.0013
3472.00,0.0013
3469.00,0.0013
3466.00,0.0013
3463.00,0.0013
3460.00,0.0013
3457.00,0.0013
3454.00,0.0014
3451.00,0.0014
3448.00,0.0014
3445.00,0.0014
3442.00,0.0014
3439.00,0.0014
3436.00,0.0015
3433.00,0.0016
3430.00,0.0016
3427.00,0.0016
3424.00,0.0016
3421.00,0.0016
3418.00,0.0016
3415.00,0.0017
3412.00,0.0017
3409.00,0.0017
3406.00,0.0018
3403.00,0.0018
3400.00,0.0017
3397.00,0.0018
3394.00,0.0017
3391.00,0.0018
3388.00,0.0018
3385.00,0.0018
3382.00,0.0018
3379.00,0.0018
3376.00,0.0019
3373.00,0.0019
3370.00,0.0019
3367.00,0.0019
3364.00,0.0019
3361.00,0.0020
3358.00,0.0020
3355.00,0.0021
3352.00,0.0021
3349.00,0.0021
3346.00,0.0021
3343.00,0.0021
3340.00,0.0022
3337.00,0.0022
3334.00,0.0022
3331.00,0.0022
3328.00,0.0021
3325.00,0.0022
3322.00,0.0021
3319.00,0.0020
3316.00,0.0020
3313.00,0.0020
3310.00,0.0020
3307.00,0.0020
3304.00,0.0021
3301.00,0.0021
3298.00,0.0021
3295.00,0.0021
3292.00,0.0021
3289.00,0.0021
3286.00,0.0020
3283.00,0.0020
3280.00,0.0020
3277.00,0.0020
3274.00,0.0020
3271.00,0.0020
3268.00,0.0020
3265.00,0.0019
3262.00,0.0019
3259.00,0.0019
3256.00,0.0018
3253.00,0.0018
3250.00,0.0017
3247.00,0.0017
3244.00,0.0017
3241.00,0.0017
3238.00,0.0016
3235.00,0.0015
3232.00,0.0015
3229.00,0.0015
3226.00,0.0015
3223.00,0.0015
3220.00,0.0015
3217.00,0.0014
3214.00,0.0015
3211.00,0.0015
3208.00,0.0014
3205.00,0.0014
3202.00,0.0014
3199.00,0.0013
3196.00,0.0013
3193.00,0.0013
3190.00,0.0013
3187.00,0.0013
3184.00,0.0012
3181.00,0.0012
3178.00,0.0012
3175.00,0.0012
3172.00,0.0012
3169.00,0.0012
3166.00,0.0012
3163.00,0.0012
3160.00,0.0012
3157.00,0.0011
3154.00,0.0011
3151.00,0.0012
3148.00,0.0011
3145.00,0.0011
3142.00,0.0011
3139.00,0.0011
3136.00,0.0011
3133.00,0.0011
3130.00,0.0011
3127.00,0.0010
3124.00,0.0010
3121.00,0.0010
3118.00,0.0010
3115.00,0.0011
3112.00,0.0012
3109.00,0.0014
3106.00,0.0015
3103.00,0.0016
3100.00,0.0015
3097.00,0.0015
3094.00,0.0015
3091.00,0.0017
3088.00,0.0022
3085.00,0.0027
3082.00,0.0030
3079.00,0.0029
3076.00,0.0025
3073.00,0.0023
3070.00,0.0024
3067.00,0.0028
3064.00,0.0033
3061.00,0.0038
3058.00,0.0038
3055.00,0.0034
3052.00,0.0028
3049.00,0.0024
3046.00,0.0022
3043.00,0.0022
3040.00,0.0025
3037.00,0.0029
3034.00,0.0037
3031.00,0.0049
3028.00,0.0063
3025.00,0.0070
3022.00,0.0063
3019.00,0.0046
3016.00,0.0032
3013.00,0.0024
3010.00,0.0021
3007.00,0.0020
3004.00,0.0021
3001.00,0.0022
2998.00,0.0021
2995.00,0.0017
2992.00,0.0014
2989.00,0.0013
2986.00,0.0013
2983.00,0.0013
2980.00,0.0013
2977.00,0.0014
2974.00,0.0015
2971.00,0.0016
2968.00,0.0016
2965.00,0.0018
2962.00,0.0019
2959.00,0.0020
2956.00,0.0022
2953.00,0.0024
2950.00,0.0028
2947.00,0.0032
2944.00,0.0037
2941.00,0.0042
2938.00,0.0049
2935.00,0.0057
2932.00,0.0064
2929.00,0.0072
2926.00,0.0079
2923.00,0.0082
2920.00,0.0083
2917.00,0.0081
2914.00,0.0077
2911.00,0.0073
2908.00,0.0067
2905.00,0.0061
2902.00,0.0056
2899.00,0.0049
2896.00,0.0044
2893.00,0.0040
2890.00,0.0037
2887.00,0.0035
2884.00,0.0033
2881.00,0.0031
2878.00,0.0029
2875.00,0.0028
2872.00,0.0026
2869.00,0.0026
2866.00,0.0027
2863.00,0.0028
2860.00,0.0030
2857.00,0.0032
2854.00,0.0036
2851.00,0.0038
2848.00,0.0039
2845.00,0.0036
2842.00,0.0032
2839.00,0.0026
2836.00,0.0020
2833.00,0.0017
2830.00,0.0015
2827.00,0.0013
2824.00,0.0012
2821.00,0.0012
2818.00,0.0011
2815.00,0.0011
2812.00,0.0011
2809.00,0.0011
2806.00,0.0011
2803.00,0.0011
2800.00,0.0010
2797.00,0.0010
2794.00,0.0010
2791.00,0.0010
2788.00,0.0010
2785.00,0.0009
2782.00,0.0009
2779.00,0.0009
2776.00,0.0010
2773.00,0.0010
2770.00,0.0009
2767.00,0.0009
2764.00,0.0009
2761.00,0.0009
2758.00,0.0009
2755.00,0.0009
2752.00,0.0009
2749.00,0.0009
2746.00,0.0009
2743.00,0.0009
2740.00,0.0009
2737.00,0.0009
2734.00,0.0009
2731.00,0.0009
2728.00,0.0009
2725.00,0.0009
2722.00,0.0009
2719.00,0.0009
2716.00,0.0009
2713.00,0.0009
2710.00,0.0009
2707.00,0.0009
2704.00,0.0009
2701.00,0.0009
2698.00,0.0009
2695.00,0.0008
2692.00,0.0008
2689.00,0.0009
2686.00,0.0009
2683.00,0.0008
2680.00,0.0008
2677.00,0.0008
2674.00,0.0008
2671.00,0.0009
2668.00,0.0009
2665.00,0.0010
2662.00,0.0011
2659.00,0.0012
2656.00,0.0013
2653.00,0.0013
2650.00,0.0013
2647.00,0.0013
2644.00,0.0013
2641.00,0.0013
2638.00,0.0013
2635.00,0.0012
2632.00,0.0013
2629.00,0.0013
2626.00,0.0012
2623.00,0.0011
2620.00,0.0011
2617.00,0.0011
2614.00,0.0011
2611.00,0.0011
2608.00,0.0011
2605.00,0.0011
2602.00,0.0010
2599.00,0.0010
2596.00,0.0010
2593.00,0.0009
2590.00,0.0010
2587.00,0.0009
2584.00,0.0009
2581.00,0.0009
2578.00,0.0009
2575.00,0.0008
2572.00,0.0008
2569.00,0.0008
2566.00,0.0008
2563.00,0.0007
2560.00,0.0007
2557.00,0.0007
2554.00,0.0007
2551.00,0.0007
2548.00,0.0007
2545.00,0.0008
2542.00,0.0007
2539.00,0.0006
2536.00,0.0006
2533.00,0.0006
2530.00,0.0006
2527.00,0.0007
2524.00,0.0007
2521.00,0.0006
2518.00,0.0007
2515.00,0.0006
2512.00,0.0005
2509.00,0.0006
2506.00,0.0006
2503.00,0.0005
2500.00,0.0006
2497.00,0.0006
2494.00,0.0006
2491.00,0.0006
2488.00,0.0006
2485.00,0.0006
2482.00,0.0006
2479.00,0.0005
2476.00,0.0005
2473.00,0.0004
2470.00,0.0005
2467.00,0.0006
2464.00,0.0005
2461.00,0.0006
2458.00,0.0006
2455.00,0.0006
2452.00,0.0006
2449.00,0.0006
2446.00,0.0006
2443.00,0.0005
2440.00,0.0005
2437.00,0.0005
2434.00,0.0004
2431.00,0.0004
2428.00,0.0004
2425.00,0.0004
2422.00,0.0003
2419.00,0.0003
2416.00,0.0004
2413.00,0.0004
2410.00,0.0003
2407.00,0.0002
2404.00,0.0001
2401.00,0.0002
2398.00,0.0002
2395.00,0.0002
2392.00,0.0002
2389.00,0.0002
2386.00,0.0002
2383.00,0.0002
2380.00,0.0001
2377.00,0.0002
2374.00,0.0003
2371.00,0.0003
2368.00,0.0003
2365.00,0.0003
2362.00,0.0004
2359.00,0.0005
2356.00,0.0006
2353.00,0.0004
2350.00,0.0007
2347.00,0.0007
2344.00,0.0007
2341.00,0.0009
2338.00,0.0008
2335.00,0.0009
2332.00,0.0008
2329.00,0.0010
2326.00,0.0019
2323.00,0.0018
2320.00,0.0014
2317.00,0.0014
2314.00,0.0013
2311.00,0.0011
2308.00,0.0010
2305.00,0.0010
2302.00,0.0010
2299.00,0.0010
2296.00,0.0011
2293.00,0.0013
2290.00,0.0014
2287.00,0.0015
2284.00,0.0014
2281.00,0.0012
2278.00,0.0011
2275.00,0.0010
2272.00,0.0010
2269.00,0.0009
2266.00,0.0007
2263.00,0.0008
2260.00,0.0008
2257.00,0.0008
2254.00,0.0006
2251.00,0.0006
2248.00,0.0008
2245.00,0.0007
2242.00,0.0007
2239.00,0.0007
2236.00,0.0007
2233.00,0.0008
2230.00,0.0006
2227.00,0.0006
2224.00,0.0008
2221.00,0.0006
2218.00,0.0005
2215.00,0.0006
2212.00,0.0007
2209.00,0.0007
2206.00,0.0006
2203.00,0.0006
2200.00,0.0006
2197.00,0.0007
2194.00,0.0006
2191.00,0.0007
2188.00,0.0007
2185.00,0.0004
2182.00,0.0000
2179.00,0.0005
2176.00,0.0003
2173.00,0.0004
2170.00,0.0012
2167.00,0.0015
2164.00,0.0015
2161.00,0.0005
2158.00,-0.0021
2155.00,-0.0015
2152.00,-0.0011
2149.00,-0.0010
2146.00,-0.0010
2143.00,-0.0009
2140.00,-0.0009
2137.00,-0.0010
2134.00,-0.0015
2131.00,-0.0011
2128.00,-0.0008
2125.00,-0.0005
2122.00,-0.0004
2119.00,-0.0001
2116.00,0.0004
2113.00,0.0005
2110.00,0.0003
2107.00,0.0003
2104.00,0.0002
2101.00,0.0003
2098.00,0.0001
2095.00,-0.0002
2092.00,-0.0000
2089.00,0.0002
2086.00,0.0004
2083.00,0.0006
2080.00,0.0005
2077.00,0.0004
2074.00,0.0003
2071.00,0.0003
2068.00,0.0002
2065.00,0.0003
2062.00,0.0002
2059.00,0.0002
2056.00,0.0004
2053.00,0.0010
2050.00,0.0011
2047.00,0.0004
2044.00,0.0002
2041.00,0.0002
2038.00,0.0003
2035.00,0.0002
2032.00,-0.0003
2029.00,-0.0003
2026.00,-0.0001
2023.00,-0.0001
2020.00,-0.0001
2017.00,-0.0004
2014.00,-0.0004
2011.00,-0.0003
2008.00,-0.0003
2005.00,-0.0004
2002.00,-0.0006
1999.00,-0.0005
1996.00,-0.0001
1993.00,0.0004
1990.00,0.0003
1987.00,0.0005
1984.00,0.0007
1981.00,0.0013
1978.00,0.0001
1975.00,-0.0006
1972.00,-0.0006
1969.00,-0.0006
1966.00,-0.0003
1963.00,-0.0003
1960.00,-0.0005
1957.00,-0.0001
1954.00,-0.0001
1951.00,0.0001
1948.00,0.0005
1945.00,0.0004
1942.00,0.0004
1939.00,0.0003
1936.00,0.0003
1933.00,0.0001
1930.00,-0.0000
1927.00,-0.0001
1924.00,-0.0002
1921.00,-0.0001
1918.00,-0.0000
1915.00,-0.0001
1912.00,-0.0001
1909.00,-0.0000
1906.00,0.0000
1903.00,0.0000
1900.00,0.0001
1897.00,0.0001
1894.00,0.0002
1891.00,0.0003
1888.00,0.0004
1885.00,0.0004
1882.00,0.0006
1879.00,0.0006
1876.00,0.0006
1873.00,0.0007
1870.00,0.0007
1867.00,0.0007
1864.00,0.0006
1861.00,0.0005
1858.00,0.0005
1855.00,0.0004
1852.00,0.0002
1849.00,0.0001
1846.00,0.0001
1843.00,0.0001
1840.00,0.0002
1837.00,0.0001
1834.00,0.0002
1831.00,0.0002
1828.00,0.0003
1825.00,0.0004
1822.00,0.0005
1819.00,0.0004
1816.00,0.0003
1813.00,0.0006
1810.00,0.0008
1807.00,0.0009
1804.00,0.0011
1801.00,0.0011
1798.00,0.0011
1795.00,0.0010
1792.00,0.0008
1789.00,0.0007
1786.00,0.0007
1783.00,0.0007
1780.00,0.0007
1777.00,0.0006
1774.00,0.0007
1771.00,0.0007
1768.00,0.0008
1765.00,0.0008
1762.00,0.0009
1759.00,0.0009
1756.00,0.0011
1753.00,0.0012
1750.00,0.0013
1747.00,0.0014
1744.00,0.0015
1741.00,0.0015
1738.00,0.0016
1735.00,0.0016
1732.00,0.0014
1729.00,0.0014
1726.00,0.0014
1723.00,0.0014
1720.00,0.0013
1717.00,0.0013
1714.00,0.0012
1711.00,0.0012
1708.00,0.0012
1705.00,0.0012
1702.00,0.0012
1699.00,0.0011
1696.00,0.0010
1693.00,0.0010
1690.00,0.0011
1687.00,0.0011
1684.00,0.0013
1681.00,0.0014
1678.00,0.0016
1675.00,0.0018
1672.00,0.0019
1669.00,0.0021
1666.00,0.0021
1663.00,0.0021
1660.00,0.0020
1657.00,0.0020
1654.00,0.0018
1651.00,0.0016
1648.00,0.0016
1645.00,0.0015
1642.00,0.0015
1639.00,0.0015
1636.00,0.0014
1633.00,0.0014
1630.00,0.0014
1627.00,0.0014
1624.00,0.0014
1621.00,0.0014
1618.00,0.0015
1615.00,0.0016
1612.00,0.0019
1609.00,0.0027
1606.00,0.0044
1603.00,0.0066
1600.00,0.0073
1597.00,0.0055
1594.00,0.0036
1591.00,0.0027
1588.00,0.0025
1585.00,0.0030
1582.00,0.0032
1579.00,0.0024
1576.00,0.0017
1573.00,0.0013
1570.00,0.0012
1567.00,0.0011
1564.00,0.0011
1561.00,0.0011
1558.00,0.0011
1555.00,0.0011
1552.00,0.0012
1549.00,0.0013
1546.00,0.0014
1543.00,0.0015
1540.00,0.0014
1537.00,0.0014
1534.00,0.0014
1531.00,0.0012
1528.00,0.0011
1525.00,0.0011
1522.00,0.0010
1519.00,0.0011
1516.00,0.0011
1513.00,0.0012
1510.00,0.0014
1507.00,0.0016
1504.00,0.0019
1501.00,0.0028
1498.00,0.0056
1495.00,0.0133
1492.00,0.0184
1489.00,0.0117
1486.00,0.0061
1483.00,0.0040
1480.00,0.0029
1477.00,0.0025
1474.00,0.0024
1471.00,0.0023
1468.00,0.0025
1465.00,0.0029
1462.00,0.0034
1459.00,0.0047
1456.00,0.0101
1453.00,0.0173
1450.00,0.0181
1447.00,0.0138
1444.00,0.0110
1441.00,0.0088
1438.00,0.0072
1435.00,0.0051
1432.00,0.0041
1429.00,0.0033
1426.00,0.0029
1423.00,0.0027
1420.00,0.0024
1417.00,0.0023
1414.00,0.0022
1411.00,0.0021
1408.00,0.0021
1405.00,0.0021
1402.00,0.0021
1399.00,0.0022
1396.00,0.0022
1393.00,0.0025
1390.00,0.0028
1387.00,0.0033
1384.00,0.0037
1381.00,0.0042
1378.00,0.0045
1375.00,0.0049
1372.00,0.0051
1369.00,0.0051
1366.00,0.0050
1363.00,0.0049
1360.00,0.0047
1357.00,0.0046
1354.00,0.0044
1351.00,0.0044
1348.00,0.0044
1345.00,0.0043
1342.00,0.0041
1339.00,0.0040
1336.00,0.0042
1333.00,0.0045
1330.00,0.0047
1327.00,0.0047
1324.00,0.0045
1321.00,0.0045
1318.00,0.0046
1315.00,0.0048
1312.00,0.0048
1309.00,0.0047
1306.00,0.0044
1303.00,0.0042
1300.00,0.0039
1297.00,0.0038
1294.00,0.0039
1291.00,0.0038
1288.00,0.0037
1285.00,0.0036
1282.00,0.0036
1279.00,0.0036
1276.00,0.0034
1273.00,0.0031
1270.00,0.0030
1267.00,0.0029
1264.00,0.0028
1261.00,0.0027
1258.00,0.0027
1255.00,0.0027
1252.00,0.0027
1249.00,0.0028
1246.00,0.0028
1243.00,0.0028
1240.00,0.0028
1237.00,0.0028
1234.00,0.0027
1231.00,0.0027
1228.00,0.0027
1225.00,0.0027
1222.00,0.0027
1219.00,0.0027
1216.00,0.0027
1213.00,0.0029
1210.00,0.0030
1207.00,0.0032
1204.00,0.0035
1201.00,0.0037
1198.00,0.0039
1195.00,0.0040
1192.00,0.0040
1189.00,0.0040
1186.00,0.0044
1183.00,0.0050
1180.00,0.0051
1177.00,0.0045
1174.00,0.0039
1171.00,0.0038
1168.00,0.0039
1165.00,0.0042
1162.00,0.0045
1159.00,0.0052
1156.00,0.0059
1153.00,0.0059
1150.00,0.0050
1147.00,0.0040
1144.00,0.0036
1141.00,0.0033
1138.00,0.0032
1135.00,0.0032
1132.00,0.0033
1129.00,0.0034
1126.00,0.0035
1123.00,0.0038
1120.00,0.0040
1117.00,0.0045
1114.00,0.0050
1111.00,0.0052
1108.00,0.0053
1105.00,0.0052
1102.00,0.0052
1099.00,0.0052
1096.00,0.0053
1093.00,0.0054
1090.00,0.0054
1087.00,0.0056
1084.00,0.0060
1081.00,0.0064
1078.00,0.0070
1075.00,0.0077
1072.00,0.0085
1069.00,0.0091
1066.00,0.0091
1063.00,0.0087
1060.00,0.0082
1057.00,0.0080
1054.00,0.0077
1051.00,0.0074
1048.00,0.0070
1045.00,0.0067
1042.00,0.0066
1039.00,0.0071
1036.00,0.0084
1033.00,0.0111
1030.00,0.0139
1027.00,0.0145
1024.00,0.0126
1021.00,0.0106
1018.00,0.0094
1015.00,0.0086
1012.00,0.0081
1009.00,0.0079
1006.00,0.0081
1003.00,0.0083
1000.00,0.0079
997.00,0.0071
994.00,0.0069
991.00,0.0068
988.00,0.0071
985.00,0.0075
982.00,0.0079
979.00,0.0078
976.00,0.0074
973.00,0.0070
970.00,0.0071
967.00,0.0074
964.00,0.0075
961.00,0.0071
958.00,0.0065
955.00,0.0060
952.00,0.0059
949.00,0.0060
946.00,0.0060
943.00,0.0059
940.00,0.0058
937.00,0.0054
934.00,0.0050
931.00,0.0047
928.00,0.0045
925.00,0.0046
922.00,0.0048
919.00,0.0051
916.00,0.0057
913.00,0.0069
910.00,0.0085
907.00,0.0093
904.00,0.0090
901.00,0.0075
898.00,0.0059
895.00,0.0048
892.00,0.0044
889.00,0.0041
886.00,0.0038
883.00,0.0036
880.00,0.0036
877.00,0.0035
874.00,0.0033
871.00,0.0033
868.00,0.0033
865.00,0.0031
862.00,0.0031
859.00,0.0031
856.00,0.0033
853.00,0.0035
850.00,0.0039
847.00,0.0045
844.00,0.0051
841.00,0.0054
838.00,0.0048
835.00,0.0040
832.00,0.0035
829.00,0.0030
826.00,0.0029
823.00,0.0030
820.00,0.0029
817.00,0.0030
814.00,0.0030
811.00,0.0029
808.00,0.0030
805.00,0.0032
802.00,0.0032
799.00,0.0034
796.00,0.0038
793.00,0.0042
790.00,0.0048
787.00,0.0056
784.00,0.0065
781.00,0.0078
778.00,0.0094
775.00,0.0117
772.00,0.0149
769.00,0.0187
766.00,0.0223
763.00,0.0259
760.00,0.0297
757.00,0.0327
754.00,0.0334
751.00,0.0330
748.00,0.0327
745.00,0.0305
742.00,0.0247
739.00,0.0185
736.00,0.0137
733.00,0.0096
730.00,0.0070
727.00,0.0058
724.00,0.0055
721.00,0.0054
718.00,0.0057
715.00,0.0067
712.00,0.0092
709.00,0.0154
706.00,0.0274
703.00,0.0461
700.00,0.0689
697.00,0.0901
694.00,0.0959
691.00,0.0745
688.00,0.0499
685.00,0.0358
682.00,0.0279
679.00,0.0228
676.00,0.0196
673.00,0.0176
670.00,0.0164
667.00,0.0146
664.00,0.0133
661.00,0.0120
658.00,0.0107
655.00,0.0096
652.00,0.0088
649.00,0.0082
646.00,0.0076
643.00,0.0072
640.00,0.0073
637.00,0.0076
634.00,0.0080
631.00,0.0084
628.00,0.0089
625.00,0.0091
622.00,0.0094
619.00,0.0096
616.00,0.0091
613.00,0.0088
610.00,0.0081
607.00,0.0079
604.00,0.0083
601.00,0.0087
598.00,0.0087
595.00,0.0089
592.00,0.0092
589.00,0.0096
586.00,0.0100
583.00,0.0103
580.00,0.0113
577.00,0.0124
574.00,0.0139
571.00,0.0153
568.00,0.0170
565.00,0.0183
562.00,0.0198
559.00,0.0213
556.00,0.0230
553.00,0.0245
550.00,0.0265
547.00,0.0291
544.00,0.0323
541.00,0.0358
538.00,0.0377
535.00,0.0359
532.00,0.0319
529.00,0.0268
526.00,0.0226
523.00,0.0193
520.00,0.0171
517.00,0.0159
514.00,0.0142
511.00,0.0131
508.00,0.0125
505.00,0.0118
502.00,0.0107
499.00,0.0103
496.00,0.0102
493.00,0.0101
490.00,0.0094
487.00,0.0088
484.00,0.0084
481.00,0.0085
478.00,0.0082
475.00,0.0085
472.00,0.0082
469.00,0.0083
466.00,0.0087
463.00,0.0077
460.00,0.0079
457.00,0.0080
454.00,0.0078
451.00,0.0075
448.00,0.0075
445.00,0.0076
442.00,0.0076
439.00,0.0073
436.00,0.0079
433.00,0.0075
430.00,0.0062
427.00,0.0050
424.00,0.0051
421.00,0.0059
418.00,0.0053
415.00,0.0053
412.00,0.0057
409.00,0.0080
406.00,0.0077
403.00,0.0058
400.00,0.0042