File: FTIR/Olivia/2025_06_18_CBD_SorbicAcid_Cocrystal_Slurry_Vial_scan3.csv
Created as New Dataset,Sample 714 By YargerLab Date Wednesday, June 18 2025
cm-1,A
4000.00,0.0017
3997.00,0.0017
3994.00,0.0016
3991.00,0.0016
3988.00,0.0017
3985.00,0.0016
3982.00,0.0017
3979.00,0.0017
3976.00,0.0017
3973.00,0.0017
3970.00,0.0017
3967.00,0.0017
3964.00,0.0017
3961.00,0.0017
3958.00,0.0017
3955.00,0.0016
3952.00,0.0016
3949.00,0.0016
3946.00,0.0016
3943.00,0.0016
3940.00,0.0016
3937.00,0.0016
3934.00,0.0016
3931.00,0.0016
3928.00,0.0016
3925.00,0.0016
3922.00,0.0016
3919.00,0.0015
3916.00,0.0016
3913.00,0.0016
3910.00,0.0016
3907.00,0.0016
3904.00,0.0015
3901.00,0.0015
3898.00,0.0015
3895.00,0.0015
3892.00,0.0015
3889.00,0.0016
3886.00,0.0015
3883.00,0.0015
3880.00,0.0015
3877.00,0.0015
3874.00,0.0015
3871.00,0.0015
3868.00,0.0016
3865.00,0.0015
3862.00,0.0015
3859.00,0.0016
3856.00,0.0016
3853.00,0.0016
3850.00,0.0015
3847.00,0.0015
3844.00,0.0015
3841.00,0.0015
3838.00,0.0015
3835.00,0.0015
3832.00,0.0015
3829.00,0.0015
3826.00,0.0015
3823.00,0.0015
3820.00,0.0016
3817.00,0.0015
3814.00,0.0015
3811.00,0.0015
3808.00,0.0016
3805.00,0.0015
3802.00,0.0014
3799.00,0.0015
3796.00,0.0015
3793.00,0.0015
3790.00,0.0015
3787.00,0.0015
3784.00,0.0015
3781.00,0.0015
3778.00,0.0015
3775.00,0.0016
3772.00,0.0016
3769.00,0.0016
3766.00,0.0015
3763.00,0.0016
3760.00,0.0015
3757.00,0.0015
3754.00,0.0014
3751.00,0.0015
3748.00,0.0015
3745.00,0.0014
3742.00,0.0014
3739.00,0.0014
3736.00,0.0014
3733.00,0.0014
3730.00,0.0014
3727.00,0.0013
3724.00,0.0013
3721.00,0.0013
3718.00,0.0014
3715.00,0.0013
3712.00,0.0013
3709.00,0.0013
3706.00,0.0013
3703.00,0.0013
3700.00,0.0013
3697.00,0.0014
3694.00,0.0014
3691.00,0.0013
3688.00,0.0012
3685.00,0.0012
3682.00,0.0013
3679.00,0.0012
3676.00,0.0011
3673.00,0.0011
3670.00,0.0010
3667.00,0.0011
3664.00,0.0011
3661.00,0.0011
3658.00,0.0010
3655.00,0.0011
3652.00,0.0010
3649.00,0.0010
3646.00,0.0010
3643.00,0.0010
3640.00,0.0011
3637.00,0.0011
3634.00,0.0011
3631.00,0.0012
3628.00,0.0012
3625.00,0.0012
3622.00,0.0012
3619.00,0.0012
3616.00,0.0012
3613.00,0.0012
3610.00,0.0013
3607.00,0.0013
3604.00,0.0014
3601.00,0.0014
3598.00,0.0013
3595.00,0.0013
3592.00,0.0013
3589.00,0.0013
3586.00,0.0014
3583.00,0.0014
3580.00,0.0014
3577.00,0.0014
3574.00,0.0014
3571.00,0.0015
3568.00,0.0015
3565.00,0.0015
3562.00,0.0016
3559.00,0.0017
3556.00,0.0017
3553.00,0.0018
3550.00,0.0018
3547.00,0.0018
3544.00,0.0019
3541.00,0.0019
3538.00,0.0021
3535.00,0.0022
3532.00,0.0022
3529.00,0.0023
3526.00,0.0024
3523.00,0.0026
3520.00,0.0027
3517.00,0.0029
3514.00,0.0030
3511.00,0.0032
3508.00,0.0033
3505.00,0.0035
3502.00,0.0038
3499.00,0.0041
3496.00,0.0045
3493.00,0.0048
3490.00,0.0052
3487.00,0.0057
3484.00,0.0063
3481.00,0.0068
3478.00,0.0073
3475.00,0.0080
3472.00,0.0089
3469.00,0.0099
3466.00,0.0114
3463.00,0.0135
3460.00,0.0164
3457.00,0.0203
3454.00,0.0246
3451.00,0.0282
3448.00,0.0295
3445.00,0.0282
3442.00,0.0254
3439.00,0.0223
3436.00,0.0193
3433.00,0.0167
3430.00,0.0147
3427.00,0.0130
3424.00,0.0117
3421.00,0.0106
3418.00,0.0097
3415.00,0.0091
3412.00,0.0085
3409.00,0.0080
3406.00,0.0077
3403.00,0.0075
3400.00,0.0073
3397.00,0.0072
3394.00,0.0071
3391.00,0.0070
3388.00,0.0069
3385.00,0.0069
3382.00,0.0069
3379.00,0.0068
3376.00,0.0068
3373.00,0.0068
3370.00,0.0068
3367.00,0.0068
3364.00,0.0068
3361.00,0.0069
3358.00,0.0069
3355.00,0.0070
3352.00,0.0071
3349.00,0.0071
3346.00,0.0072
3343.00,0.0072
3340.00,0.0073
3337.00,0.0074
3334.00,0.0074
3331.00,0.0075
3328.00,0.0076
3325.00,0.0077
3322.00,0.0078
3319.00,0.0079
3316.00,0.0080
3313.00,0.0082
3310.00,0.0083
3307.00,0.0085
3304.00,0.0086
3301.00,0.0087
3298.00,0.0088
3295.00,0.0091
3292.00,0.0092
3289.00,0.0094
3286.00,0.0096
3283.00,0.0098
3280.00,0.0100
3277.00,0.0102
3274.00,0.0103
3271.00,0.0105
3268.00,0.0108
3265.00,0.0110
3262.00,0.0112
3259.00,0.0114
3256.00,0.0115
3253.00,0.0117
3250.00,0.0119
3247.00,0.0120
3244.00,0.0122
3241.00,0.0124
3238.00,0.0127
3235.00,0.0128
3232.00,0.0130
3229.00,0.0132
3226.00,0.0134
3223.00,0.0136
3220.00,0.0138
3217.00,0.0139
3214.00,0.0141
3211.00,0.0143
3208.00,0.0146
3205.00,0.0148
3202.00,0.0150
3199.00,0.0151
3196.00,0.0153
3193.00,0.0155
3190.00,0.0156
3187.00,0.0157
3184.00,0.0158
3181.00,0.0160
3178.00,0.0161
3175.00,0.0161
3172.00,0.0161
3169.00,0.0163
3166.00,0.0164
3163.00,0.0165
3160.00,0.0165
3157.00,0.0165
3154.00,0.0166
3151.00,0.0167
3148.00,0.0170
3145.00,0.0172
3142.00,0.0174
3139.00,0.0176
3136.00,0.0178
3133.00,0.0180
3130.00,0.0180
3127.00,0.0182
3124.00,0.0184
3121.00,0.0184
3118.00,0.0185
3115.00,0.0187
3112.00,0.0188
3109.00,0.0191
3106.00,0.0193
3103.00,0.0194
3100.00,0.0196
3097.00,0.0197
3094.00,0.0197
3091.00,0.0197
3088.00,0.0198
3085.00,0.0199
3082.00,0.0201
3079.00,0.0204
3076.00,0.0208
3073.00,0.0212
3070.00,0.0215
3067.00,0.0212
3064.00,0.0206
3061.00,0.0199
3058.00,0.0192
3055.00,0.0187
3052.00,0.0183
3049.00,0.0180
3046.00,0.0178
3043.00,0.0177
3040.00,0.0176
3037.00,0.0175
3034.00,0.0173
3031.00,0.0172
3028.00,0.0169
3025.00,0.0167
3022.00,0.0165
3019.00,0.0163
3016.00,0.0161
3013.00,0.0159
3010.00,0.0158
3007.00,0.0157
3004.00,0.0157
3001.00,0.0156
2998.00,0.0158
2995.00,0.0161
2992.00,0.0167
2989.00,0.0173
2986.00,0.0176
2983.00,0.0176
2980.00,0.0182
2977.00,0.0194
2974.00,0.0201
2971.00,0.0206
2968.00,0.0213
2965.00,0.0225
2962.00,0.0246
2959.00,0.0270
2956.00,0.0290
2953.00,0.0298
2950.00,0.0292
2947.00,0.0278
2944.00,0.0275
2941.00,0.0290
2938.00,0.0313
2935.00,0.0342
2932.00,0.0380
2929.00,0.0421
2926.00,0.0447
2923.00,0.0449
2920.00,0.0433
2917.00,0.0406
2914.00,0.0376
2911.00,0.0343
2908.00,0.0311
2905.00,0.0284
2902.00,0.0265
2899.00,0.0252
2896.00,0.0241
2893.00,0.0232
2890.00,0.0227
2887.00,0.0224
2884.00,0.0222
2881.00,0.0222
2878.00,0.0227
2875.00,0.0238
2872.00,0.0251
2869.00,0.0253
2866.00,0.0243
2863.00,0.0246
2860.00,0.0264
2857.00,0.0277
2854.00,0.0271
2851.00,0.0250
2848.00,0.0226
2845.00,0.0209
2842.00,0.0201
2839.00,0.0194
2836.00,0.0193
2833.00,0.0193
2830.00,0.0183
2827.00,0.0166
2824.00,0.0150
2821.00,0.0140
2818.00,0.0134
2815.00,0.0130
2812.00,0.0126
2809.00,0.0123
2806.00,0.0121
2803.00,0.0120
2800.00,0.0119
2797.00,0.0117
2794.00,0.0117
2791.00,0.0116
2788.00,0.0116
2785.00,0.0115
2782.00,0.0116
2779.00,0.0117
2776.00,0.0118
2773.00,0.0119
2770.00,0.0120
2767.00,0.0121
2764.00,0.0123
2761.00,0.0123
2758.00,0.0124
2755.00,0.0125
2752.00,0.0125
2749.00,0.0125
2746.00,0.0125
2743.00,0.0126
2740.00,0.0126
2737.00,0.0127
2734.00,0.0129
2731.00,0.0130
2728.00,0.0130
2725.00,0.0130
2722.00,0.0130
2719.00,0.0130
2716.00,0.0130
2713.00,0.0130
2710.00,0.0130
2707.00,0.0131
2704.00,0.0131
2701.00,0.0131
2698.00,0.0131
2695.00,0.0131
2692.00,0.0132
2689.00,0.0132
2686.00,0.0132
2683.00,0.0131
2680.00,0.0131
2677.00,0.0131
2674.00,0.0131
2671.00,0.0131
2668.00,0.0132
2665.00,0.0133
2662.00,0.0135
2659.00,0.0135
2656.00,0.0135
2653.00,0.0134
2650.00,0.0133
2647.00,0.0132
2644.00,0.0132
2641.00,0.0132
2638.00,0.0131
2635.00,0.0131
2632.00,0.0129
2629.00,0.0129
2626.00,0.0129
2623.00,0.0128
2620.00,0.0127
2617.00,0.0127
2614.00,0.0126
2611.00,0.0125
2608.00,0.0125
2605.00,0.0123
2602.00,0.0122
2599.00,0.0121
2596.00,0.0120
2593.00,0.0119
2590.00,0.0117
2587.00,0.0117
2584.00,0.0115
2581.00,0.0114
2578.00,0.0113
2575.00,0.0113
2572.00,0.0113
2569.00,0.0113
2566.00,0.0114
2563.00,0.0114
2560.00,0.0115
2557.00,0.0116
2554.00,0.0116
2551.00,0.0115
2548.00,0.0114
2545.00,0.0113
2542.00,0.0111
2539.00,0.0109
2536.00,0.0108
2533.00,0.0107
2530.00,0.0106
2527.00,0.0105
2524.00,0.0104
2521.00,0.0103
2518.00,0.0102
2515.00,0.0101
2512.00,0.0100
2509.00,0.0098
2506.00,0.0096
2503.00,0.0096
2500.00,0.0095
2497.00,0.0095
2494.00,0.0095
2491.00,0.0094
2488.00,0.0093
2485.00,0.0094
2482.00,0.0094
2479.00,0.0093
2476.00,0.0094
2473.00,0.0093
2470.00,0.0092
2467.00,0.0092
2464.00,0.0092
2461.00,0.0094
2458.00,0.0095
2455.00,0.0095
2452.00,0.0095
2449.00,0.0095
2446.00,0.0095
2443.00,0.0095
2440.00,0.0094
2437.00,0.0094
2434.00,0.0093
2431.00,0.0093
2428.00,0.0093
2425.00,0.0092
2422.00,0.0091
2419.00,0.0090
2416.00,0.0089
2413.00,0.0088
2410.00,0.0086
2407.00,0.0083
2404.00,0.0082
2401.00,0.0080
2398.00,0.0078
2395.00,0.0076
2392.00,0.0075
2389.00,0.0074
2386.00,0.0072
2383.00,0.0069
2380.00,0.0067
2377.00,0.0066
2374.00,0.0065
2371.00,0.0064
2368.00,0.0061
2365.00,0.0061
2362.00,0.0061
2359.00,0.0060
2356.00,0.0059
2353.00,0.0058
2350.00,0.0056
2347.00,0.0058
2344.00,0.0057
2341.00,0.0057
2338.00,0.0056
2335.00,0.0055
2332.00,0.0054
2329.00,0.0056
2326.00,0.0066
2323.00,0.0063
2320.00,0.0057
2317.00,0.0054
2314.00,0.0053
2311.00,0.0051
2308.00,0.0049
2305.00,0.0049
2302.00,0.0049
2299.00,0.0049
2296.00,0.0050
2293.00,0.0052
2290.00,0.0054
2287.00,0.0054
2284.00,0.0052
2281.00,0.0050
2278.00,0.0047
2275.00,0.0046
2272.00,0.0045
2269.00,0.0044
2266.00,0.0043
2263.00,0.0042
2260.00,0.0042
2257.00,0.0040
2254.00,0.0037
2251.00,0.0039
2248.00,0.0037
2245.00,0.0037
2242.00,0.0038
2239.00,0.0039
2236.00,0.0038
2233.00,0.0035
2230.00,0.0037
2227.00,0.0037
2224.00,0.0036
2221.00,0.0033
2218.00,0.0034
2215.00,0.0034
2212.00,0.0031
2209.00,0.0031
2206.00,0.0033
2203.00,0.0031
2200.00,0.0030
2197.00,0.0033
2194.00,0.0035
2191.00,0.0037
2188.00,0.0036
2185.00,0.0032
2182.00,0.0027
2179.00,0.0030
2176.00,0.0027
2173.00,0.0030
2170.00,0.0034
2167.00,0.0041
2164.00,0.0045
2161.00,0.0026
2158.00,-0.0011
2155.00,-0.0005
2152.00,0.0002
2149.00,0.0007
2146.00,0.0005
2143.00,0.0008
2140.00,0.0009
2137.00,0.0003
2134.00,-0.0002
2131.00,0.0003
2128.00,0.0006
2125.00,0.0011
2122.00,0.0014
2119.00,0.0017
2116.00,0.0021
2113.00,0.0021
2110.00,0.0018
2107.00,0.0019
2104.00,0.0020
2101.00,0.0018
2098.00,0.0017
2095.00,0.0013
2092.00,0.0016
2089.00,0.0018
2086.00,0.0018
2083.00,0.0019
2080.00,0.0022
2077.00,0.0020
2074.00,0.0019
2071.00,0.0018
2068.00,0.0017
2065.00,0.0015
2062.00,0.0014
2059.00,0.0017
2056.00,0.0016
2053.00,0.0023
2050.00,0.0026
2047.00,0.0020
2044.00,0.0022
2041.00,0.0023
2038.00,0.0020
2035.00,0.0018
2032.00,0.0013
2029.00,0.0012
2026.00,0.0012
2023.00,0.0012
2020.00,0.0011
2017.00,0.0012
2014.00,0.0015
2011.00,0.0016
2008.00,0.0008
2005.00,0.0002
2002.00,0.0009
1999.00,0.0011
1996.00,0.0011
1993.00,0.0015
1990.00,0.0017
1987.00,0.0017
1984.00,0.0021
1981.00,0.0028
1978.00,0.0012
1975.00,0.0004
1972.00,0.0004
1969.00,0.0003
1966.00,0.0004
1963.00,0.0006
1960.00,0.0002
1957.00,0.0005
1954.00,0.0008
1951.00,0.0010
1948.00,0.0009
1945.00,0.0009
1942.00,0.0007
1939.00,0.0008
1936.00,0.0009
1933.00,0.0009
1930.00,0.0008
1927.00,0.0009
1924.00,0.0010
1921.00,0.0012
1918.00,0.0012
1915.00,0.0012
1912.00,0.0013
1909.00,0.0012
1906.00,0.0012
1903.00,0.0012
1900.00,0.0011
1897.00,0.0011
1894.00,0.0011
1891.00,0.0011
1888.00,0.0012
1885.00,0.0012
1882.00,0.0013
1879.00,0.0012
1876.00,0.0012
1873.00,0.0013
1870.00,0.0014
1867.00,0.0014
1864.00,0.0014
1861.00,0.0013
1858.00,0.0014
1855.00,0.0014
1852.00,0.0014
1849.00,0.0014
1846.00,0.0014
1843.00,0.0015
1840.00,0.0014
1837.00,0.0015
1834.00,0.0014
1831.00,0.0014
1828.00,0.0014
1825.00,0.0015
1822.00,0.0015
1819.00,0.0013
1816.00,0.0012
1813.00,0.0013
1810.00,0.0015
1807.00,0.0016
1804.00,0.0017
1801.00,0.0018
1798.00,0.0018
1795.00,0.0019
1792.00,0.0021
1789.00,0.0022
1786.00,0.0024
1783.00,0.0025
1780.00,0.0025
1777.00,0.0024
1774.00,0.0025
1771.00,0.0025
1768.00,0.0025
1765.00,0.0024
1762.00,0.0024
1759.00,0.0024
1756.00,0.0024
1753.00,0.0023
1750.00,0.0025
1747.00,0.0025
1744.00,0.0026
1741.00,0.0026
1738.00,0.0026
1735.00,0.0027
1732.00,0.0028
1729.00,0.0029
1726.00,0.0030
1723.00,0.0031
1720.00,0.0032
1717.00,0.0033
1714.00,0.0034
1711.00,0.0035
1708.00,0.0036
1705.00,0.0037
1702.00,0.0038
1699.00,0.0039
1696.00,0.0039
1693.00,0.0040
1690.00,0.0042
1687.00,0.0044
1684.00,0.0046
1681.00,0.0050
1678.00,0.0053
1675.00,0.0058
1672.00,0.0064
1669.00,0.0073
1666.00,0.0083
1663.00,0.0096
1660.00,0.0112
1657.00,0.0132
1654.00,0.0159
1651.00,0.0199
1648.00,0.0252
1645.00,0.0340
1642.00,0.0440
1639.00,0.0527
1636.00,0.0599
1633.00,0.0646
1630.00,0.0649
1627.00,0.0576
1624.00,0.0489
1621.00,0.0404
1618.00,0.0356
1615.00,0.0300
1612.00,0.0276
1609.00,0.0255
1606.00,0.0243
1603.00,0.0242
1600.00,0.0252
1597.00,0.0279
1594.00,0.0336
1591.00,0.0426
1588.00,0.0522
1585.00,0.0597
1582.00,0.0654
1579.00,0.0702
1576.00,0.0708
1573.00,0.0704
1570.00,0.0686
1567.00,0.0640
1564.00,0.0597
1561.00,0.0565
1558.00,0.0457
1555.00,0.0409
1552.00,0.0362
1549.00,0.0321
1546.00,0.0292
1543.00,0.0268
1540.00,0.0240
1537.00,0.0225
1534.00,0.0224
1531.00,0.0227
1528.00,0.0244
1525.00,0.0257
1522.00,0.0248
1519.00,0.0217
1516.00,0.0184
1513.00,0.0163
1510.00,0.0152
1507.00,0.0141
1504.00,0.0128
1501.00,0.0124
1498.00,0.0119
1495.00,0.0113
1492.00,0.0111
1489.00,0.0111
1486.00,0.0111
1483.00,0.0117
1480.00,0.0129
1477.00,0.0148
1474.00,0.0170
1471.00,0.0211
1468.00,0.0250
1465.00,0.0248
1462.00,0.0264
1459.00,0.0323
1456.00,0.0401
1453.00,0.0490
1450.00,0.0598
1447.00,0.0681
1444.00,0.0721
1441.00,0.0697
1438.00,0.0635
1435.00,0.0548
1432.00,0.0502
1429.00,0.0435
1426.00,0.0382
1423.00,0.0345
1420.00,0.0330
1417.00,0.0319
1414.00,0.0322
1411.00,0.0327
1408.00,0.0335
1405.00,0.0344
1402.00,0.0351
1399.00,0.0352
1396.00,0.0344
1393.00,0.0325
1390.00,0.0311
1387.00,0.0298
1384.00,0.0300
1381.00,0.0341
1378.00,0.0394
1375.00,0.0394
1372.00,0.0357
1369.00,0.0360
1366.00,0.0369
1363.00,0.0352
1360.00,0.0340
1357.00,0.0355
1354.00,0.0396
1351.00,0.0437
1348.00,0.0442
1345.00,0.0410
1342.00,0.0386
1339.00,0.0391
1336.00,0.0409
1333.00,0.0395
1330.00,0.0364
1327.00,0.0376
1324.00,0.0435
1321.00,0.0517
1318.00,0.0545
1315.00,0.0480
1312.00,0.0400
1309.00,0.0363
1306.00,0.0370
1303.00,0.0364
1300.00,0.0337
1297.00,0.0330
1294.00,0.0338
1291.00,0.0366
1288.00,0.0413
1285.00,0.0454
1282.00,0.0500
1279.00,0.0505
1276.00,0.0436
1273.00,0.0350
1270.00,0.0286
1267.00,0.0243
1264.00,0.0215
1261.00,0.0204
1258.00,0.0215
1255.00,0.0258
1252.00,0.0302
1249.00,0.0331
1246.00,0.0391
1243.00,0.0422
1240.00,0.0369
1237.00,0.0296
1234.00,0.0255
1231.00,0.0263
1228.00,0.0284
1225.00,0.0262
1222.00,0.0246
1219.00,0.0260
1216.00,0.0247
1213.00,0.0227
1210.00,0.0271
1207.00,0.0387
1204.00,0.0417
1201.00,0.0321
1198.00,0.0232
1195.00,0.0190
1192.00,0.0183
1189.00,0.0189
1186.00,0.0186
1183.00,0.0181
1180.00,0.0200
1177.00,0.0266
1174.00,0.0356
1171.00,0.0406
1168.00,0.0346
1165.00,0.0258
1162.00,0.0205
1159.00,0.0183
1156.00,0.0182
1153.00,0.0217
1150.00,0.0317
1147.00,0.0324
1144.00,0.0201
1141.00,0.0137
1138.00,0.0123
1135.00,0.0117
1132.00,0.0105
1129.00,0.0090
1126.00,0.0081
1123.00,0.0077
1120.00,0.0075
1117.00,0.0076
1114.00,0.0080
1111.00,0.0089
1108.00,0.0103
1105.00,0.0120
1102.00,0.0142
1099.00,0.0154
1096.00,0.0137
1093.00,0.0117
1090.00,0.0105
1087.00,0.0102
1084.00,0.0108
1081.00,0.0111
1078.00,0.0106
1075.00,0.0095
1072.00,0.0090
1069.00,0.0093
1066.00,0.0108
1063.00,0.0142
1060.00,0.0204
1057.00,0.0308
1054.00,0.0409
1051.00,0.0360
1048.00,0.0265
1045.00,0.0245
1042.00,0.0275
1039.00,0.0346
1036.00,0.0455
1033.00,0.0531
1030.00,0.0511
1027.00,0.0410
1024.00,0.0304
1021.00,0.0243
1018.00,0.0208
1015.00,0.0182
1012.00,0.0166
1009.00,0.0155
1006.00,0.0141
1003.00,0.0146
1000.00,0.0185
997.00,0.0183
994.00,0.0144
991.00,0.0134
988.00,0.0138
985.00,0.0141
982.00,0.0130
979.00,0.0115
976.00,0.0106
973.00,0.0106
970.00,0.0112
967.00,0.0119
964.00,0.0139
961.00,0.0170
958.00,0.0178
955.00,0.0167
952.00,0.0156
949.00,0.0151
946.00,0.0149
943.00,0.0155
940.00,0.0153
937.00,0.0139
934.00,0.0131
931.00,0.0137
928.00,0.0151
925.00,0.0163
922.00,0.0177
919.00,0.0204
916.00,0.0227
913.00,0.0230
910.00,0.0201
907.00,0.0194
904.00,0.0226
901.00,0.0248
898.00,0.0232
895.00,0.0242
892.00,0.0372
889.00,0.0512
886.00,0.0482
883.00,0.0459
880.00,0.0348
877.00,0.0282
874.00,0.0259
871.00,0.0258
868.00,0.0277
865.00,0.0344
862.00,0.0444
859.00,0.0469
856.00,0.0462
853.00,0.0422
850.00,0.0374
847.00,0.0369
844.00,0.0389
841.00,0.0394
838.00,0.0391
835.00,0.0342
832.00,0.0298
829.00,0.0296
826.00,0.0275
823.00,0.0225
820.00,0.0195
817.00,0.0179
814.00,0.0177
811.00,0.0189
808.00,0.0225
805.00,0.0294
802.00,0.0303
799.00,0.0291
796.00,0.0319
793.00,0.0313
790.00,0.0258
787.00,0.0223
784.00,0.0208
781.00,0.0199
778.00,0.0200
775.00,0.0211
772.00,0.0225
769.00,0.0229
766.00,0.0222
763.00,0.0210
760.00,0.0198
757.00,0.0196
754.00,0.0193
751.00,0.0172
748.00,0.0157
745.00,0.0158
742.00,0.0169
739.00,0.0189
736.00,0.0224
733.00,0.0259
730.00,0.0236
727.00,0.0199
724.00,0.0182
721.00,0.0174
718.00,0.0174
715.00,0.0174
712.00,0.0176
709.00,0.0173
706.00,0.0171
703.00,0.0169
700.00,0.0171
697.00,0.0172
694.00,0.0177
691.00,0.0186
688.00,0.0199
685.00,0.0216
682.00,0.0234
679.00,0.0249
676.00,0.0247
673.00,0.0241
670.00,0.0242
667.00,0.0217
664.00,0.0184
661.00,0.0169
658.00,0.0164
655.00,0.0161
652.00,0.0168
649.00,0.0172
646.00,0.0165
643.00,0.0162
640.00,0.0166
637.00,0.0175
634.00,0.0182
631.00,0.0182
628.00,0.0173
625.00,0.0162
622.00,0.0155
619.00,0.0162
616.00,0.0184
613.00,0.0189
610.00,0.0182
607.00,0.0176
604.00,0.0170
601.00,0.0162
598.00,0.0163
595.00,0.0169
592.00,0.0169
589.00,0.0163
586.00,0.0162
583.00,0.0190
580.00,0.0276
577.00,0.0288
574.00,0.0193
571.00,0.0142
568.00,0.0127
565.00,0.0122
562.00,0.0132
559.00,0.0152
556.00,0.0205
553.00,0.0298
550.00,0.0290
547.00,0.0220
544.00,0.0203
541.00,0.0209
538.00,0.0255
535.00,0.0307
532.00,0.0255
529.00,0.0216
526.00,0.0264
523.00,0.0255
520.00,0.0219
517.00,0.0165
514.00,0.0154
511.00,0.0162
508.00,0.0177
505.00,0.0207
502.00,0.0255
499.00,0.0311
496.00,0.0372
493.00,0.0424
490.00,0.0466
487.00,0.0478
484.00,0.0471
481.00,0.0467
478.00,0.0477
475.00,0.0480
472.00,0.0477
469.00,0.0463
466.00,0.0464
463.00,0.0445
460.00,0.0383
457.00,0.0342
454.00,0.0330
451.00,0.0323
448.00,0.0312
445.00,0.0306
442.00,0.0300
439.00,0.0290
436.00,0.0285
433.00,0.0265
430.00,0.0221
427.00,0.0207
424.00,0.0198
421.00,0.0192
418.00,0.0195
415.00,0.0185
412.00,0.0176
409.00,0.0170
406.00,0.0170
403.00,0.0192
400.00,0.0193