File: FTIR/Olivia/2025_08_04_1CBN_3PVP90kDa_MC_powder_scan2.csv
Created as New Dataset,Sample 1055 By YargerLab Date Monday, August 04 2025
cm-1,A
4000.00,0.0054
3997.00,0.0054
3994.00,0.0054
3991.00,0.0054
3988.00,0.0054
3985.00,0.0055
3982.00,0.0055
3979.00,0.0054
3976.00,0.0054
3973.00,0.0055
3970.00,0.0055
3967.00,0.0054
3964.00,0.0054
3961.00,0.0054
3958.00,0.0053
3955.00,0.0054
3952.00,0.0054
3949.00,0.0054
3946.00,0.0054
3943.00,0.0054
3940.00,0.0054
3937.00,0.0054
3934.00,0.0054
3931.00,0.0054
3928.00,0.0054
3925.00,0.0053
3922.00,0.0053
3919.00,0.0054
3916.00,0.0054
3913.00,0.0054
3910.00,0.0054
3907.00,0.0054
3904.00,0.0054
3901.00,0.0054
3898.00,0.0053
3895.00,0.0053
3892.00,0.0053
3889.00,0.0053
3886.00,0.0053
3883.00,0.0053
3880.00,0.0052
3877.00,0.0052
3874.00,0.0052
3871.00,0.0053
3868.00,0.0053
3865.00,0.0053
3862.00,0.0053
3859.00,0.0053
3856.00,0.0053
3853.00,0.0052
3850.00,0.0053
3847.00,0.0053
3844.00,0.0053
3841.00,0.0051
3838.00,0.0051
3835.00,0.0051
3832.00,0.0052
3829.00,0.0052
3826.00,0.0052
3823.00,0.0051
3820.00,0.0051
3817.00,0.0051
3814.00,0.0051
3811.00,0.0051
3808.00,0.0052
3805.00,0.0052
3802.00,0.0051
3799.00,0.0051
3796.00,0.0051
3793.00,0.0051
3790.00,0.0052
3787.00,0.0052
3784.00,0.0053
3781.00,0.0053
3778.00,0.0052
3775.00,0.0052
3772.00,0.0052
3769.00,0.0052
3766.00,0.0052
3763.00,0.0052
3760.00,0.0052
3757.00,0.0051
3754.00,0.0052
3751.00,0.0052
3748.00,0.0051
3745.00,0.0051
3742.00,0.0051
3739.00,0.0051
3736.00,0.0050
3733.00,0.0049
3730.00,0.0050
3727.00,0.0051
3724.00,0.0050
3721.00,0.0050
3718.00,0.0050
3715.00,0.0050
3712.00,0.0049
3709.00,0.0049
3706.00,0.0049
3703.00,0.0049
3700.00,0.0049
3697.00,0.0049
3694.00,0.0049
3691.00,0.0049
3688.00,0.0049
3685.00,0.0050
3682.00,0.0050
3679.00,0.0049
3676.00,0.0049
3673.00,0.0048
3670.00,0.0049
3667.00,0.0050
3664.00,0.0050
3661.00,0.0050
3658.00,0.0050
3655.00,0.0050
3652.00,0.0050
3649.00,0.0050
3646.00,0.0050
3643.00,0.0051
3640.00,0.0051
3637.00,0.0051
3634.00,0.0052
3631.00,0.0052
3628.00,0.0053
3625.00,0.0053
3622.00,0.0053
3619.00,0.0054
3616.00,0.0054
3613.00,0.0055
3610.00,0.0056
3607.00,0.0056
3604.00,0.0056
3601.00,0.0057
3598.00,0.0057
3595.00,0.0058
3592.00,0.0059
3589.00,0.0059
3586.00,0.0060
3583.00,0.0061
3580.00,0.0061
3577.00,0.0062
3574.00,0.0063
3571.00,0.0064
3568.00,0.0065
3565.00,0.0066
3562.00,0.0068
3559.00,0.0069
3556.00,0.0070
3553.00,0.0071
3550.00,0.0073
3547.00,0.0075
3544.00,0.0076
3541.00,0.0077
3538.00,0.0079
3535.00,0.0080
3532.00,0.0081
3529.00,0.0083
3526.00,0.0085
3523.00,0.0087
3520.00,0.0088
3517.00,0.0089
3514.00,0.0091
3511.00,0.0093
3508.00,0.0094
3505.00,0.0096
3502.00,0.0098
3499.00,0.0100
3496.00,0.0102
3493.00,0.0104
3490.00,0.0107
3487.00,0.0111
3484.00,0.0114
3481.00,0.0117
3478.00,0.0121
3475.00,0.0124
3472.00,0.0128
3469.00,0.0133
3466.00,0.0137
3463.00,0.0142
3460.00,0.0147
3457.00,0.0151
3454.00,0.0156
3451.00,0.0161
3448.00,0.0166
3445.00,0.0172
3442.00,0.0178
3439.00,0.0185
3436.00,0.0191
3433.00,0.0198
3430.00,0.0206
3427.00,0.0214
3424.00,0.0222
3421.00,0.0231
3418.00,0.0240
3415.00,0.0248
3412.00,0.0256
3409.00,0.0262
3406.00,0.0267
3403.00,0.0270
3400.00,0.0272
3397.00,0.0271
3394.00,0.0270
3391.00,0.0267
3388.00,0.0263
3385.00,0.0258
3382.00,0.0252
3379.00,0.0247
3376.00,0.0242
3373.00,0.0237
3370.00,0.0231
3367.00,0.0227
3364.00,0.0223
3361.00,0.0219
3358.00,0.0216
3355.00,0.0213
3352.00,0.0210
3349.00,0.0207
3346.00,0.0206
3343.00,0.0204
3340.00,0.0203
3337.00,0.0202
3334.00,0.0202
3331.00,0.0202
3328.00,0.0202
3325.00,0.0203
3322.00,0.0203
3319.00,0.0205
3316.00,0.0206
3313.00,0.0208
3310.00,0.0209
3307.00,0.0211
3304.00,0.0214
3301.00,0.0218
3298.00,0.0220
3295.00,0.0223
3292.00,0.0226
3289.00,0.0230
3286.00,0.0233
3283.00,0.0236
3280.00,0.0240
3277.00,0.0243
3274.00,0.0246
3271.00,0.0249
3268.00,0.0253
3265.00,0.0256
3262.00,0.0260
3259.00,0.0263
3256.00,0.0265
3253.00,0.0269
3250.00,0.0272
3247.00,0.0274
3244.00,0.0277
3241.00,0.0279
3238.00,0.0280
3235.00,0.0279
3232.00,0.0280
3229.00,0.0281
3226.00,0.0280
3223.00,0.0278
3220.00,0.0276
3217.00,0.0274
3214.00,0.0271
3211.00,0.0267
3208.00,0.0263
3205.00,0.0259
3202.00,0.0254
3199.00,0.0249
3196.00,0.0244
3193.00,0.0239
3190.00,0.0233
3187.00,0.0228
3184.00,0.0223
3181.00,0.0218
3178.00,0.0213
3175.00,0.0207
3172.00,0.0202
3169.00,0.0197
3166.00,0.0191
3163.00,0.0186
3160.00,0.0181
3157.00,0.0176
3154.00,0.0169
3151.00,0.0165
3148.00,0.0161
3145.00,0.0156
3142.00,0.0152
3139.00,0.0147
3136.00,0.0144
3133.00,0.0141
3130.00,0.0138
3127.00,0.0135
3124.00,0.0132
3121.00,0.0130
3118.00,0.0127
3115.00,0.0124
3112.00,0.0121
3109.00,0.0118
3106.00,0.0115
3103.00,0.0113
3100.00,0.0110
3097.00,0.0109
3094.00,0.0109
3091.00,0.0110
3088.00,0.0112
3085.00,0.0112
3082.00,0.0111
3079.00,0.0111
3076.00,0.0110
3073.00,0.0108
3070.00,0.0107
3067.00,0.0106
3064.00,0.0106
3061.00,0.0107
3058.00,0.0108
3055.00,0.0108
3052.00,0.0108
3049.00,0.0108
3046.00,0.0106
3043.00,0.0107
3040.00,0.0109
3037.00,0.0113
3034.00,0.0115
3031.00,0.0116
3028.00,0.0113
3025.00,0.0108
3022.00,0.0104
3019.00,0.0101
3016.00,0.0099
3013.00,0.0100
3010.00,0.0102
3007.00,0.0105
3004.00,0.0112
3001.00,0.0121
2998.00,0.0135
2995.00,0.0152
2992.00,0.0165
2989.00,0.0174
2986.00,0.0186
2983.00,0.0207
2980.00,0.0237
2977.00,0.0252
2974.00,0.0267
2971.00,0.0304
2968.00,0.0327
2965.00,0.0341
2962.00,0.0361
2959.00,0.0368
2956.00,0.0343
2953.00,0.0309
2950.00,0.0285
2947.00,0.0282
2944.00,0.0298
2941.00,0.0326
2938.00,0.0367
2935.00,0.0430
2932.00,0.0505
2929.00,0.0570
2926.00,0.0591
2923.00,0.0564
2920.00,0.0514
2917.00,0.0459
2914.00,0.0410
2911.00,0.0372
2908.00,0.0341
2905.00,0.0315
2902.00,0.0293
2899.00,0.0273
2896.00,0.0256
2893.00,0.0243
2890.00,0.0233
2887.00,0.0224
2884.00,0.0219
2881.00,0.0221
2878.00,0.0237
2875.00,0.0263
2872.00,0.0279
2869.00,0.0277
2866.00,0.0278
2863.00,0.0307
2860.00,0.0364
2857.00,0.0413
2854.00,0.0421
2851.00,0.0394
2848.00,0.0333
2845.00,0.0270
2842.00,0.0222
2839.00,0.0189
2836.00,0.0168
2833.00,0.0154
2830.00,0.0143
2827.00,0.0134
2824.00,0.0127
2821.00,0.0121
2818.00,0.0116
2815.00,0.0112
2812.00,0.0109
2809.00,0.0107
2806.00,0.0105
2803.00,0.0103
2800.00,0.0101
2797.00,0.0098
2794.00,0.0096
2791.00,0.0094
2788.00,0.0092
2785.00,0.0091
2782.00,0.0090
2779.00,0.0089
2776.00,0.0087
2773.00,0.0086
2770.00,0.0086
2767.00,0.0086
2764.00,0.0085
2761.00,0.0085
2758.00,0.0085
2755.00,0.0086
2752.00,0.0086
2749.00,0.0086
2746.00,0.0087
2743.00,0.0088
2740.00,0.0089
2737.00,0.0091
2734.00,0.0093
2731.00,0.0095
2728.00,0.0094
2725.00,0.0093
2722.00,0.0091
2719.00,0.0090
2716.00,0.0089
2713.00,0.0088
2710.00,0.0088
2707.00,0.0088
2704.00,0.0087
2701.00,0.0087
2698.00,0.0086
2695.00,0.0085
2692.00,0.0084
2689.00,0.0083
2686.00,0.0082
2683.00,0.0082
2680.00,0.0081
2677.00,0.0082
2674.00,0.0082
2671.00,0.0083
2668.00,0.0084
2665.00,0.0085
2662.00,0.0087
2659.00,0.0088
2656.00,0.0088
2653.00,0.0088
2650.00,0.0088
2647.00,0.0088
2644.00,0.0088
2641.00,0.0087
2638.00,0.0086
2635.00,0.0085
2632.00,0.0084
2629.00,0.0083
2626.00,0.0081
2623.00,0.0080
2620.00,0.0079
2617.00,0.0079
2614.00,0.0078
2611.00,0.0078
2608.00,0.0079
2605.00,0.0080
2602.00,0.0080
2599.00,0.0081
2596.00,0.0081
2593.00,0.0081
2590.00,0.0081
2587.00,0.0082
2584.00,0.0082
2581.00,0.0081
2578.00,0.0080
2575.00,0.0079
2572.00,0.0078
2569.00,0.0079
2566.00,0.0079
2563.00,0.0079
2560.00,0.0077
2557.00,0.0076
2554.00,0.0074
2551.00,0.0075
2548.00,0.0075
2545.00,0.0075
2542.00,0.0074
2539.00,0.0074
2536.00,0.0075
2533.00,0.0075
2530.00,0.0074
2527.00,0.0074
2524.00,0.0073
2521.00,0.0072
2518.00,0.0072
2515.00,0.0070
2512.00,0.0070
2509.00,0.0069
2506.00,0.0069
2503.00,0.0068
2500.00,0.0068
2497.00,0.0067
2494.00,0.0067
2491.00,0.0066
2488.00,0.0066
2485.00,0.0066
2482.00,0.0066
2479.00,0.0065
2476.00,0.0064
2473.00,0.0064
2470.00,0.0064
2467.00,0.0064
2464.00,0.0065
2461.00,0.0064
2458.00,0.0065
2455.00,0.0065
2452.00,0.0065
2449.00,0.0064
2446.00,0.0064
2443.00,0.0064
2440.00,0.0063
2437.00,0.0063
2434.00,0.0062
2431.00,0.0062
2428.00,0.0062
2425.00,0.0062
2422.00,0.0061
2419.00,0.0061
2416.00,0.0062
2413.00,0.0062
2410.00,0.0062
2407.00,0.0060
2404.00,0.0060
2401.00,0.0060
2398.00,0.0060
2395.00,0.0059
2392.00,0.0059
2389.00,0.0059
2386.00,0.0060
2383.00,0.0059
2380.00,0.0057
2377.00,0.0057
2374.00,0.0057
2371.00,0.0056
2368.00,0.0055
2365.00,0.0055
2362.00,0.0056
2359.00,0.0057
2356.00,0.0057
2353.00,0.0056
2350.00,0.0057
2347.00,0.0058
2344.00,0.0058
2341.00,0.0059
2338.00,0.0058
2335.00,0.0058
2332.00,0.0058
2329.00,0.0061
2326.00,0.0071
2323.00,0.0071
2320.00,0.0067
2317.00,0.0065
2314.00,0.0064
2311.00,0.0063
2308.00,0.0063
2305.00,0.0063
2302.00,0.0063
2299.00,0.0064
2296.00,0.0065
2293.00,0.0067
2290.00,0.0069
2287.00,0.0070
2284.00,0.0069
2281.00,0.0065
2278.00,0.0064
2275.00,0.0063
2272.00,0.0062
2269.00,0.0061
2266.00,0.0059
2263.00,0.0057
2260.00,0.0057
2257.00,0.0056
2254.00,0.0056
2251.00,0.0057
2248.00,0.0058
2245.00,0.0058
2242.00,0.0059
2239.00,0.0061
2236.00,0.0059
2233.00,0.0057
2230.00,0.0056
2227.00,0.0057
2224.00,0.0058
2221.00,0.0056
2218.00,0.0057
2215.00,0.0058
2212.00,0.0057
2209.00,0.0057
2206.00,0.0057
2203.00,0.0056
2200.00,0.0057
2197.00,0.0057
2194.00,0.0054
2191.00,0.0057
2188.00,0.0061
2185.00,0.0058
2182.00,0.0053
2179.00,0.0053
2176.00,0.0050
2173.00,0.0053
2170.00,0.0061
2167.00,0.0064
2164.00,0.0066
2161.00,0.0050
2158.00,0.0022
2155.00,0.0031
2152.00,0.0040
2149.00,0.0041
2146.00,0.0039
2143.00,0.0040
2140.00,0.0037
2137.00,0.0036
2134.00,0.0034
2131.00,0.0037
2128.00,0.0043
2125.00,0.0045
2122.00,0.0045
2119.00,0.0047
2116.00,0.0050
2113.00,0.0050
2110.00,0.0049
2107.00,0.0048
2104.00,0.0048
2101.00,0.0049
2098.00,0.0047
2095.00,0.0042
2092.00,0.0045
2089.00,0.0047
2086.00,0.0049
2083.00,0.0052
2080.00,0.0053
2077.00,0.0052
2074.00,0.0052
2071.00,0.0052
2068.00,0.0048
2065.00,0.0046
2062.00,0.0049
2059.00,0.0048
2056.00,0.0045
2053.00,0.0050
2050.00,0.0051
2047.00,0.0045
2044.00,0.0047
2041.00,0.0050
2038.00,0.0051
2035.00,0.0047
2032.00,0.0045
2029.00,0.0045
2026.00,0.0045
2023.00,0.0045
2020.00,0.0041
2017.00,0.0040
2014.00,0.0041
2011.00,0.0037
2008.00,0.0034
2005.00,0.0032
2002.00,0.0038
1999.00,0.0045
1996.00,0.0046
1993.00,0.0043
1990.00,0.0045
1987.00,0.0050
1984.00,0.0054
1981.00,0.0058
1978.00,0.0044
1975.00,0.0036
1972.00,0.0039
1969.00,0.0037
1966.00,0.0040
1963.00,0.0040
1960.00,0.0035
1957.00,0.0035
1954.00,0.0040
1951.00,0.0041
1948.00,0.0041
1945.00,0.0042
1942.00,0.0043
1939.00,0.0043
1936.00,0.0044
1933.00,0.0045
1930.00,0.0045
1927.00,0.0045
1924.00,0.0047
1921.00,0.0047
1918.00,0.0048
1915.00,0.0049
1912.00,0.0054
1909.00,0.0063
1906.00,0.0061
1903.00,0.0054
1900.00,0.0053
1897.00,0.0053
1894.00,0.0055
1891.00,0.0055
1888.00,0.0051
1885.00,0.0051
1882.00,0.0050
1879.00,0.0049
1876.00,0.0049
1873.00,0.0049
1870.00,0.0050
1867.00,0.0049
1864.00,0.0050
1861.00,0.0051
1858.00,0.0051
1855.00,0.0051
1852.00,0.0053
1849.00,0.0055
1846.00,0.0057
1843.00,0.0055
1840.00,0.0053
1837.00,0.0052
1834.00,0.0051
1831.00,0.0050
1828.00,0.0049
1825.00,0.0050
1822.00,0.0050
1819.00,0.0049
1816.00,0.0049
1813.00,0.0051
1810.00,0.0052
1807.00,0.0052
1804.00,0.0053
1801.00,0.0053
1798.00,0.0055
1795.00,0.0056
1792.00,0.0055
1789.00,0.0055
1786.00,0.0056
1783.00,0.0055
1780.00,0.0056
1777.00,0.0058
1774.00,0.0060
1771.00,0.0058
1768.00,0.0059
1765.00,0.0058
1762.00,0.0060
1759.00,0.0062
1756.00,0.0060
1753.00,0.0059
1750.00,0.0059
1747.00,0.0059
1744.00,0.0061
1741.00,0.0059
1738.00,0.0059
1735.00,0.0062
1732.00,0.0063
1729.00,0.0068
1726.00,0.0070
1723.00,0.0073
1720.00,0.0073
1717.00,0.0076
1714.00,0.0079
1711.00,0.0085
1708.00,0.0089
1705.00,0.0093
1702.00,0.0097
1699.00,0.0109
1696.00,0.0130
1693.00,0.0149
1690.00,0.0171
1687.00,0.0187
1684.00,0.0206
1681.00,0.0226
1678.00,0.0239
1675.00,0.0254
1672.00,0.0268
1669.00,0.0284
1666.00,0.0299
1663.00,0.0312
1660.00,0.0323
1657.00,0.0328
1654.00,0.0327
1651.00,0.0333
1648.00,0.0333
1645.00,0.0332
1642.00,0.0333
1639.00,0.0326
1636.00,0.0320
1633.00,0.0344
1630.00,0.0414
1627.00,0.0562
1624.00,0.0696
1621.00,0.0760
1618.00,0.0708
1615.00,0.0601
1612.00,0.0598
1609.00,0.0584
1606.00,0.0495
1603.00,0.0394
1600.00,0.0320
1597.00,0.0286
1594.00,0.0294
1591.00,0.0360
1588.00,0.0474
1585.00,0.0566
1582.00,0.0582
1579.00,0.0540
1576.00,0.0458
1573.00,0.0394
1570.00,0.0359
1567.00,0.0328
1564.00,0.0274
1561.00,0.0224
1558.00,0.0174
1555.00,0.0163
1552.00,0.0155
1549.00,0.0149
1546.00,0.0142
1543.00,0.0134
1540.00,0.0127
1537.00,0.0125
1534.00,0.0124
1531.00,0.0122
1528.00,0.0124
1525.00,0.0125
1522.00,0.0131
1519.00,0.0143
1516.00,0.0164
1513.00,0.0182
1510.00,0.0195
1507.00,0.0199
1504.00,0.0211
1501.00,0.0247
1498.00,0.0344
1495.00,0.0406
1492.00,0.0342
1489.00,0.0257
1486.00,0.0208
1483.00,0.0183
1480.00,0.0172
1477.00,0.0173
1474.00,0.0190
1471.00,0.0255
1468.00,0.0361
1465.00,0.0427
1462.00,0.0426
1459.00,0.0427
1456.00,0.0403
1453.00,0.0379
1450.00,0.0381
1447.00,0.0407
1444.00,0.0455
1441.00,0.0508
1438.00,0.0540
1435.00,0.0581
1432.00,0.0626
1429.00,0.0652
1426.00,0.0643
1423.00,0.0618
1420.00,0.0581
1417.00,0.0525
1414.00,0.0479
1411.00,0.0467
1408.00,0.0505
1405.00,0.0596
1402.00,0.0686
1399.00,0.0704
1396.00,0.0630
1393.00,0.0512
1390.00,0.0452
1387.00,0.0481
1384.00,0.0459
1381.00,0.0439
1378.00,0.0443
1375.00,0.0401
1372.00,0.0345
1369.00,0.0370
1366.00,0.0459
1363.00,0.0508
1360.00,0.0582
1357.00,0.0522
1354.00,0.0445
1351.00,0.0424
1348.00,0.0429
1345.00,0.0419
1342.00,0.0380
1339.00,0.0333
1336.00,0.0312
1333.00,0.0328
1330.00,0.0348
1327.00,0.0347
1324.00,0.0334
1321.00,0.0328
1318.00,0.0320
1315.00,0.0300
1312.00,0.0291
1309.00,0.0313
1306.00,0.0375
1303.00,0.0480
1300.00,0.0542
1297.00,0.0525
1294.00,0.0531
1291.00,0.0536
1288.00,0.0559
1285.00,0.0617
1282.00,0.0629
1279.00,0.0556
1276.00,0.0479
1273.00,0.0438
1270.00,0.0407
1267.00,0.0381
1264.00,0.0353
1261.00,0.0322
1258.00,0.0295
1255.00,0.0281
1252.00,0.0283
1249.00,0.0314
1246.00,0.0376
1243.00,0.0431
1240.00,0.0462
1237.00,0.0525
1234.00,0.0590
1231.00,0.0569
1228.00,0.0493
1225.00,0.0432
1222.00,0.0403
1219.00,0.0412
1216.00,0.0450
1213.00,0.0460
1210.00,0.0403
1207.00,0.0346
1204.00,0.0347
1201.00,0.0415
1198.00,0.0527
1195.00,0.0629
1192.00,0.0612
1189.00,0.0504
1186.00,0.0389
1183.00,0.0313
1180.00,0.0274
1177.00,0.0256
1174.00,0.0247
1171.00,0.0244
1168.00,0.0245
1165.00,0.0255
1162.00,0.0292
1159.00,0.0403
1156.00,0.0587
1153.00,0.0605
1150.00,0.0414
1147.00,0.0286
1144.00,0.0247
1141.00,0.0241
1138.00,0.0263
1135.00,0.0340
1132.00,0.0527
1129.00,0.0721
1126.00,0.0709
1123.00,0.0560
1120.00,0.0410
1117.00,0.0344
1114.00,0.0330
1111.00,0.0307
1108.00,0.0285
1105.00,0.0310
1102.00,0.0419
1099.00,0.0497
1096.00,0.0408
1093.00,0.0289
1090.00,0.0231
1087.00,0.0209
1084.00,0.0200
1081.00,0.0199
1078.00,0.0204
1075.00,0.0212
1072.00,0.0226
1069.00,0.0249
1066.00,0.0283
1063.00,0.0344
1060.00,0.0477
1057.00,0.0711
1054.00,0.0912
1051.00,0.0982
1048.00,0.0973
1045.00,0.0825
1042.00,0.0625
1039.00,0.0500
1036.00,0.0481
1033.00,0.0518
1030.00,0.0665
1027.00,0.0870
1024.00,0.0794
1021.00,0.0566
1018.00,0.0417
1015.00,0.0337
1012.00,0.0301
1009.00,0.0319
1006.00,0.0395
1003.00,0.0449
1000.00,0.0421
997.00,0.0377
994.00,0.0348
991.00,0.0307
988.00,0.0259
985.00,0.0228
982.00,0.0214
979.00,0.0210
976.00,0.0211
973.00,0.0209
970.00,0.0205
967.00,0.0205
964.00,0.0214
961.00,0.0217
958.00,0.0187
955.00,0.0164
952.00,0.0156
949.00,0.0165
946.00,0.0169
943.00,0.0175
940.00,0.0199
937.00,0.0218
934.00,0.0233
931.00,0.0237
928.00,0.0222
925.00,0.0233
922.00,0.0264
919.00,0.0241
916.00,0.0191
913.00,0.0165
910.00,0.0157
907.00,0.0162
904.00,0.0190
901.00,0.0255
898.00,0.0282
895.00,0.0240
892.00,0.0255
889.00,0.0281
886.00,0.0209
883.00,0.0189
880.00,0.0208
877.00,0.0278
874.00,0.0423
871.00,0.0585
868.00,0.0591
865.00,0.0475
862.00,0.0371
859.00,0.0308
856.00,0.0343
853.00,0.0429
850.00,0.0512
847.00,0.0502
844.00,0.0412
841.00,0.0368
838.00,0.0409
835.00,0.0516
832.00,0.0541
829.00,0.0438
826.00,0.0325
823.00,0.0396
820.00,0.0630
817.00,0.0721
814.00,0.0671
811.00,0.0375
808.00,0.0257
805.00,0.0213
802.00,0.0197
799.00,0.0189
796.00,0.0184
793.00,0.0181
790.00,0.0180
787.00,0.0179
784.00,0.0179
781.00,0.0185
778.00,0.0203
775.00,0.0253
772.00,0.0243
769.00,0.0211
766.00,0.0209
763.00,0.0223
760.00,0.0246
757.00,0.0248
754.00,0.0238
751.00,0.0240
748.00,0.0248
745.00,0.0260
742.00,0.0284
739.00,0.0342
736.00,0.0460
733.00,0.0486
730.00,0.0460
727.00,0.0447
724.00,0.0363
721.00,0.0321
718.00,0.0341
715.00,0.0383
712.00,0.0371
709.00,0.0342
706.00,0.0334
703.00,0.0351
700.00,0.0381
697.00,0.0395
694.00,0.0376
691.00,0.0387
688.00,0.0430
685.00,0.0408
682.00,0.0390
679.00,0.0403
676.00,0.0437
673.00,0.0487
670.00,0.0511
667.00,0.0492
664.00,0.0497
661.00,0.0516
658.00,0.0492
655.00,0.0464
652.00,0.0456
649.00,0.0457
646.00,0.0457
643.00,0.0453
640.00,0.0446
637.00,0.0439
634.00,0.0436
631.00,0.0436
628.00,0.0442
625.00,0.0459
622.00,0.0491
619.00,0.0505
616.00,0.0471
613.00,0.0434
610.00,0.0437
607.00,0.0501
604.00,0.0583
601.00,0.0615
598.00,0.0617
595.00,0.0612
592.00,0.0602
589.00,0.0587
586.00,0.0578
583.00,0.0586
580.00,0.0615
577.00,0.0678
574.00,0.0669
571.00,0.0608
568.00,0.0575
565.00,0.0589
562.00,0.0633
559.00,0.0664
556.00,0.0630
553.00,0.0598
550.00,0.0621
547.00,0.0679
544.00,0.0681
541.00,0.0632
538.00,0.0598
535.00,0.0607
532.00,0.0656
529.00,0.0655
526.00,0.0594
523.00,0.0546
520.00,0.0520
517.00,0.0508
514.00,0.0506
511.00,0.0508
508.00,0.0517
505.00,0.0524
502.00,0.0510
499.00,0.0492
496.00,0.0499
493.00,0.0523
490.00,0.0522
487.00,0.0501
484.00,0.0491
481.00,0.0484
478.00,0.0484
475.00,0.0479
472.00,0.0471
469.00,0.0472
466.00,0.0474
463.00,0.0467
460.00,0.0462
457.00,0.0472
454.00,0.0472
451.00,0.0470
448.00,0.0471
445.00,0.0460
442.00,0.0461
439.00,0.0464
436.00,0.0454
433.00,0.0448
430.00,0.0453
427.00,0.0448
424.00,0.0442
421.00,0.0430
418.00,0.0427
415.00,0.0428
412.00,0.0445
409.00,0.0469
406.00,0.0448
403.00,0.0431
400.00,0.0438