File: FTIR/Olivia/2025_07_29_CBN_PVP90kDa_MC_1to3_Powder_scan2.csv
Created as New Dataset,Sample 955 By YargerLab Date Tuesday, July 29 2025
cm-1,A
4000.00,0.0075
3997.00,0.0075
3994.00,0.0075
3991.00,0.0074
3988.00,0.0075
3985.00,0.0075
3982.00,0.0075
3979.00,0.0074
3976.00,0.0075
3973.00,0.0076
3970.00,0.0077
3967.00,0.0076
3964.00,0.0076
3961.00,0.0075
3958.00,0.0075
3955.00,0.0075
3952.00,0.0075
3949.00,0.0075
3946.00,0.0075
3943.00,0.0075
3940.00,0.0075
3937.00,0.0075
3934.00,0.0074
3931.00,0.0075
3928.00,0.0074
3925.00,0.0075
3922.00,0.0075
3919.00,0.0075
3916.00,0.0075
3913.00,0.0075
3910.00,0.0075
3907.00,0.0074
3904.00,0.0074
3901.00,0.0075
3898.00,0.0075
3895.00,0.0074
3892.00,0.0074
3889.00,0.0074
3886.00,0.0074
3883.00,0.0074
3880.00,0.0074
3877.00,0.0074
3874.00,0.0073
3871.00,0.0073
3868.00,0.0073
3865.00,0.0073
3862.00,0.0073
3859.00,0.0073
3856.00,0.0074
3853.00,0.0074
3850.00,0.0073
3847.00,0.0073
3844.00,0.0072
3841.00,0.0072
3838.00,0.0072
3835.00,0.0072
3832.00,0.0072
3829.00,0.0073
3826.00,0.0072
3823.00,0.0072
3820.00,0.0071
3817.00,0.0072
3814.00,0.0072
3811.00,0.0073
3808.00,0.0072
3805.00,0.0071
3802.00,0.0071
3799.00,0.0071
3796.00,0.0072
3793.00,0.0072
3790.00,0.0072
3787.00,0.0073
3784.00,0.0072
3781.00,0.0072
3778.00,0.0072
3775.00,0.0072
3772.00,0.0072
3769.00,0.0072
3766.00,0.0073
3763.00,0.0073
3760.00,0.0073
3757.00,0.0072
3754.00,0.0071
3751.00,0.0070
3748.00,0.0070
3745.00,0.0072
3742.00,0.0071
3739.00,0.0071
3736.00,0.0070
3733.00,0.0071
3730.00,0.0071
3727.00,0.0071
3724.00,0.0071
3721.00,0.0071
3718.00,0.0071
3715.00,0.0070
3712.00,0.0069
3709.00,0.0069
3706.00,0.0069
3703.00,0.0069
3700.00,0.0069
3697.00,0.0069
3694.00,0.0069
3691.00,0.0069
3688.00,0.0069
3685.00,0.0069
3682.00,0.0069
3679.00,0.0068
3676.00,0.0068
3673.00,0.0068
3670.00,0.0068
3667.00,0.0070
3664.00,0.0069
3661.00,0.0069
3658.00,0.0069
3655.00,0.0068
3652.00,0.0069
3649.00,0.0067
3646.00,0.0068
3643.00,0.0068
3640.00,0.0068
3637.00,0.0069
3634.00,0.0069
3631.00,0.0069
3628.00,0.0070
3625.00,0.0069
3622.00,0.0069
3619.00,0.0069
3616.00,0.0069
3613.00,0.0070
3610.00,0.0071
3607.00,0.0072
3604.00,0.0072
3601.00,0.0071
3598.00,0.0070
3595.00,0.0071
3592.00,0.0071
3589.00,0.0071
3586.00,0.0072
3583.00,0.0073
3580.00,0.0073
3577.00,0.0073
3574.00,0.0074
3571.00,0.0074
3568.00,0.0075
3565.00,0.0076
3562.00,0.0076
3559.00,0.0077
3556.00,0.0078
3553.00,0.0079
3550.00,0.0080
3547.00,0.0081
3544.00,0.0083
3541.00,0.0084
3538.00,0.0084
3535.00,0.0086
3532.00,0.0087
3529.00,0.0088
3526.00,0.0090
3523.00,0.0092
3520.00,0.0093
3517.00,0.0095
3514.00,0.0095
3511.00,0.0097
3508.00,0.0099
3505.00,0.0100
3502.00,0.0103
3499.00,0.0104
3496.00,0.0107
3493.00,0.0109
3490.00,0.0112
3487.00,0.0115
3484.00,0.0119
3481.00,0.0123
3478.00,0.0127
3475.00,0.0131
3472.00,0.0135
3469.00,0.0139
3466.00,0.0144
3463.00,0.0149
3460.00,0.0155
3457.00,0.0160
3454.00,0.0166
3451.00,0.0172
3448.00,0.0177
3445.00,0.0184
3442.00,0.0191
3439.00,0.0198
3436.00,0.0206
3433.00,0.0214
3430.00,0.0223
3427.00,0.0233
3424.00,0.0243
3421.00,0.0252
3418.00,0.0263
3415.00,0.0273
3412.00,0.0281
3409.00,0.0289
3406.00,0.0295
3403.00,0.0300
3400.00,0.0303
3397.00,0.0303
3394.00,0.0302
3391.00,0.0299
3388.00,0.0295
3385.00,0.0290
3382.00,0.0284
3379.00,0.0278
3376.00,0.0272
3373.00,0.0266
3370.00,0.0261
3367.00,0.0256
3364.00,0.0251
3361.00,0.0246
3358.00,0.0242
3355.00,0.0239
3352.00,0.0235
3349.00,0.0232
3346.00,0.0230
3343.00,0.0229
3340.00,0.0227
3337.00,0.0226
3334.00,0.0226
3331.00,0.0226
3328.00,0.0226
3325.00,0.0227
3322.00,0.0228
3319.00,0.0229
3316.00,0.0231
3313.00,0.0233
3310.00,0.0235
3307.00,0.0238
3304.00,0.0241
3301.00,0.0244
3298.00,0.0248
3295.00,0.0251
3292.00,0.0254
3289.00,0.0258
3286.00,0.0262
3283.00,0.0267
3280.00,0.0271
3277.00,0.0275
3274.00,0.0279
3271.00,0.0283
3268.00,0.0287
3265.00,0.0291
3262.00,0.0295
3259.00,0.0300
3256.00,0.0304
3253.00,0.0309
3250.00,0.0313
3247.00,0.0316
3244.00,0.0319
3241.00,0.0323
3238.00,0.0325
3235.00,0.0324
3232.00,0.0325
3229.00,0.0326
3226.00,0.0327
3223.00,0.0327
3220.00,0.0325
3217.00,0.0323
3214.00,0.0320
3211.00,0.0317
3208.00,0.0314
3205.00,0.0309
3202.00,0.0304
3199.00,0.0299
3196.00,0.0294
3193.00,0.0289
3190.00,0.0283
3187.00,0.0278
3184.00,0.0273
3181.00,0.0267
3178.00,0.0261
3175.00,0.0256
3172.00,0.0250
3169.00,0.0244
3166.00,0.0239
3163.00,0.0232
3160.00,0.0226
3157.00,0.0220
3154.00,0.0213
3151.00,0.0208
3148.00,0.0203
3145.00,0.0198
3142.00,0.0192
3139.00,0.0187
3136.00,0.0184
3133.00,0.0180
3130.00,0.0176
3127.00,0.0174
3124.00,0.0170
3121.00,0.0167
3118.00,0.0164
3115.00,0.0160
3112.00,0.0156
3109.00,0.0152
3106.00,0.0149
3103.00,0.0145
3100.00,0.0143
3097.00,0.0142
3094.00,0.0141
3091.00,0.0143
3088.00,0.0144
3085.00,0.0144
3082.00,0.0144
3079.00,0.0142
3076.00,0.0140
3073.00,0.0139
3070.00,0.0138
3067.00,0.0136
3064.00,0.0137
3061.00,0.0137
3058.00,0.0138
3055.00,0.0139
3052.00,0.0139
3049.00,0.0138
3046.00,0.0136
3043.00,0.0136
3040.00,0.0138
3037.00,0.0142
3034.00,0.0146
3031.00,0.0147
3028.00,0.0143
3025.00,0.0137
3022.00,0.0132
3019.00,0.0128
3016.00,0.0126
3013.00,0.0125
3010.00,0.0127
3007.00,0.0131
3004.00,0.0138
3001.00,0.0149
2998.00,0.0164
2995.00,0.0183
2992.00,0.0197
2989.00,0.0206
2986.00,0.0220
2983.00,0.0248
2980.00,0.0284
2977.00,0.0301
2974.00,0.0321
2971.00,0.0364
2968.00,0.0390
2965.00,0.0407
2962.00,0.0430
2959.00,0.0435
2956.00,0.0405
2953.00,0.0362
2950.00,0.0333
2947.00,0.0329
2944.00,0.0348
2941.00,0.0382
2938.00,0.0433
2935.00,0.0509
2932.00,0.0600
2929.00,0.0677
2926.00,0.0705
2923.00,0.0676
2920.00,0.0622
2917.00,0.0559
2914.00,0.0501
2911.00,0.0455
2908.00,0.0419
2905.00,0.0387
2902.00,0.0360
2899.00,0.0336
2896.00,0.0316
2893.00,0.0300
2890.00,0.0286
2887.00,0.0274
2884.00,0.0267
2881.00,0.0270
2878.00,0.0289
2875.00,0.0319
2872.00,0.0337
2869.00,0.0335
2866.00,0.0337
2863.00,0.0373
2860.00,0.0442
2857.00,0.0501
2854.00,0.0516
2851.00,0.0490
2848.00,0.0423
2845.00,0.0348
2842.00,0.0291
2839.00,0.0251
2836.00,0.0226
2833.00,0.0209
2830.00,0.0196
2827.00,0.0185
2824.00,0.0176
2821.00,0.0169
2818.00,0.0164
2815.00,0.0159
2812.00,0.0155
2809.00,0.0151
2806.00,0.0149
2803.00,0.0146
2800.00,0.0144
2797.00,0.0141
2794.00,0.0138
2791.00,0.0136
2788.00,0.0133
2785.00,0.0131
2782.00,0.0129
2779.00,0.0128
2776.00,0.0126
2773.00,0.0126
2770.00,0.0125
2767.00,0.0124
2764.00,0.0123
2761.00,0.0123
2758.00,0.0123
2755.00,0.0123
2752.00,0.0124
2749.00,0.0123
2746.00,0.0124
2743.00,0.0125
2740.00,0.0126
2737.00,0.0129
2734.00,0.0131
2731.00,0.0134
2728.00,0.0134
2725.00,0.0132
2722.00,0.0130
2719.00,0.0129
2716.00,0.0127
2713.00,0.0126
2710.00,0.0125
2707.00,0.0125
2704.00,0.0125
2701.00,0.0124
2698.00,0.0123
2695.00,0.0122
2692.00,0.0121
2689.00,0.0120
2686.00,0.0119
2683.00,0.0118
2680.00,0.0117
2677.00,0.0117
2674.00,0.0118
2671.00,0.0118
2668.00,0.0120
2665.00,0.0122
2662.00,0.0123
2659.00,0.0124
2656.00,0.0125
2653.00,0.0125
2650.00,0.0125
2647.00,0.0125
2644.00,0.0124
2641.00,0.0124
2638.00,0.0122
2635.00,0.0121
2632.00,0.0119
2629.00,0.0117
2626.00,0.0116
2623.00,0.0115
2620.00,0.0114
2617.00,0.0114
2614.00,0.0114
2611.00,0.0113
2608.00,0.0114
2605.00,0.0115
2602.00,0.0115
2599.00,0.0116
2596.00,0.0116
2593.00,0.0116
2590.00,0.0117
2587.00,0.0117
2584.00,0.0117
2581.00,0.0116
2578.00,0.0115
2575.00,0.0114
2572.00,0.0113
2569.00,0.0114
2566.00,0.0114
2563.00,0.0113
2560.00,0.0112
2557.00,0.0110
2554.00,0.0108
2551.00,0.0108
2548.00,0.0107
2545.00,0.0108
2542.00,0.0108
2539.00,0.0108
2536.00,0.0109
2533.00,0.0109
2530.00,0.0108
2527.00,0.0107
2524.00,0.0106
2521.00,0.0105
2518.00,0.0105
2515.00,0.0104
2512.00,0.0103
2509.00,0.0102
2506.00,0.0100
2503.00,0.0100
2500.00,0.0100
2497.00,0.0100
2494.00,0.0099
2491.00,0.0098
2488.00,0.0098
2485.00,0.0098
2482.00,0.0098
2479.00,0.0097
2476.00,0.0097
2473.00,0.0096
2470.00,0.0096
2467.00,0.0095
2464.00,0.0095
2461.00,0.0096
2458.00,0.0096
2455.00,0.0097
2452.00,0.0097
2449.00,0.0097
2446.00,0.0096
2443.00,0.0095
2440.00,0.0094
2437.00,0.0093
2434.00,0.0092
2431.00,0.0092
2428.00,0.0092
2425.00,0.0092
2422.00,0.0091
2419.00,0.0090
2416.00,0.0090
2413.00,0.0091
2410.00,0.0091
2407.00,0.0090
2404.00,0.0090
2401.00,0.0090
2398.00,0.0089
2395.00,0.0089
2392.00,0.0089
2389.00,0.0089
2386.00,0.0088
2383.00,0.0087
2380.00,0.0085
2377.00,0.0083
2374.00,0.0084
2371.00,0.0085
2368.00,0.0085
2365.00,0.0085
2362.00,0.0085
2359.00,0.0085
2356.00,0.0086
2353.00,0.0085
2350.00,0.0085
2347.00,0.0087
2344.00,0.0087
2341.00,0.0087
2338.00,0.0088
2335.00,0.0087
2332.00,0.0086
2329.00,0.0088
2326.00,0.0097
2323.00,0.0095
2320.00,0.0090
2317.00,0.0089
2314.00,0.0088
2311.00,0.0086
2308.00,0.0086
2305.00,0.0087
2302.00,0.0088
2299.00,0.0090
2296.00,0.0092
2293.00,0.0094
2290.00,0.0097
2287.00,0.0097
2284.00,0.0096
2281.00,0.0094
2278.00,0.0092
2275.00,0.0090
2272.00,0.0089
2269.00,0.0088
2266.00,0.0086
2263.00,0.0084
2260.00,0.0084
2257.00,0.0082
2254.00,0.0081
2251.00,0.0082
2248.00,0.0081
2245.00,0.0082
2242.00,0.0083
2239.00,0.0082
2236.00,0.0085
2233.00,0.0085
2230.00,0.0084
2227.00,0.0082
2224.00,0.0082
2221.00,0.0084
2218.00,0.0082
2215.00,0.0082
2212.00,0.0081
2209.00,0.0082
2206.00,0.0082
2203.00,0.0082
2200.00,0.0080
2197.00,0.0080
2194.00,0.0082
2191.00,0.0082
2188.00,0.0083
2185.00,0.0081
2182.00,0.0077
2179.00,0.0079
2176.00,0.0077
2173.00,0.0080
2170.00,0.0085
2167.00,0.0090
2164.00,0.0094
2161.00,0.0074
2158.00,0.0044
2155.00,0.0052
2152.00,0.0063
2149.00,0.0061
2146.00,0.0059
2143.00,0.0063
2140.00,0.0064
2137.00,0.0060
2134.00,0.0055
2131.00,0.0061
2128.00,0.0065
2125.00,0.0066
2122.00,0.0067
2119.00,0.0070
2116.00,0.0072
2113.00,0.0071
2110.00,0.0071
2107.00,0.0071
2104.00,0.0071
2101.00,0.0071
2098.00,0.0068
2095.00,0.0064
2092.00,0.0068
2089.00,0.0069
2086.00,0.0070
2083.00,0.0074
2080.00,0.0075
2077.00,0.0075
2074.00,0.0072
2071.00,0.0072
2068.00,0.0071
2065.00,0.0071
2062.00,0.0071
2059.00,0.0068
2056.00,0.0066
2053.00,0.0071
2050.00,0.0071
2047.00,0.0067
2044.00,0.0068
2041.00,0.0070
2038.00,0.0069
2035.00,0.0065
2032.00,0.0062
2029.00,0.0062
2026.00,0.0064
2023.00,0.0065
2020.00,0.0062
2017.00,0.0061
2014.00,0.0060
2011.00,0.0062
2008.00,0.0058
2005.00,0.0054
2002.00,0.0055
1999.00,0.0062
1996.00,0.0068
1993.00,0.0065
1990.00,0.0069
1987.00,0.0070
1984.00,0.0075
1981.00,0.0081
1978.00,0.0070
1975.00,0.0060
1972.00,0.0062
1969.00,0.0061
1966.00,0.0061
1963.00,0.0061
1960.00,0.0058
1957.00,0.0060
1954.00,0.0062
1951.00,0.0062
1948.00,0.0063
1945.00,0.0063
1942.00,0.0063
1939.00,0.0063
1936.00,0.0065
1933.00,0.0066
1930.00,0.0067
1927.00,0.0067
1924.00,0.0068
1921.00,0.0070
1918.00,0.0070
1915.00,0.0072
1912.00,0.0078
1909.00,0.0091
1906.00,0.0088
1903.00,0.0079
1900.00,0.0077
1897.00,0.0077
1894.00,0.0082
1891.00,0.0080
1888.00,0.0075
1885.00,0.0072
1882.00,0.0072
1879.00,0.0071
1876.00,0.0072
1873.00,0.0071
1870.00,0.0071
1867.00,0.0072
1864.00,0.0072
1861.00,0.0072
1858.00,0.0073
1855.00,0.0074
1852.00,0.0075
1849.00,0.0078
1846.00,0.0081
1843.00,0.0078
1840.00,0.0075
1837.00,0.0073
1834.00,0.0072
1831.00,0.0071
1828.00,0.0071
1825.00,0.0072
1822.00,0.0071
1819.00,0.0070
1816.00,0.0070
1813.00,0.0071
1810.00,0.0072
1807.00,0.0072
1804.00,0.0073
1801.00,0.0075
1798.00,0.0075
1795.00,0.0078
1792.00,0.0077
1789.00,0.0075
1786.00,0.0076
1783.00,0.0075
1780.00,0.0076
1777.00,0.0078
1774.00,0.0081
1771.00,0.0080
1768.00,0.0080
1765.00,0.0078
1762.00,0.0080
1759.00,0.0082
1756.00,0.0080
1753.00,0.0077
1750.00,0.0076
1747.00,0.0076
1744.00,0.0078
1741.00,0.0077
1738.00,0.0076
1735.00,0.0077
1732.00,0.0079
1729.00,0.0083
1726.00,0.0086
1723.00,0.0089
1720.00,0.0089
1717.00,0.0091
1714.00,0.0094
1711.00,0.0099
1708.00,0.0100
1705.00,0.0101
1702.00,0.0103
1699.00,0.0107
1696.00,0.0117
1693.00,0.0126
1690.00,0.0136
1687.00,0.0141
1684.00,0.0147
1681.00,0.0153
1678.00,0.0160
1675.00,0.0165
1672.00,0.0170
1669.00,0.0178
1666.00,0.0185
1663.00,0.0190
1660.00,0.0193
1657.00,0.0193
1654.00,0.0189
1651.00,0.0187
1648.00,0.0186
1645.00,0.0189
1642.00,0.0196
1639.00,0.0201
1636.00,0.0210
1633.00,0.0257
1630.00,0.0366
1627.00,0.0571
1624.00,0.0751
1621.00,0.0844
1618.00,0.0789
1615.00,0.0663
1612.00,0.0664
1609.00,0.0663
1606.00,0.0567
1603.00,0.0449
1600.00,0.0361
1597.00,0.0319
1594.00,0.0334
1591.00,0.0422
1588.00,0.0569
1585.00,0.0687
1582.00,0.0712
1579.00,0.0663
1576.00,0.0569
1573.00,0.0490
1570.00,0.0449
1567.00,0.0410
1564.00,0.0345
1561.00,0.0285
1558.00,0.0223
1555.00,0.0203
1552.00,0.0192
1549.00,0.0184
1546.00,0.0176
1543.00,0.0168
1540.00,0.0157
1537.00,0.0154
1534.00,0.0151
1531.00,0.0148
1528.00,0.0149
1525.00,0.0154
1522.00,0.0161
1519.00,0.0177
1516.00,0.0201
1513.00,0.0224
1510.00,0.0238
1507.00,0.0242
1504.00,0.0248
1501.00,0.0288
1498.00,0.0411
1495.00,0.0489
1492.00,0.0403
1489.00,0.0298
1486.00,0.0239
1483.00,0.0210
1480.00,0.0197
1477.00,0.0198
1474.00,0.0215
1471.00,0.0291
1468.00,0.0416
1465.00,0.0488
1462.00,0.0469
1459.00,0.0469
1456.00,0.0452
1453.00,0.0426
1450.00,0.0433
1447.00,0.0459
1444.00,0.0507
1441.00,0.0563
1438.00,0.0600
1435.00,0.0653
1432.00,0.0712
1429.00,0.0744
1426.00,0.0718
1423.00,0.0666
1420.00,0.0614
1417.00,0.0555
1414.00,0.0517
1411.00,0.0524
1408.00,0.0590
1405.00,0.0718
1402.00,0.0842
1399.00,0.0875
1396.00,0.0790
1393.00,0.0648
1390.00,0.0570
1387.00,0.0604
1384.00,0.0570
1381.00,0.0539
1378.00,0.0540
1375.00,0.0485
1372.00,0.0407
1369.00,0.0438
1366.00,0.0558
1363.00,0.0623
1360.00,0.0728
1357.00,0.0665
1354.00,0.0568
1351.00,0.0544
1348.00,0.0555
1345.00,0.0546
1342.00,0.0495
1339.00,0.0431
1336.00,0.0398
1333.00,0.0416
1330.00,0.0440
1327.00,0.0433
1324.00,0.0405
1321.00,0.0386
1318.00,0.0367
1315.00,0.0339
1312.00,0.0330
1309.00,0.0364
1306.00,0.0450
1303.00,0.0590
1300.00,0.0668
1297.00,0.0618
1294.00,0.0588
1291.00,0.0556
1288.00,0.0563
1285.00,0.0639
1282.00,0.0665
1279.00,0.0574
1276.00,0.0463
1273.00,0.0396
1270.00,0.0354
1267.00,0.0328
1264.00,0.0310
1261.00,0.0288
1258.00,0.0269
1255.00,0.0264
1252.00,0.0277
1249.00,0.0324
1246.00,0.0407
1243.00,0.0482
1240.00,0.0529
1237.00,0.0612
1234.00,0.0696
1231.00,0.0666
1228.00,0.0562
1225.00,0.0480
1222.00,0.0441
1219.00,0.0453
1216.00,0.0503
1213.00,0.0518
1210.00,0.0449
1207.00,0.0380
1204.00,0.0384
1201.00,0.0472
1198.00,0.0614
1195.00,0.0751
1192.00,0.0743
1189.00,0.0613
1186.00,0.0466
1183.00,0.0365
1180.00,0.0310
1177.00,0.0281
1174.00,0.0264
1171.00,0.0256
1168.00,0.0254
1165.00,0.0267
1162.00,0.0317
1159.00,0.0457
1156.00,0.0689
1153.00,0.0728
1150.00,0.0500
1147.00,0.0336
1144.00,0.0284
1141.00,0.0277
1138.00,0.0303
1135.00,0.0400
1132.00,0.0635
1129.00,0.0885
1126.00,0.0892
1123.00,0.0720
1120.00,0.0528
1117.00,0.0437
1114.00,0.0414
1111.00,0.0381
1108.00,0.0347
1105.00,0.0376
1102.00,0.0518
1099.00,0.0627
1096.00,0.0517
1093.00,0.0361
1090.00,0.0280
1087.00,0.0247
1084.00,0.0232
1081.00,0.0227
1078.00,0.0229
1075.00,0.0237
1072.00,0.0254
1069.00,0.0284
1066.00,0.0326
1063.00,0.0403
1060.00,0.0570
1057.00,0.0863
1054.00,0.1132
1051.00,0.1227
1048.00,0.1213
1045.00,0.1045
1042.00,0.0805
1039.00,0.0645
1036.00,0.0617
1033.00,0.0657
1030.00,0.0838
1027.00,0.1099
1024.00,0.1029
1021.00,0.0751
1018.00,0.0551
1015.00,0.0439
1012.00,0.0388
1009.00,0.0411
1006.00,0.0510
1003.00,0.0582
1000.00,0.0549
997.00,0.0498
994.00,0.0463
991.00,0.0410
988.00,0.0344
985.00,0.0301
982.00,0.0278
979.00,0.0271
976.00,0.0272
973.00,0.0270
970.00,0.0265
967.00,0.0266
964.00,0.0280
961.00,0.0287
958.00,0.0247
955.00,0.0214
952.00,0.0200
949.00,0.0213
946.00,0.0217
943.00,0.0220
940.00,0.0248
937.00,0.0269
934.00,0.0289
931.00,0.0297
928.00,0.0277
925.00,0.0293
922.00,0.0340
919.00,0.0313
916.00,0.0241
913.00,0.0202
910.00,0.0189
907.00,0.0193
904.00,0.0230
901.00,0.0318
898.00,0.0357
895.00,0.0295
892.00,0.0316
889.00,0.0359
886.00,0.0256
883.00,0.0222
880.00,0.0247
877.00,0.0344
874.00,0.0547
871.00,0.0777
868.00,0.0801
865.00,0.0648
862.00,0.0496
859.00,0.0395
856.00,0.0435
853.00,0.0551
850.00,0.0674
847.00,0.0670
844.00,0.0533
841.00,0.0460
838.00,0.0516
835.00,0.0677
832.00,0.0724
829.00,0.0585
826.00,0.0416
823.00,0.0506
820.00,0.0849
817.00,0.0989
814.00,0.0953
811.00,0.0540
808.00,0.0353
805.00,0.0281
802.00,0.0249
799.00,0.0232
796.00,0.0221
793.00,0.0212
790.00,0.0207
787.00,0.0202
784.00,0.0200
781.00,0.0203
778.00,0.0227
775.00,0.0306
772.00,0.0290
769.00,0.0236
766.00,0.0224
763.00,0.0240
760.00,0.0273
757.00,0.0267
754.00,0.0242
751.00,0.0234
748.00,0.0237
745.00,0.0249
742.00,0.0276
739.00,0.0358
736.00,0.0535
733.00,0.0576
730.00,0.0549
727.00,0.0543
724.00,0.0415
721.00,0.0347
718.00,0.0379
715.00,0.0453
712.00,0.0435
709.00,0.0381
706.00,0.0367
703.00,0.0389
700.00,0.0432
697.00,0.0450
694.00,0.0413
691.00,0.0429
688.00,0.0498
685.00,0.0459
682.00,0.0421
679.00,0.0433
676.00,0.0484
673.00,0.0558
670.00,0.0588
667.00,0.0547
664.00,0.0549
661.00,0.0570
658.00,0.0521
655.00,0.0456
652.00,0.0427
649.00,0.0412
646.00,0.0404
643.00,0.0395
640.00,0.0386
637.00,0.0382
634.00,0.0380
631.00,0.0382
628.00,0.0393
625.00,0.0429
622.00,0.0488
619.00,0.0522
616.00,0.0466
613.00,0.0394
610.00,0.0393
607.00,0.0499
604.00,0.0640
601.00,0.0698
598.00,0.0700
595.00,0.0685
592.00,0.0662
589.00,0.0626
586.00,0.0592
583.00,0.0587
580.00,0.0621
577.00,0.0729
574.00,0.0702
571.00,0.0579
568.00,0.0515
565.00,0.0538
562.00,0.0630
559.00,0.0695
556.00,0.0636
553.00,0.0586
550.00,0.0632
547.00,0.0738
544.00,0.0743
541.00,0.0657
538.00,0.0599
535.00,0.0617
532.00,0.0702
529.00,0.0696
526.00,0.0585
523.00,0.0498
520.00,0.0452
517.00,0.0425
514.00,0.0407
511.00,0.0409
508.00,0.0433
505.00,0.0447
502.00,0.0412
499.00,0.0378
496.00,0.0385
493.00,0.0420
490.00,0.0422
487.00,0.0387
484.00,0.0361
481.00,0.0340
478.00,0.0333
475.00,0.0319
472.00,0.0309
469.00,0.0308
466.00,0.0312
463.00,0.0305
460.00,0.0304
457.00,0.0308
454.00,0.0301
451.00,0.0290
448.00,0.0284
445.00,0.0287
442.00,0.0289
439.00,0.0301
436.00,0.0288
433.00,0.0274
430.00,0.0267
427.00,0.0259
424.00,0.0255
421.00,0.0249
418.00,0.0247
415.00,0.0266
412.00,0.0313
409.00,0.0361
406.00,0.0329
403.00,0.0274
400.00,0.0258