File: FTIR/Olivia/2025_08_15_1CBG_3PVP29_silicone_powder_scan2.csv
Created as New Dataset,Sample 122 By YargerLab Date Friday, August 15 2025
cm-1,A
4000.00,0.0056
3997.00,0.0055
3994.00,0.0056
3991.00,0.0056
3988.00,0.0056
3985.00,0.0056
3982.00,0.0056
3979.00,0.0055
3976.00,0.0055
3973.00,0.0056
3970.00,0.0056
3967.00,0.0055
3964.00,0.0056
3961.00,0.0056
3958.00,0.0055
3955.00,0.0056
3952.00,0.0055
3949.00,0.0055
3946.00,0.0055
3943.00,0.0055
3940.00,0.0055
3937.00,0.0055
3934.00,0.0055
3931.00,0.0054
3928.00,0.0055
3925.00,0.0055
3922.00,0.0055
3919.00,0.0055
3916.00,0.0055
3913.00,0.0054
3910.00,0.0055
3907.00,0.0056
3904.00,0.0055
3901.00,0.0055
3898.00,0.0055
3895.00,0.0055
3892.00,0.0055
3889.00,0.0056
3886.00,0.0055
3883.00,0.0055
3880.00,0.0055
3877.00,0.0054
3874.00,0.0055
3871.00,0.0055
3868.00,0.0055
3865.00,0.0055
3862.00,0.0055
3859.00,0.0055
3856.00,0.0055
3853.00,0.0055
3850.00,0.0055
3847.00,0.0055
3844.00,0.0055
3841.00,0.0055
3838.00,0.0055
3835.00,0.0055
3832.00,0.0055
3829.00,0.0055
3826.00,0.0055
3823.00,0.0055
3820.00,0.0055
3817.00,0.0055
3814.00,0.0055
3811.00,0.0055
3808.00,0.0055
3805.00,0.0055
3802.00,0.0055
3799.00,0.0055
3796.00,0.0054
3793.00,0.0054
3790.00,0.0055
3787.00,0.0055
3784.00,0.0055
3781.00,0.0056
3778.00,0.0055
3775.00,0.0055
3772.00,0.0056
3769.00,0.0055
3766.00,0.0055
3763.00,0.0055
3760.00,0.0055
3757.00,0.0056
3754.00,0.0055
3751.00,0.0055
3748.00,0.0056
3745.00,0.0055
3742.00,0.0054
3739.00,0.0053
3736.00,0.0054
3733.00,0.0054
3730.00,0.0054
3727.00,0.0054
3724.00,0.0054
3721.00,0.0054
3718.00,0.0054
3715.00,0.0055
3712.00,0.0054
3709.00,0.0054
3706.00,0.0054
3703.00,0.0054
3700.00,0.0055
3697.00,0.0055
3694.00,0.0056
3691.00,0.0057
3688.00,0.0057
3685.00,0.0059
3682.00,0.0061
3679.00,0.0062
3676.00,0.0061
3673.00,0.0062
3670.00,0.0063
3667.00,0.0063
3664.00,0.0063
3661.00,0.0065
3658.00,0.0066
3655.00,0.0067
3652.00,0.0068
3649.00,0.0069
3646.00,0.0071
3643.00,0.0072
3640.00,0.0074
3637.00,0.0076
3634.00,0.0078
3631.00,0.0080
3628.00,0.0081
3625.00,0.0084
3622.00,0.0086
3619.00,0.0089
3616.00,0.0091
3613.00,0.0093
3610.00,0.0096
3607.00,0.0098
3604.00,0.0100
3601.00,0.0103
3598.00,0.0105
3595.00,0.0108
3592.00,0.0112
3589.00,0.0115
3586.00,0.0118
3583.00,0.0120
3580.00,0.0123
3577.00,0.0127
3574.00,0.0131
3571.00,0.0134
3568.00,0.0137
3565.00,0.0141
3562.00,0.0144
3559.00,0.0148
3556.00,0.0151
3553.00,0.0154
3550.00,0.0157
3547.00,0.0160
3544.00,0.0164
3541.00,0.0167
3538.00,0.0170
3535.00,0.0173
3532.00,0.0175
3529.00,0.0178
3526.00,0.0181
3523.00,0.0183
3520.00,0.0186
3517.00,0.0188
3514.00,0.0191
3511.00,0.0194
3508.00,0.0196
3505.00,0.0199
3502.00,0.0201
3499.00,0.0203
3496.00,0.0205
3493.00,0.0208
3490.00,0.0209
3487.00,0.0212
3484.00,0.0214
3481.00,0.0216
3478.00,0.0218
3475.00,0.0220
3472.00,0.0222
3469.00,0.0224
3466.00,0.0225
3463.00,0.0227
3460.00,0.0228
3457.00,0.0230
3454.00,0.0231
3451.00,0.0233
3448.00,0.0235
3445.00,0.0236
3442.00,0.0237
3439.00,0.0239
3436.00,0.0240
3433.00,0.0242
3430.00,0.0243
3427.00,0.0244
3424.00,0.0245
3421.00,0.0246
3418.00,0.0247
3415.00,0.0248
3412.00,0.0250
3409.00,0.0251
3406.00,0.0252
3403.00,0.0253
3400.00,0.0254
3397.00,0.0255
3394.00,0.0255
3391.00,0.0257
3388.00,0.0259
3385.00,0.0260
3382.00,0.0260
3379.00,0.0261
3376.00,0.0262
3373.00,0.0262
3370.00,0.0262
3367.00,0.0263
3364.00,0.0265
3361.00,0.0266
3358.00,0.0267
3355.00,0.0268
3352.00,0.0266
3349.00,0.0268
3346.00,0.0269
3343.00,0.0269
3340.00,0.0270
3337.00,0.0271
3334.00,0.0273
3331.00,0.0274
3328.00,0.0274
3325.00,0.0274
3322.00,0.0276
3319.00,0.0277
3316.00,0.0278
3313.00,0.0278
3310.00,0.0275
3307.00,0.0274
3304.00,0.0277
3301.00,0.0281
3298.00,0.0280
3295.00,0.0279
3292.00,0.0280
3289.00,0.0283
3286.00,0.0285
3283.00,0.0285
3280.00,0.0284
3277.00,0.0282
3274.00,0.0281
3271.00,0.0280
3268.00,0.0282
3265.00,0.0282
3262.00,0.0282
3259.00,0.0282
3256.00,0.0281
3253.00,0.0280
3250.00,0.0279
3247.00,0.0277
3244.00,0.0278
3241.00,0.0277
3238.00,0.0277
3235.00,0.0275
3232.00,0.0274
3229.00,0.0273
3226.00,0.0272
3223.00,0.0271
3220.00,0.0269
3217.00,0.0268
3214.00,0.0268
3211.00,0.0267
3208.00,0.0265
3205.00,0.0264
3202.00,0.0263
3199.00,0.0263
3196.00,0.0261
3193.00,0.0260
3190.00,0.0257
3187.00,0.0256
3184.00,0.0254
3181.00,0.0252
3178.00,0.0250
3175.00,0.0248
3172.00,0.0246
3169.00,0.0244
3166.00,0.0241
3163.00,0.0239
3160.00,0.0237
3157.00,0.0234
3154.00,0.0231
3151.00,0.0229
3148.00,0.0227
3145.00,0.0225
3142.00,0.0222
3139.00,0.0221
3136.00,0.0219
3133.00,0.0218
3130.00,0.0216
3127.00,0.0214
3124.00,0.0212
3121.00,0.0210
3118.00,0.0208
3115.00,0.0206
3112.00,0.0203
3109.00,0.0201
3106.00,0.0199
3103.00,0.0196
3100.00,0.0193
3097.00,0.0191
3094.00,0.0188
3091.00,0.0186
3088.00,0.0183
3085.00,0.0181
3082.00,0.0179
3079.00,0.0177
3076.00,0.0175
3073.00,0.0173
3070.00,0.0171
3067.00,0.0169
3064.00,0.0168
3061.00,0.0167
3058.00,0.0166
3055.00,0.0164
3052.00,0.0162
3049.00,0.0161
3046.00,0.0160
3043.00,0.0158
3040.00,0.0157
3037.00,0.0156
3034.00,0.0155
3031.00,0.0155
3028.00,0.0155
3025.00,0.0154
3022.00,0.0154
3019.00,0.0154
3016.00,0.0154
3013.00,0.0156
3010.00,0.0158
3007.00,0.0162
3004.00,0.0168
3001.00,0.0176
2998.00,0.0185
2995.00,0.0198
2992.00,0.0212
2989.00,0.0226
2986.00,0.0238
2983.00,0.0248
2980.00,0.0258
2977.00,0.0271
2974.00,0.0282
2971.00,0.0296
2968.00,0.0314
2965.00,0.0333
2962.00,0.0349
2959.00,0.0361
2956.00,0.0367
2953.00,0.0368
2950.00,0.0365
2947.00,0.0359
2944.00,0.0357
2941.00,0.0360
2938.00,0.0369
2935.00,0.0383
2932.00,0.0398
2929.00,0.0410
2926.00,0.0420
2923.00,0.0424
2920.00,0.0423
2917.00,0.0417
2914.00,0.0406
2911.00,0.0392
2908.00,0.0376
2905.00,0.0361
2902.00,0.0350
2899.00,0.0343
2896.00,0.0337
2893.00,0.0333
2890.00,0.0328
2887.00,0.0323
2884.00,0.0319
2881.00,0.0317
2878.00,0.0317
2875.00,0.0317
2872.00,0.0318
2869.00,0.0317
2866.00,0.0315
2863.00,0.0316
2860.00,0.0320
2857.00,0.0322
2854.00,0.0315
2851.00,0.0299
2848.00,0.0279
2845.00,0.0260
2842.00,0.0241
2839.00,0.0224
2836.00,0.0211
2833.00,0.0200
2830.00,0.0190
2827.00,0.0180
2824.00,0.0170
2821.00,0.0162
2818.00,0.0154
2815.00,0.0148
2812.00,0.0143
2809.00,0.0139
2806.00,0.0136
2803.00,0.0134
2800.00,0.0131
2797.00,0.0129
2794.00,0.0127
2791.00,0.0125
2788.00,0.0124
2785.00,0.0123
2782.00,0.0122
2779.00,0.0121
2776.00,0.0120
2773.00,0.0119
2770.00,0.0118
2767.00,0.0117
2764.00,0.0117
2761.00,0.0116
2758.00,0.0116
2755.00,0.0116
2752.00,0.0116
2749.00,0.0116
2746.00,0.0117
2743.00,0.0117
2740.00,0.0117
2737.00,0.0117
2734.00,0.0117
2731.00,0.0118
2728.00,0.0118
2725.00,0.0118
2722.00,0.0117
2719.00,0.0117
2716.00,0.0116
2713.00,0.0116
2710.00,0.0115
2707.00,0.0115
2704.00,0.0115
2701.00,0.0114
2698.00,0.0114
2695.00,0.0113
2692.00,0.0112
2689.00,0.0112
2686.00,0.0111
2683.00,0.0111
2680.00,0.0110
2677.00,0.0110
2674.00,0.0109
2671.00,0.0109
2668.00,0.0109
2665.00,0.0109
2662.00,0.0109
2659.00,0.0109
2656.00,0.0109
2653.00,0.0109
2650.00,0.0108
2647.00,0.0107
2644.00,0.0107
2641.00,0.0106
2638.00,0.0105
2635.00,0.0104
2632.00,0.0104
2629.00,0.0103
2626.00,0.0102
2623.00,0.0101
2620.00,0.0100
2617.00,0.0100
2614.00,0.0098
2611.00,0.0097
2608.00,0.0097
2605.00,0.0097
2602.00,0.0097
2599.00,0.0097
2596.00,0.0097
2593.00,0.0097
2590.00,0.0096
2587.00,0.0096
2584.00,0.0096
2581.00,0.0096
2578.00,0.0095
2575.00,0.0095
2572.00,0.0094
2569.00,0.0093
2566.00,0.0092
2563.00,0.0092
2560.00,0.0092
2557.00,0.0092
2554.00,0.0091
2551.00,0.0090
2548.00,0.0090
2545.00,0.0090
2542.00,0.0090
2539.00,0.0089
2536.00,0.0089
2533.00,0.0088
2530.00,0.0088
2527.00,0.0088
2524.00,0.0087
2521.00,0.0087
2518.00,0.0087
2515.00,0.0086
2512.00,0.0086
2509.00,0.0085
2506.00,0.0085
2503.00,0.0084
2500.00,0.0084
2497.00,0.0084
2494.00,0.0084
2491.00,0.0084
2488.00,0.0083
2485.00,0.0083
2482.00,0.0084
2479.00,0.0083
2476.00,0.0083
2473.00,0.0082
2470.00,0.0081
2467.00,0.0082
2464.00,0.0082
2461.00,0.0082
2458.00,0.0082
2455.00,0.0082
2452.00,0.0082
2449.00,0.0082
2446.00,0.0081
2443.00,0.0081
2440.00,0.0080
2437.00,0.0080
2434.00,0.0080
2431.00,0.0080
2428.00,0.0080
2425.00,0.0080
2422.00,0.0080
2419.00,0.0080
2416.00,0.0080
2413.00,0.0080
2410.00,0.0080
2407.00,0.0079
2404.00,0.0080
2401.00,0.0079
2398.00,0.0080
2395.00,0.0080
2392.00,0.0080
2389.00,0.0079
2386.00,0.0078
2383.00,0.0076
2380.00,0.0075
2377.00,0.0075
2374.00,0.0075
2371.00,0.0074
2368.00,0.0073
2365.00,0.0074
2362.00,0.0074
2359.00,0.0074
2356.00,0.0075
2353.00,0.0075
2350.00,0.0075
2347.00,0.0076
2344.00,0.0076
2341.00,0.0077
2338.00,0.0078
2335.00,0.0079
2332.00,0.0079
2329.00,0.0082
2326.00,0.0089
2323.00,0.0087
2320.00,0.0084
2317.00,0.0083
2314.00,0.0082
2311.00,0.0080
2308.00,0.0080
2305.00,0.0080
2302.00,0.0081
2299.00,0.0082
2296.00,0.0084
2293.00,0.0085
2290.00,0.0087
2287.00,0.0088
2284.00,0.0086
2281.00,0.0084
2278.00,0.0083
2275.00,0.0083
2272.00,0.0083
2269.00,0.0082
2266.00,0.0081
2263.00,0.0080
2260.00,0.0081
2257.00,0.0080
2254.00,0.0079
2251.00,0.0080
2248.00,0.0079
2245.00,0.0081
2242.00,0.0081
2239.00,0.0080
2236.00,0.0081
2233.00,0.0081
2230.00,0.0080
2227.00,0.0080
2224.00,0.0081
2221.00,0.0080
2218.00,0.0082
2215.00,0.0081
2212.00,0.0080
2209.00,0.0080
2206.00,0.0081
2203.00,0.0082
2200.00,0.0081
2197.00,0.0081
2194.00,0.0081
2191.00,0.0083
2188.00,0.0084
2185.00,0.0081
2182.00,0.0075
2179.00,0.0074
2176.00,0.0075
2173.00,0.0080
2170.00,0.0084
2167.00,0.0085
2164.00,0.0085
2161.00,0.0072
2158.00,0.0054
2155.00,0.0061
2152.00,0.0066
2149.00,0.0064
2146.00,0.0064
2143.00,0.0066
2140.00,0.0065
2137.00,0.0063
2134.00,0.0064
2131.00,0.0067
2128.00,0.0069
2125.00,0.0073
2122.00,0.0074
2119.00,0.0075
2116.00,0.0078
2113.00,0.0079
2110.00,0.0078
2107.00,0.0078
2104.00,0.0078
2101.00,0.0078
2098.00,0.0075
2095.00,0.0073
2092.00,0.0074
2089.00,0.0074
2086.00,0.0074
2083.00,0.0075
2080.00,0.0076
2077.00,0.0077
2074.00,0.0075
2071.00,0.0075
2068.00,0.0074
2065.00,0.0073
2062.00,0.0072
2059.00,0.0072
2056.00,0.0073
2053.00,0.0077
2050.00,0.0079
2047.00,0.0075
2044.00,0.0074
2041.00,0.0072
2038.00,0.0072
2035.00,0.0068
2032.00,0.0066
2029.00,0.0065
2026.00,0.0064
2023.00,0.0065
2020.00,0.0068
2017.00,0.0068
2014.00,0.0064
2011.00,0.0065
2008.00,0.0064
2005.00,0.0060
2002.00,0.0062
1999.00,0.0066
1996.00,0.0068
1993.00,0.0069
1990.00,0.0067
1987.00,0.0071
1984.00,0.0076
1981.00,0.0081
1978.00,0.0068
1975.00,0.0059
1972.00,0.0060
1969.00,0.0060
1966.00,0.0063
1963.00,0.0063
1960.00,0.0059
1957.00,0.0062
1954.00,0.0063
1951.00,0.0062
1948.00,0.0063
1945.00,0.0065
1942.00,0.0064
1939.00,0.0065
1936.00,0.0066
1933.00,0.0066
1930.00,0.0066
1927.00,0.0066
1924.00,0.0067
1921.00,0.0067
1918.00,0.0067
1915.00,0.0067
1912.00,0.0067
1909.00,0.0068
1906.00,0.0068
1903.00,0.0068
1900.00,0.0067
1897.00,0.0067
1894.00,0.0068
1891.00,0.0068
1888.00,0.0067
1885.00,0.0067
1882.00,0.0068
1879.00,0.0069
1876.00,0.0068
1873.00,0.0067
1870.00,0.0068
1867.00,0.0068
1864.00,0.0068
1861.00,0.0067
1858.00,0.0068
1855.00,0.0068
1852.00,0.0069
1849.00,0.0069
1846.00,0.0066
1843.00,0.0067
1840.00,0.0068
1837.00,0.0069
1834.00,0.0068
1831.00,0.0069
1828.00,0.0068
1825.00,0.0067
1822.00,0.0067
1819.00,0.0066
1816.00,0.0065
1813.00,0.0067
1810.00,0.0067
1807.00,0.0068
1804.00,0.0068
1801.00,0.0068
1798.00,0.0068
1795.00,0.0068
1792.00,0.0067
1789.00,0.0067
1786.00,0.0069
1783.00,0.0069
1780.00,0.0069
1777.00,0.0069
1774.00,0.0069
1771.00,0.0069
1768.00,0.0070
1765.00,0.0071
1762.00,0.0071
1759.00,0.0072
1756.00,0.0072
1753.00,0.0073
1750.00,0.0075
1747.00,0.0076
1744.00,0.0077
1741.00,0.0077
1738.00,0.0079
1735.00,0.0082
1732.00,0.0086
1729.00,0.0091
1726.00,0.0096
1723.00,0.0102
1720.00,0.0107
1717.00,0.0116
1714.00,0.0129
1711.00,0.0146
1708.00,0.0168
1705.00,0.0204
1702.00,0.0240
1699.00,0.0328
1696.00,0.0426
1693.00,0.0548
1690.00,0.0676
1687.00,0.0802
1684.00,0.0954
1681.00,0.1073
1678.00,0.1161
1675.00,0.1257
1672.00,0.1343
1669.00,0.1453
1666.00,0.1554
1663.00,0.1666
1660.00,0.1768
1657.00,0.1840
1654.00,0.1894
1651.00,0.1891
1648.00,0.1859
1645.00,0.1732
1642.00,0.1601
1639.00,0.1447
1636.00,0.1267
1633.00,0.1092
1630.00,0.0980
1627.00,0.0879
1624.00,0.0814
1621.00,0.0767
1618.00,0.0727
1615.00,0.0666
1612.00,0.0612
1609.00,0.0565
1606.00,0.0546
1603.00,0.0561
1600.00,0.0585
1597.00,0.0583
1594.00,0.0547
1591.00,0.0500
1588.00,0.0461
1585.00,0.0426
1582.00,0.0389
1579.00,0.0353
1576.00,0.0320
1573.00,0.0298
1570.00,0.0279
1567.00,0.0265
1564.00,0.0253
1561.00,0.0239
1558.00,0.0229
1555.00,0.0228
1552.00,0.0226
1549.00,0.0223
1546.00,0.0221
1543.00,0.0219
1540.00,0.0217
1537.00,0.0216
1534.00,0.0213
1531.00,0.0210
1528.00,0.0208
1525.00,0.0206
1522.00,0.0206
1519.00,0.0209
1516.00,0.0211
1513.00,0.0211
1510.00,0.0217
1507.00,0.0231
1504.00,0.0263
1501.00,0.0306
1498.00,0.0367
1495.00,0.0422
1492.00,0.0430
1489.00,0.0384
1486.00,0.0322
1483.00,0.0281
1480.00,0.0260
1477.00,0.0263
1474.00,0.0292
1471.00,0.0381
1468.00,0.0493
1465.00,0.0646
1462.00,0.0765
1459.00,0.0779
1456.00,0.0685
1453.00,0.0632
1450.00,0.0634
1447.00,0.0710
1444.00,0.0823
1441.00,0.0940
1438.00,0.1028
1435.00,0.1113
1432.00,0.1176
1429.00,0.1243
1426.00,0.1297
1423.00,0.1339
1420.00,0.1277
1417.00,0.1061
1414.00,0.0856
1411.00,0.0693
1408.00,0.0593
1405.00,0.0535
1402.00,0.0501
1399.00,0.0482
1396.00,0.0471
1393.00,0.0469
1390.00,0.0477
1387.00,0.0501
1384.00,0.0537
1381.00,0.0574
1378.00,0.0604
1375.00,0.0614
1372.00,0.0593
1369.00,0.0560
1366.00,0.0522
1363.00,0.0484
1360.00,0.0451
1357.00,0.0431
1354.00,0.0419
1351.00,0.0408
1348.00,0.0394
1345.00,0.0379
1342.00,0.0371
1339.00,0.0370
1336.00,0.0374
1333.00,0.0385
1330.00,0.0407
1327.00,0.0442
1324.00,0.0489
1321.00,0.0536
1318.00,0.0562
1315.00,0.0556
1312.00,0.0526
1309.00,0.0497
1306.00,0.0487
1303.00,0.0513
1300.00,0.0596
1297.00,0.0759
1294.00,0.0989
1291.00,0.1207
1288.00,0.1330
1285.00,0.1330
1282.00,0.1246
1279.00,0.1176
1276.00,0.1172
1273.00,0.1191
1270.00,0.1166
1267.00,0.1088
1264.00,0.0986
1261.00,0.0880
1258.00,0.0781
1255.00,0.0694
1252.00,0.0624
1249.00,0.0576
1246.00,0.0546
1243.00,0.0533
1240.00,0.0539
1237.00,0.0566
1234.00,0.0611
1231.00,0.0659
1228.00,0.0687
1225.00,0.0693
1222.00,0.0687
1219.00,0.0674
1216.00,0.0648
1213.00,0.0612
1210.00,0.0576
1207.00,0.0547
1204.00,0.0526
1201.00,0.0508
1198.00,0.0491
1195.00,0.0475
1192.00,0.0463
1189.00,0.0454
1186.00,0.0449
1183.00,0.0449
1180.00,0.0458
1177.00,0.0479
1174.00,0.0513
1171.00,0.0553
1168.00,0.0587
1165.00,0.0600
1162.00,0.0585
1159.00,0.0553
1156.00,0.0520
1153.00,0.0488
1150.00,0.0457
1147.00,0.0428
1144.00,0.0404
1141.00,0.0389
1138.00,0.0376
1135.00,0.0368
1132.00,0.0365
1129.00,0.0366
1126.00,0.0368
1123.00,0.0371
1120.00,0.0378
1117.00,0.0389
1114.00,0.0404
1111.00,0.0422
1108.00,0.0435
1105.00,0.0440
1102.00,0.0443
1099.00,0.0449
1096.00,0.0458
1093.00,0.0462
1090.00,0.0464
1087.00,0.0474
1084.00,0.0485
1081.00,0.0488
1078.00,0.0479
1075.00,0.0469
1072.00,0.0453
1069.00,0.0437
1066.00,0.0428
1063.00,0.0430
1060.00,0.0450
1057.00,0.0500
1054.00,0.0594
1051.00,0.0699
1048.00,0.0732
1045.00,0.0686
1042.00,0.0625
1039.00,0.0586
1036.00,0.0561
1033.00,0.0544
1030.00,0.0530
1027.00,0.0520
1024.00,0.0517
1021.00,0.0520
1018.00,0.0515
1015.00,0.0487
1012.00,0.0442
1009.00,0.0408
1006.00,0.0401
1003.00,0.0409
1000.00,0.0400
997.00,0.0376
994.00,0.0356
991.00,0.0346
988.00,0.0345
985.00,0.0341
982.00,0.0330
979.00,0.0317
976.00,0.0305
973.00,0.0294
970.00,0.0283
967.00,0.0271
964.00,0.0262
961.00,0.0255
958.00,0.0246
955.00,0.0239
952.00,0.0233
949.00,0.0230
946.00,0.0230
943.00,0.0233
940.00,0.0242
937.00,0.0261
934.00,0.0282
931.00,0.0282
928.00,0.0271
925.00,0.0268
922.00,0.0270
919.00,0.0273
916.00,0.0278
913.00,0.0284
910.00,0.0291
907.00,0.0298
904.00,0.0301
901.00,0.0304
898.00,0.0309
895.00,0.0312
892.00,0.0308
889.00,0.0300
886.00,0.0296
883.00,0.0297
880.00,0.0299
877.00,0.0304
874.00,0.0310
871.00,0.0316
868.00,0.0328
865.00,0.0344
862.00,0.0365
859.00,0.0390
856.00,0.0422
853.00,0.0459
850.00,0.0494
847.00,0.0520
844.00,0.0539
841.00,0.0549
838.00,0.0556
835.00,0.0563
832.00,0.0568
829.00,0.0567
826.00,0.0557
823.00,0.0537
820.00,0.0511
817.00,0.0488
814.00,0.0472
811.00,0.0465
808.00,0.0460
805.00,0.0457
802.00,0.0458
799.00,0.0458
796.00,0.0458
793.00,0.0455
790.00,0.0447
787.00,0.0440
784.00,0.0436
781.00,0.0436
778.00,0.0437
775.00,0.0438
772.00,0.0437
769.00,0.0439
766.00,0.0445
763.00,0.0456
760.00,0.0474
757.00,0.0496
754.00,0.0519
751.00,0.0544
748.00,0.0569
745.00,0.0594
742.00,0.0615
739.00,0.0635
736.00,0.0647
733.00,0.0646
730.00,0.0627
727.00,0.0596
724.00,0.0570
721.00,0.0549
718.00,0.0536
715.00,0.0532
712.00,0.0530
709.00,0.0532
706.00,0.0536
703.00,0.0541
700.00,0.0545
697.00,0.0554
694.00,0.0564
691.00,0.0575
688.00,0.0590
685.00,0.0606
682.00,0.0622
679.00,0.0638
676.00,0.0655
673.00,0.0672
670.00,0.0691
667.00,0.0726
664.00,0.0748
661.00,0.0781
658.00,0.0819
655.00,0.0859
652.00,0.0892
649.00,0.0913
646.00,0.0913
643.00,0.0892
640.00,0.0858
637.00,0.0825
634.00,0.0797
631.00,0.0774
628.00,0.0756
625.00,0.0742
622.00,0.0730
619.00,0.0724
616.00,0.0723
613.00,0.0719
610.00,0.0728
607.00,0.0735
604.00,0.0745
601.00,0.0757
598.00,0.0769
595.00,0.0781
592.00,0.0799
589.00,0.0822
586.00,0.0855
583.00,0.0893
580.00,0.0929
577.00,0.0958
574.00,0.0968
571.00,0.0968
568.00,0.0954
565.00,0.0934
562.00,0.0907
559.00,0.0876
556.00,0.0850
553.00,0.0834
550.00,0.0820
547.00,0.0805
544.00,0.0795
541.00,0.0787
538.00,0.0782
535.00,0.0779
532.00,0.0778
529.00,0.0774
526.00,0.0770
523.00,0.0769
520.00,0.0764
517.00,0.0757
514.00,0.0756
511.00,0.0753
508.00,0.0751
505.00,0.0744
502.00,0.0741
499.00,0.0744
496.00,0.0746
493.00,0.0754
490.00,0.0758
487.00,0.0762
484.00,0.0771
481.00,0.0772
478.00,0.0776
475.00,0.0781
472.00,0.0781
469.00,0.0777
466.00,0.0775
463.00,0.0780
460.00,0.0774
457.00,0.0770
454.00,0.0770
451.00,0.0767
448.00,0.0762
445.00,0.0753
442.00,0.0744
439.00,0.0727
436.00,0.0716
433.00,0.0707
430.00,0.0703
427.00,0.0697
424.00,0.0688
421.00,0.0696
418.00,0.0687
415.00,0.0676
412.00,0.0698
409.00,0.0687
406.00,0.0695
403.00,0.0705
400.00,0.0699