File: FTIR/Olivia/2025_07_29_Polystyrene_Std_scan3.csv
Created as New Dataset,Sample 953 By YargerLab Date Tuesday, July 29 2025
cm-1,A
4000.00,0.0022
3997.00,0.0022
3994.00,0.0021
3991.00,0.0021
3988.00,0.0021
3985.00,0.0021
3982.00,0.0021
3979.00,0.0021
3976.00,0.0021
3973.00,0.0021
3970.00,0.0021
3967.00,0.0021
3964.00,0.0021
3961.00,0.0021
3958.00,0.0021
3955.00,0.0021
3952.00,0.0021
3949.00,0.0021
3946.00,0.0021
3943.00,0.0020
3940.00,0.0021
3937.00,0.0021
3934.00,0.0021
3931.00,0.0021
3928.00,0.0021
3925.00,0.0021
3922.00,0.0020
3919.00,0.0020
3916.00,0.0020
3913.00,0.0020
3910.00,0.0021
3907.00,0.0021
3904.00,0.0019
3901.00,0.0018
3898.00,0.0020
3895.00,0.0020
3892.00,0.0020
3889.00,0.0020
3886.00,0.0019
3883.00,0.0019
3880.00,0.0019
3877.00,0.0020
3874.00,0.0020
3871.00,0.0019
3868.00,0.0019
3865.00,0.0018
3862.00,0.0019
3859.00,0.0019
3856.00,0.0020
3853.00,0.0019
3850.00,0.0019
3847.00,0.0019
3844.00,0.0019
3841.00,0.0019
3838.00,0.0019
3835.00,0.0019
3832.00,0.0019
3829.00,0.0020
3826.00,0.0020
3823.00,0.0019
3820.00,0.0019
3817.00,0.0020
3814.00,0.0021
3811.00,0.0021
3808.00,0.0020
3805.00,0.0019
3802.00,0.0019
3799.00,0.0020
3796.00,0.0020
3793.00,0.0020
3790.00,0.0021
3787.00,0.0021
3784.00,0.0021
3781.00,0.0020
3778.00,0.0020
3775.00,0.0021
3772.00,0.0020
3769.00,0.0019
3766.00,0.0019
3763.00,0.0020
3760.00,0.0019
3757.00,0.0019
3754.00,0.0018
3751.00,0.0018
3748.00,0.0017
3745.00,0.0016
3742.00,0.0018
3739.00,0.0018
3736.00,0.0017
3733.00,0.0016
3730.00,0.0017
3727.00,0.0018
3724.00,0.0018
3721.00,0.0018
3718.00,0.0019
3715.00,0.0019
3712.00,0.0017
3709.00,0.0017
3706.00,0.0018
3703.00,0.0019
3700.00,0.0019
3697.00,0.0019
3694.00,0.0019
3691.00,0.0018
3688.00,0.0018
3685.00,0.0019
3682.00,0.0019
3679.00,0.0019
3676.00,0.0017
3673.00,0.0018
3670.00,0.0019
3667.00,0.0019
3664.00,0.0019
3661.00,0.0020
3658.00,0.0021
3655.00,0.0020
3652.00,0.0018
3649.00,0.0019
3646.00,0.0019
3643.00,0.0020
3640.00,0.0021
3637.00,0.0020
3634.00,0.0019
3631.00,0.0018
3628.00,0.0018
3625.00,0.0018
3622.00,0.0019
3619.00,0.0020
3616.00,0.0019
3613.00,0.0019
3610.00,0.0019
3607.00,0.0019
3604.00,0.0020
3601.00,0.0020
3598.00,0.0020
3595.00,0.0020
3592.00,0.0020
3589.00,0.0020
3586.00,0.0021
3583.00,0.0021
3580.00,0.0021
3577.00,0.0022
3574.00,0.0022
3571.00,0.0022
3568.00,0.0021
3565.00,0.0022
3562.00,0.0022
3559.00,0.0023
3556.00,0.0023
3553.00,0.0023
3550.00,0.0023
3547.00,0.0023
3544.00,0.0023
3541.00,0.0024
3538.00,0.0024
3535.00,0.0024
3532.00,0.0025
3529.00,0.0025
3526.00,0.0025
3523.00,0.0025
3520.00,0.0026
3517.00,0.0026
3514.00,0.0027
3511.00,0.0027
3508.00,0.0026
3505.00,0.0027
3502.00,0.0027
3499.00,0.0027
3496.00,0.0027
3493.00,0.0027
3490.00,0.0028
3487.00,0.0028
3484.00,0.0027
3481.00,0.0028
3478.00,0.0028
3475.00,0.0028
3472.00,0.0028
3469.00,0.0029
3466.00,0.0028
3463.00,0.0029
3460.00,0.0029
3457.00,0.0029
3454.00,0.0029
3451.00,0.0029
3448.00,0.0029
3445.00,0.0029
3442.00,0.0029
3439.00,0.0029
3436.00,0.0029
3433.00,0.0030
3430.00,0.0030
3427.00,0.0029
3424.00,0.0029
3421.00,0.0029
3418.00,0.0029
3415.00,0.0029
3412.00,0.0029
3409.00,0.0029
3406.00,0.0029
3403.00,0.0029
3400.00,0.0029
3397.00,0.0029
3394.00,0.0029
3391.00,0.0029
3388.00,0.0029
3385.00,0.0029
3382.00,0.0030
3379.00,0.0029
3376.00,0.0029
3373.00,0.0029
3370.00,0.0029
3367.00,0.0029
3364.00,0.0029
3361.00,0.0029
3358.00,0.0029
3355.00,0.0029
3352.00,0.0029
3349.00,0.0029
3346.00,0.0028
3343.00,0.0028
3340.00,0.0028
3337.00,0.0028
3334.00,0.0029
3331.00,0.0029
3328.00,0.0028
3325.00,0.0028
3322.00,0.0028
3319.00,0.0028
3316.00,0.0029
3313.00,0.0029
3310.00,0.0028
3307.00,0.0027
3304.00,0.0027
3301.00,0.0027
3298.00,0.0027
3295.00,0.0027
3292.00,0.0028
3289.00,0.0028
3286.00,0.0027
3283.00,0.0027
3280.00,0.0028
3277.00,0.0027
3274.00,0.0027
3271.00,0.0027
3268.00,0.0028
3265.00,0.0027
3262.00,0.0027
3259.00,0.0027
3256.00,0.0027
3253.00,0.0027
3250.00,0.0026
3247.00,0.0026
3244.00,0.0026
3241.00,0.0026
3238.00,0.0026
3235.00,0.0026
3232.00,0.0026
3229.00,0.0025
3226.00,0.0026
3223.00,0.0026
3220.00,0.0026
3217.00,0.0026
3214.00,0.0027
3211.00,0.0027
3208.00,0.0027
3205.00,0.0028
3202.00,0.0028
3199.00,0.0027
3196.00,0.0027
3193.00,0.0027
3190.00,0.0027
3187.00,0.0026
3184.00,0.0025
3181.00,0.0025
3178.00,0.0025
3175.00,0.0025
3172.00,0.0026
3169.00,0.0026
3166.00,0.0027
3163.00,0.0027
3160.00,0.0026
3157.00,0.0025
3154.00,0.0025
3151.00,0.0025
3148.00,0.0025
3145.00,0.0025
3142.00,0.0025
3139.00,0.0025
3136.00,0.0025
3133.00,0.0025
3130.00,0.0025
3127.00,0.0025
3124.00,0.0025
3121.00,0.0027
3118.00,0.0028
3115.00,0.0029
3112.00,0.0034
3109.00,0.0041
3106.00,0.0047
3103.00,0.0050
3100.00,0.0048
3097.00,0.0047
3094.00,0.0050
3091.00,0.0059
3088.00,0.0079
3085.00,0.0100
3082.00,0.0109
3079.00,0.0099
3076.00,0.0086
3073.00,0.0082
3070.00,0.0088
3067.00,0.0105
3064.00,0.0129
3061.00,0.0148
3058.00,0.0144
3055.00,0.0122
3052.00,0.0100
3049.00,0.0086
3046.00,0.0079
3043.00,0.0081
3040.00,0.0091
3037.00,0.0111
3034.00,0.0147
3031.00,0.0201
3028.00,0.0258
3025.00,0.0278
3022.00,0.0238
3019.00,0.0170
3016.00,0.0117
3013.00,0.0089
3010.00,0.0077
3007.00,0.0076
3004.00,0.0082
3001.00,0.0085
2998.00,0.0076
2995.00,0.0062
2992.00,0.0054
2989.00,0.0051
2986.00,0.0050
2983.00,0.0050
2980.00,0.0050
2977.00,0.0052
2974.00,0.0053
2971.00,0.0055
2968.00,0.0059
2965.00,0.0064
2962.00,0.0070
2959.00,0.0076
2956.00,0.0085
2953.00,0.0095
2950.00,0.0108
2947.00,0.0124
2944.00,0.0144
2941.00,0.0169
2938.00,0.0199
2935.00,0.0233
2932.00,0.0270
2929.00,0.0303
2926.00,0.0328
2923.00,0.0340
2920.00,0.0338
2917.00,0.0325
2914.00,0.0306
2911.00,0.0282
2908.00,0.0258
2905.00,0.0232
2902.00,0.0207
2899.00,0.0182
2896.00,0.0161
2893.00,0.0146
2890.00,0.0134
2887.00,0.0125
2884.00,0.0116
2881.00,0.0109
2878.00,0.0103
2875.00,0.0096
2872.00,0.0093
2869.00,0.0092
2866.00,0.0094
2863.00,0.0101
2860.00,0.0113
2857.00,0.0129
2854.00,0.0143
2851.00,0.0152
2848.00,0.0151
2845.00,0.0139
2842.00,0.0116
2839.00,0.0091
2836.00,0.0070
2833.00,0.0058
2830.00,0.0051
2827.00,0.0046
2824.00,0.0043
2821.00,0.0041
2818.00,0.0040
2815.00,0.0040
2812.00,0.0039
2809.00,0.0038
2806.00,0.0037
2803.00,0.0036
2800.00,0.0036
2797.00,0.0035
2794.00,0.0034
2791.00,0.0033
2788.00,0.0033
2785.00,0.0033
2782.00,0.0033
2779.00,0.0032
2776.00,0.0032
2773.00,0.0031
2770.00,0.0031
2767.00,0.0030
2764.00,0.0030
2761.00,0.0029
2758.00,0.0029
2755.00,0.0029
2752.00,0.0029
2749.00,0.0029
2746.00,0.0029
2743.00,0.0029
2740.00,0.0029
2737.00,0.0029
2734.00,0.0029
2731.00,0.0029
2728.00,0.0029
2725.00,0.0029
2722.00,0.0029
2719.00,0.0029
2716.00,0.0029
2713.00,0.0029
2710.00,0.0028
2707.00,0.0028
2704.00,0.0029
2701.00,0.0029
2698.00,0.0029
2695.00,0.0029
2692.00,0.0028
2689.00,0.0029
2686.00,0.0029
2683.00,0.0028
2680.00,0.0028
2677.00,0.0028
2674.00,0.0028
2671.00,0.0028
2668.00,0.0029
2665.00,0.0029
2662.00,0.0031
2659.00,0.0031
2656.00,0.0032
2653.00,0.0032
2650.00,0.0032
2647.00,0.0032
2644.00,0.0032
2641.00,0.0032
2638.00,0.0032
2635.00,0.0032
2632.00,0.0033
2629.00,0.0032
2626.00,0.0031
2623.00,0.0031
2620.00,0.0030
2617.00,0.0030
2614.00,0.0029
2611.00,0.0030
2608.00,0.0030
2605.00,0.0030
2602.00,0.0030
2599.00,0.0030
2596.00,0.0028
2593.00,0.0027
2590.00,0.0027
2587.00,0.0027
2584.00,0.0028
2581.00,0.0028
2578.00,0.0026
2575.00,0.0026
2572.00,0.0026
2569.00,0.0025
2566.00,0.0025
2563.00,0.0025
2560.00,0.0025
2557.00,0.0025
2554.00,0.0025
2551.00,0.0024
2548.00,0.0024
2545.00,0.0024
2542.00,0.0023
2539.00,0.0024
2536.00,0.0024
2533.00,0.0024
2530.00,0.0023
2527.00,0.0023
2524.00,0.0024
2521.00,0.0023
2518.00,0.0023
2515.00,0.0023
2512.00,0.0023
2509.00,0.0023
2506.00,0.0023
2503.00,0.0023
2500.00,0.0023
2497.00,0.0023
2494.00,0.0022
2491.00,0.0022
2488.00,0.0021
2485.00,0.0021
2482.00,0.0021
2479.00,0.0021
2476.00,0.0020
2473.00,0.0020
2470.00,0.0020
2467.00,0.0020
2464.00,0.0021
2461.00,0.0021
2458.00,0.0022
2455.00,0.0022
2452.00,0.0022
2449.00,0.0021
2446.00,0.0020
2443.00,0.0020
2440.00,0.0020
2437.00,0.0019
2434.00,0.0020
2431.00,0.0019
2428.00,0.0019
2425.00,0.0018
2422.00,0.0018
2419.00,0.0017
2416.00,0.0017
2413.00,0.0017
2410.00,0.0017
2407.00,0.0017
2404.00,0.0017
2401.00,0.0017
2398.00,0.0016
2395.00,0.0016
2392.00,0.0016
2389.00,0.0016
2386.00,0.0017
2383.00,0.0016
2380.00,0.0016
2377.00,0.0016
2374.00,0.0017
2371.00,0.0016
2368.00,0.0015
2365.00,0.0016
2362.00,0.0018
2359.00,0.0018
2356.00,0.0019
2353.00,0.0020
2350.00,0.0020
2347.00,0.0020
2344.00,0.0022
2341.00,0.0023
2338.00,0.0024
2335.00,0.0025
2332.00,0.0023
2329.00,0.0024
2326.00,0.0033
2323.00,0.0032
2320.00,0.0029
2317.00,0.0028
2314.00,0.0028
2311.00,0.0027
2308.00,0.0025
2305.00,0.0024
2302.00,0.0023
2299.00,0.0024
2296.00,0.0025
2293.00,0.0026
2290.00,0.0027
2287.00,0.0028
2284.00,0.0026
2281.00,0.0024
2278.00,0.0023
2275.00,0.0021
2272.00,0.0021
2269.00,0.0020
2266.00,0.0020
2263.00,0.0021
2260.00,0.0022
2257.00,0.0020
2254.00,0.0017
2251.00,0.0019
2248.00,0.0019
2245.00,0.0020
2242.00,0.0020
2239.00,0.0020
2236.00,0.0020
2233.00,0.0018
2230.00,0.0018
2227.00,0.0017
2224.00,0.0016
2221.00,0.0016
2218.00,0.0016
2215.00,0.0017
2212.00,0.0017
2209.00,0.0015
2206.00,0.0015
2203.00,0.0017
2200.00,0.0018
2197.00,0.0017
2194.00,0.0018
2191.00,0.0019
2188.00,0.0020
2185.00,0.0015
2182.00,0.0010
2179.00,0.0012
2176.00,0.0013
2173.00,0.0014
2170.00,0.0019
2167.00,0.0022
2164.00,0.0024
2161.00,0.0014
2158.00,-0.0014
2155.00,-0.0009
2152.00,-0.0004
2149.00,-0.0002
2146.00,-0.0002
2143.00,-0.0003
2140.00,-0.0001
2137.00,-0.0004
2134.00,-0.0008
2131.00,-0.0002
2128.00,0.0003
2125.00,0.0006
2122.00,0.0008
2119.00,0.0009
2116.00,0.0012
2113.00,0.0013
2110.00,0.0013
2107.00,0.0012
2104.00,0.0012
2101.00,0.0012
2098.00,0.0010
2095.00,0.0007
2092.00,0.0011
2089.00,0.0012
2086.00,0.0013
2083.00,0.0013
2080.00,0.0014
2077.00,0.0014
2074.00,0.0014
2071.00,0.0013
2068.00,0.0013
2065.00,0.0011
2062.00,0.0008
2059.00,0.0010
2056.00,0.0010
2053.00,0.0014
2050.00,0.0017
2047.00,0.0012
2044.00,0.0012
2041.00,0.0010
2038.00,0.0014
2035.00,0.0012
2032.00,0.0009
2029.00,0.0008
2026.00,0.0005
2023.00,0.0005
2020.00,0.0008
2017.00,0.0007
2014.00,0.0006
2011.00,0.0009
2008.00,0.0005
2005.00,-0.0000
2002.00,0.0002
1999.00,0.0008
1996.00,0.0009
1993.00,0.0012
1990.00,0.0014
1987.00,0.0016
1984.00,0.0021
1981.00,0.0023
1978.00,0.0012
1975.00,0.0008
1972.00,0.0009
1969.00,0.0013
1966.00,0.0015
1963.00,0.0018
1960.00,0.0020
1957.00,0.0022
1954.00,0.0027
1951.00,0.0032
1948.00,0.0038
1945.00,0.0042
1942.00,0.0042
1939.00,0.0040
1936.00,0.0034
1933.00,0.0028
1930.00,0.0021
1927.00,0.0017
1924.00,0.0017
1921.00,0.0016
1918.00,0.0013
1915.00,0.0014
1912.00,0.0014
1909.00,0.0013
1906.00,0.0014
1903.00,0.0016
1900.00,0.0019
1897.00,0.0020
1894.00,0.0022
1891.00,0.0028
1888.00,0.0030
1885.00,0.0031
1882.00,0.0034
1879.00,0.0037
1876.00,0.0038
1873.00,0.0038
1870.00,0.0041
1867.00,0.0042
1864.00,0.0037
1861.00,0.0030
1858.00,0.0025
1855.00,0.0022
1852.00,0.0019
1849.00,0.0016
1846.00,0.0015
1843.00,0.0016
1840.00,0.0015
1837.00,0.0016
1834.00,0.0016
1831.00,0.0020
1828.00,0.0022
1825.00,0.0024
1822.00,0.0026
1819.00,0.0029
1816.00,0.0031
1813.00,0.0035
1810.00,0.0041
1807.00,0.0045
1804.00,0.0047
1801.00,0.0047
1798.00,0.0045
1795.00,0.0042
1792.00,0.0035
1789.00,0.0027
1786.00,0.0027
1783.00,0.0027
1780.00,0.0026
1777.00,0.0025
1774.00,0.0029
1771.00,0.0030
1768.00,0.0027
1765.00,0.0028
1762.00,0.0035
1759.00,0.0036
1756.00,0.0039
1753.00,0.0045
1750.00,0.0053
1747.00,0.0055
1744.00,0.0059
1741.00,0.0063
1738.00,0.0061
1735.00,0.0060
1732.00,0.0061
1729.00,0.0059
1726.00,0.0052
1723.00,0.0052
1720.00,0.0051
1717.00,0.0047
1714.00,0.0043
1711.00,0.0046
1708.00,0.0044
1705.00,0.0043
1702.00,0.0044
1699.00,0.0049
1696.00,0.0049
1693.00,0.0052
1690.00,0.0064
1687.00,0.0066
1684.00,0.0067
1681.00,0.0073
1678.00,0.0073
1675.00,0.0069
1672.00,0.0070
1669.00,0.0076
1666.00,0.0073
1663.00,0.0071
1660.00,0.0069
1657.00,0.0066
1654.00,0.0062
1651.00,0.0057
1648.00,0.0057
1645.00,0.0051
1642.00,0.0049
1639.00,0.0046
1636.00,0.0044
1633.00,0.0042
1630.00,0.0043
1627.00,0.0042
1624.00,0.0043
1621.00,0.0046
1618.00,0.0048
1615.00,0.0051
1612.00,0.0063
1609.00,0.0096
1606.00,0.0163
1603.00,0.0249
1600.00,0.0264
1597.00,0.0189
1594.00,0.0124
1591.00,0.0092
1588.00,0.0086
1585.00,0.0109
1582.00,0.0112
1579.00,0.0077
1576.00,0.0055
1573.00,0.0044
1570.00,0.0039
1567.00,0.0034
1564.00,0.0034
1561.00,0.0033
1558.00,0.0030
1555.00,0.0033
1552.00,0.0041
1549.00,0.0046
1546.00,0.0044
1543.00,0.0047
1540.00,0.0051
1537.00,0.0042
1534.00,0.0039
1531.00,0.0038
1528.00,0.0038
1525.00,0.0031
1522.00,0.0032
1519.00,0.0036
1516.00,0.0037
1513.00,0.0035
1510.00,0.0042
1507.00,0.0053
1504.00,0.0060
1501.00,0.0093
1498.00,0.0205
1495.00,0.0516
1492.00,0.0645
1489.00,0.0388
1486.00,0.0205
1483.00,0.0129
1480.00,0.0092
1477.00,0.0075
1474.00,0.0073
1471.00,0.0076
1468.00,0.0079
1465.00,0.0087
1462.00,0.0106
1459.00,0.0153
1456.00,0.0389
1453.00,0.0638
1450.00,0.0623
1447.00,0.0476
1444.00,0.0371
1441.00,0.0289
1438.00,0.0231
1435.00,0.0167
1432.00,0.0126
1429.00,0.0101
1426.00,0.0090
1423.00,0.0079
1420.00,0.0070
1417.00,0.0068
1414.00,0.0066
1411.00,0.0061
1408.00,0.0058
1405.00,0.0062
1402.00,0.0061
1399.00,0.0059
1396.00,0.0064
1393.00,0.0073
1390.00,0.0081
1387.00,0.0095
1384.00,0.0110
1381.00,0.0124
1378.00,0.0134
1375.00,0.0145
1372.00,0.0149
1369.00,0.0148
1366.00,0.0143
1363.00,0.0141
1360.00,0.0135
1357.00,0.0129
1354.00,0.0125
1351.00,0.0124
1348.00,0.0122
1345.00,0.0118
1342.00,0.0112
1339.00,0.0109
1336.00,0.0109
1333.00,0.0117
1330.00,0.0125
1327.00,0.0126
1324.00,0.0121
1321.00,0.0118
1318.00,0.0119
1315.00,0.0123
1312.00,0.0125
1309.00,0.0121
1306.00,0.0116
1303.00,0.0111
1300.00,0.0107
1297.00,0.0107
1294.00,0.0108
1291.00,0.0107
1288.00,0.0102
1285.00,0.0099
1282.00,0.0097
1279.00,0.0094
1276.00,0.0089
1273.00,0.0084
1270.00,0.0079
1267.00,0.0075
1264.00,0.0072
1261.00,0.0070
1258.00,0.0069
1255.00,0.0069
1252.00,0.0070
1249.00,0.0071
1246.00,0.0072
1243.00,0.0072
1240.00,0.0071
1237.00,0.0071
1234.00,0.0070
1231.00,0.0070
1228.00,0.0071
1225.00,0.0071
1222.00,0.0071
1219.00,0.0070
1216.00,0.0071
1213.00,0.0074
1210.00,0.0077
1207.00,0.0082
1204.00,0.0089
1201.00,0.0096
1198.00,0.0102
1195.00,0.0104
1192.00,0.0105
1189.00,0.0109
1186.00,0.0119
1183.00,0.0137
1180.00,0.0139
1177.00,0.0115
1174.00,0.0094
1171.00,0.0086
1168.00,0.0084
1165.00,0.0085
1162.00,0.0091
1159.00,0.0110
1156.00,0.0136
1153.00,0.0135
1150.00,0.0104
1147.00,0.0080
1144.00,0.0069
1141.00,0.0063
1138.00,0.0059
1135.00,0.0056
1132.00,0.0056
1129.00,0.0056
1126.00,0.0056
1123.00,0.0058
1120.00,0.0062
1117.00,0.0069
1114.00,0.0073
1111.00,0.0075
1108.00,0.0074
1105.00,0.0072
1102.00,0.0074
1099.00,0.0076
1096.00,0.0079
1093.00,0.0083
1090.00,0.0087
1087.00,0.0094
1084.00,0.0104
1081.00,0.0115
1078.00,0.0128
1075.00,0.0147
1072.00,0.0169
1069.00,0.0182
1066.00,0.0175
1063.00,0.0155
1060.00,0.0137
1057.00,0.0122
1054.00,0.0113
1051.00,0.0104
1048.00,0.0098
1045.00,0.0094
1042.00,0.0094
1039.00,0.0102
1036.00,0.0138
1033.00,0.0217
1030.00,0.0300
1027.00,0.0315
1024.00,0.0254
1021.00,0.0199
1018.00,0.0166
1015.00,0.0144
1012.00,0.0130
1009.00,0.0122
1006.00,0.0127
1003.00,0.0133
1000.00,0.0115
997.00,0.0098
994.00,0.0093
991.00,0.0094
988.00,0.0099
985.00,0.0108
982.00,0.0116
979.00,0.0118
976.00,0.0112
973.00,0.0108
970.00,0.0112
967.00,0.0124
964.00,0.0130
961.00,0.0121
958.00,0.0104
955.00,0.0094
952.00,0.0092
949.00,0.0094
946.00,0.0099
943.00,0.0103
940.00,0.0099
937.00,0.0091
934.00,0.0080
931.00,0.0074
928.00,0.0072
925.00,0.0074
922.00,0.0078
919.00,0.0088
916.00,0.0108
913.00,0.0143
910.00,0.0188
907.00,0.0218
904.00,0.0205
901.00,0.0159
898.00,0.0115
895.00,0.0088
892.00,0.0074
889.00,0.0068
886.00,0.0064
883.00,0.0060
880.00,0.0057
877.00,0.0056
874.00,0.0054
871.00,0.0053
868.00,0.0052
865.00,0.0051
862.00,0.0052
859.00,0.0053
856.00,0.0055
853.00,0.0061
850.00,0.0074
847.00,0.0092
844.00,0.0108
841.00,0.0113
838.00,0.0102
835.00,0.0080
832.00,0.0064
829.00,0.0055
826.00,0.0051
823.00,0.0050
820.00,0.0050
817.00,0.0051
814.00,0.0053
811.00,0.0054
808.00,0.0056
805.00,0.0057
802.00,0.0059
799.00,0.0065
796.00,0.0075
793.00,0.0087
790.00,0.0104
787.00,0.0126
784.00,0.0151
781.00,0.0184
778.00,0.0234
775.00,0.0304
772.00,0.0397
769.00,0.0508
766.00,0.0623
763.00,0.0735
760.00,0.0852
757.00,0.0946
754.00,0.0971
751.00,0.0960
748.00,0.0947
745.00,0.0861
742.00,0.0678
739.00,0.0497
736.00,0.0357
733.00,0.0238
730.00,0.0160
727.00,0.0125
724.00,0.0112
721.00,0.0109
718.00,0.0116
715.00,0.0140
712.00,0.0208
709.00,0.0377
706.00,0.0717
703.00,0.1237
700.00,0.1894
697.00,0.2590
694.00,0.2813
691.00,0.2062
688.00,0.1286
685.00,0.0878
682.00,0.0664
679.00,0.0538
676.00,0.0458
673.00,0.0405
670.00,0.0369
667.00,0.0329
664.00,0.0287
661.00,0.0255
658.00,0.0227
655.00,0.0200
652.00,0.0180
649.00,0.0169
646.00,0.0156
643.00,0.0147
640.00,0.0144
637.00,0.0153
634.00,0.0164
631.00,0.0174
628.00,0.0184
625.00,0.0192
622.00,0.0200
619.00,0.0197
616.00,0.0181
613.00,0.0172
610.00,0.0164
607.00,0.0158
604.00,0.0156
601.00,0.0159
598.00,0.0166
595.00,0.0172
592.00,0.0180
589.00,0.0189
586.00,0.0198
583.00,0.0212
580.00,0.0233
577.00,0.0262
574.00,0.0301
571.00,0.0340
568.00,0.0379
565.00,0.0415
562.00,0.0448
559.00,0.0483
556.00,0.0523
553.00,0.0571
550.00,0.0623
547.00,0.0693
544.00,0.0785
541.00,0.0875
538.00,0.0921
535.00,0.0866
532.00,0.0734
529.00,0.0593
526.00,0.0471
523.00,0.0385
520.00,0.0330
517.00,0.0295
514.00,0.0266
511.00,0.0243
508.00,0.0222
505.00,0.0198
502.00,0.0179
499.00,0.0167
496.00,0.0159
493.00,0.0152
490.00,0.0145
487.00,0.0142
484.00,0.0130
481.00,0.0125
478.00,0.0124
475.00,0.0119
472.00,0.0114
469.00,0.0116
466.00,0.0108
463.00,0.0111
460.00,0.0113
457.00,0.0109
454.00,0.0107
451.00,0.0103
448.00,0.0104
445.00,0.0110
442.00,0.0111
439.00,0.0105
436.00,0.0105
433.00,0.0102
430.00,0.0095
427.00,0.0090
424.00,0.0094
421.00,0.0109
418.00,0.0108
415.00,0.0082
412.00,0.0080
409.00,0.0102
406.00,0.0114
403.00,0.0097
400.00,0.0091