File: FTIR/Olivia/2025_08_06_1CBN_3PVP90_MP_Powder_Scan2.csv
Created as New Dataset,Sample 003 By YargerLab Date Wednesday, August 06 2025
cm-1,A
4000.00,0.0025
3997.00,0.0024
3994.00,0.0024
3991.00,0.0025
3988.00,0.0025
3985.00,0.0025
3982.00,0.0025
3979.00,0.0024
3976.00,0.0024
3973.00,0.0025
3970.00,0.0025
3967.00,0.0025
3964.00,0.0025
3961.00,0.0025
3958.00,0.0025
3955.00,0.0024
3952.00,0.0024
3949.00,0.0024
3946.00,0.0025
3943.00,0.0025
3940.00,0.0025
3937.00,0.0025
3934.00,0.0025
3931.00,0.0025
3928.00,0.0025
3925.00,0.0025
3922.00,0.0025
3919.00,0.0025
3916.00,0.0025
3913.00,0.0025
3910.00,0.0025
3907.00,0.0025
3904.00,0.0025
3901.00,0.0025
3898.00,0.0024
3895.00,0.0024
3892.00,0.0025
3889.00,0.0025
3886.00,0.0024
3883.00,0.0024
3880.00,0.0024
3877.00,0.0025
3874.00,0.0025
3871.00,0.0025
3868.00,0.0024
3865.00,0.0024
3862.00,0.0024
3859.00,0.0024
3856.00,0.0025
3853.00,0.0025
3850.00,0.0025
3847.00,0.0024
3844.00,0.0025
3841.00,0.0025
3838.00,0.0024
3835.00,0.0024
3832.00,0.0024
3829.00,0.0025
3826.00,0.0024
3823.00,0.0024
3820.00,0.0024
3817.00,0.0025
3814.00,0.0024
3811.00,0.0024
3808.00,0.0024
3805.00,0.0024
3802.00,0.0025
3799.00,0.0025
3796.00,0.0024
3793.00,0.0024
3790.00,0.0024
3787.00,0.0024
3784.00,0.0024
3781.00,0.0025
3778.00,0.0024
3775.00,0.0024
3772.00,0.0024
3769.00,0.0025
3766.00,0.0025
3763.00,0.0025
3760.00,0.0024
3757.00,0.0024
3754.00,0.0025
3751.00,0.0024
3748.00,0.0024
3745.00,0.0024
3742.00,0.0024
3739.00,0.0023
3736.00,0.0023
3733.00,0.0023
3730.00,0.0022
3727.00,0.0022
3724.00,0.0022
3721.00,0.0023
3718.00,0.0022
3715.00,0.0022
3712.00,0.0022
3709.00,0.0022
3706.00,0.0022
3703.00,0.0022
3700.00,0.0022
3697.00,0.0022
3694.00,0.0022
3691.00,0.0022
3688.00,0.0022
3685.00,0.0023
3682.00,0.0022
3679.00,0.0022
3676.00,0.0022
3673.00,0.0022
3670.00,0.0022
3667.00,0.0022
3664.00,0.0021
3661.00,0.0022
3658.00,0.0022
3655.00,0.0021
3652.00,0.0022
3649.00,0.0021
3646.00,0.0021
3643.00,0.0021
3640.00,0.0020
3637.00,0.0020
3634.00,0.0020
3631.00,0.0020
3628.00,0.0019
3625.00,0.0021
3622.00,0.0021
3619.00,0.0021
3616.00,0.0021
3613.00,0.0020
3610.00,0.0021
3607.00,0.0020
3604.00,0.0020
3601.00,0.0019
3598.00,0.0020
3595.00,0.0020
3592.00,0.0020
3589.00,0.0020
3586.00,0.0019
3583.00,0.0019
3580.00,0.0019
3577.00,0.0019
3574.00,0.0019
3571.00,0.0019
3568.00,0.0020
3565.00,0.0020
3562.00,0.0020
3559.00,0.0021
3556.00,0.0021
3553.00,0.0021
3550.00,0.0021
3547.00,0.0021
3544.00,0.0021
3541.00,0.0022
3538.00,0.0023
3535.00,0.0023
3532.00,0.0024
3529.00,0.0024
3526.00,0.0025
3523.00,0.0025
3520.00,0.0026
3517.00,0.0026
3514.00,0.0026
3511.00,0.0027
3508.00,0.0028
3505.00,0.0029
3502.00,0.0029
3499.00,0.0030
3496.00,0.0031
3493.00,0.0031
3490.00,0.0032
3487.00,0.0034
3484.00,0.0035
3481.00,0.0036
3478.00,0.0037
3475.00,0.0038
3472.00,0.0039
3469.00,0.0041
3466.00,0.0043
3463.00,0.0045
3460.00,0.0046
3457.00,0.0048
3454.00,0.0051
3451.00,0.0053
3448.00,0.0055
3445.00,0.0057
3442.00,0.0060
3439.00,0.0063
3436.00,0.0065
3433.00,0.0068
3430.00,0.0072
3427.00,0.0075
3424.00,0.0079
3421.00,0.0083
3418.00,0.0087
3415.00,0.0089
3412.00,0.0093
3409.00,0.0096
3406.00,0.0098
3403.00,0.0100
3400.00,0.0101
3397.00,0.0101
3394.00,0.0101
3391.00,0.0100
3388.00,0.0099
3385.00,0.0097
3382.00,0.0095
3379.00,0.0092
3376.00,0.0090
3373.00,0.0088
3370.00,0.0087
3367.00,0.0085
3364.00,0.0083
3361.00,0.0081
3358.00,0.0080
3355.00,0.0079
3352.00,0.0078
3349.00,0.0077
3346.00,0.0076
3343.00,0.0075
3340.00,0.0075
3337.00,0.0074
3334.00,0.0074
3331.00,0.0075
3328.00,0.0074
3325.00,0.0074
3322.00,0.0075
3319.00,0.0075
3316.00,0.0075
3313.00,0.0076
3310.00,0.0077
3307.00,0.0079
3304.00,0.0080
3301.00,0.0080
3298.00,0.0082
3295.00,0.0083
3292.00,0.0084
3289.00,0.0085
3286.00,0.0087
3283.00,0.0089
3280.00,0.0090
3277.00,0.0091
3274.00,0.0093
3271.00,0.0095
3268.00,0.0096
3265.00,0.0098
3262.00,0.0100
3259.00,0.0101
3256.00,0.0103
3253.00,0.0105
3250.00,0.0106
3247.00,0.0107
3244.00,0.0109
3241.00,0.0111
3238.00,0.0111
3235.00,0.0111
3232.00,0.0112
3229.00,0.0112
3226.00,0.0113
3223.00,0.0113
3220.00,0.0112
3217.00,0.0111
3214.00,0.0110
3211.00,0.0109
3208.00,0.0108
3205.00,0.0106
3202.00,0.0105
3199.00,0.0104
3196.00,0.0102
3193.00,0.0099
3190.00,0.0097
3187.00,0.0096
3184.00,0.0094
3181.00,0.0092
3178.00,0.0091
3175.00,0.0088
3172.00,0.0086
3169.00,0.0084
3166.00,0.0082
3163.00,0.0080
3160.00,0.0077
3157.00,0.0075
3154.00,0.0072
3151.00,0.0070
3148.00,0.0069
3145.00,0.0067
3142.00,0.0065
3139.00,0.0064
3136.00,0.0063
3133.00,0.0061
3130.00,0.0060
3127.00,0.0059
3124.00,0.0057
3121.00,0.0056
3118.00,0.0055
3115.00,0.0054
3112.00,0.0052
3109.00,0.0051
3106.00,0.0050
3103.00,0.0049
3100.00,0.0048
3097.00,0.0048
3094.00,0.0048
3091.00,0.0048
3088.00,0.0049
3085.00,0.0049
3082.00,0.0049
3079.00,0.0049
3076.00,0.0048
3073.00,0.0047
3070.00,0.0047
3067.00,0.0047
3064.00,0.0047
3061.00,0.0047
3058.00,0.0047
3055.00,0.0047
3052.00,0.0047
3049.00,0.0047
3046.00,0.0047
3043.00,0.0046
3040.00,0.0047
3037.00,0.0049
3034.00,0.0050
3031.00,0.0050
3028.00,0.0049
3025.00,0.0047
3022.00,0.0045
3019.00,0.0044
3016.00,0.0043
3013.00,0.0043
3010.00,0.0044
3007.00,0.0045
3004.00,0.0048
3001.00,0.0051
2998.00,0.0057
2995.00,0.0063
2992.00,0.0067
2989.00,0.0071
2986.00,0.0075
2983.00,0.0085
2980.00,0.0097
2977.00,0.0103
2974.00,0.0111
2971.00,0.0126
2968.00,0.0136
2965.00,0.0143
2962.00,0.0151
2959.00,0.0152
2956.00,0.0142
2953.00,0.0128
2950.00,0.0119
2947.00,0.0118
2944.00,0.0126
2941.00,0.0139
2938.00,0.0159
2935.00,0.0187
2932.00,0.0220
2929.00,0.0248
2926.00,0.0258
2923.00,0.0248
2920.00,0.0227
2917.00,0.0204
2914.00,0.0182
2911.00,0.0164
2908.00,0.0150
2905.00,0.0138
2902.00,0.0128
2899.00,0.0120
2896.00,0.0112
2893.00,0.0105
2890.00,0.0100
2887.00,0.0096
2884.00,0.0094
2881.00,0.0096
2878.00,0.0103
2875.00,0.0114
2872.00,0.0120
2869.00,0.0120
2866.00,0.0122
2863.00,0.0136
2860.00,0.0161
2857.00,0.0181
2854.00,0.0186
2851.00,0.0177
2848.00,0.0151
2845.00,0.0124
2842.00,0.0102
2839.00,0.0087
2836.00,0.0078
2833.00,0.0072
2830.00,0.0067
2827.00,0.0063
2824.00,0.0060
2821.00,0.0057
2818.00,0.0055
2815.00,0.0053
2812.00,0.0052
2809.00,0.0051
2806.00,0.0050
2803.00,0.0049
2800.00,0.0048
2797.00,0.0047
2794.00,0.0047
2791.00,0.0046
2788.00,0.0044
2785.00,0.0044
2782.00,0.0043
2779.00,0.0042
2776.00,0.0042
2773.00,0.0042
2770.00,0.0041
2767.00,0.0041
2764.00,0.0041
2761.00,0.0041
2758.00,0.0041
2755.00,0.0041
2752.00,0.0041
2749.00,0.0041
2746.00,0.0041
2743.00,0.0042
2740.00,0.0042
2737.00,0.0043
2734.00,0.0044
2731.00,0.0045
2728.00,0.0045
2725.00,0.0044
2722.00,0.0043
2719.00,0.0043
2716.00,0.0043
2713.00,0.0042
2710.00,0.0042
2707.00,0.0042
2704.00,0.0042
2701.00,0.0041
2698.00,0.0041
2695.00,0.0041
2692.00,0.0040
2689.00,0.0040
2686.00,0.0039
2683.00,0.0039
2680.00,0.0039
2677.00,0.0039
2674.00,0.0039
2671.00,0.0040
2668.00,0.0040
2665.00,0.0041
2662.00,0.0043
2659.00,0.0043
2656.00,0.0044
2653.00,0.0044
2650.00,0.0044
2647.00,0.0044
2644.00,0.0044
2641.00,0.0043
2638.00,0.0043
2635.00,0.0043
2632.00,0.0042
2629.00,0.0041
2626.00,0.0041
2623.00,0.0040
2620.00,0.0039
2617.00,0.0039
2614.00,0.0039
2611.00,0.0039
2608.00,0.0039
2605.00,0.0039
2602.00,0.0039
2599.00,0.0040
2596.00,0.0040
2593.00,0.0038
2590.00,0.0039
2587.00,0.0040
2584.00,0.0039
2581.00,0.0038
2578.00,0.0038
2575.00,0.0039
2572.00,0.0038
2569.00,0.0037
2566.00,0.0037
2563.00,0.0037
2560.00,0.0037
2557.00,0.0036
2554.00,0.0035
2551.00,0.0035
2548.00,0.0035
2545.00,0.0035
2542.00,0.0035
2539.00,0.0035
2536.00,0.0036
2533.00,0.0035
2530.00,0.0035
2527.00,0.0035
2524.00,0.0034
2521.00,0.0033
2518.00,0.0032
2515.00,0.0033
2512.00,0.0033
2509.00,0.0032
2506.00,0.0032
2503.00,0.0032
2500.00,0.0031
2497.00,0.0031
2494.00,0.0031
2491.00,0.0031
2488.00,0.0031
2485.00,0.0031
2482.00,0.0031
2479.00,0.0030
2476.00,0.0030
2473.00,0.0030
2470.00,0.0030
2467.00,0.0030
2464.00,0.0030
2461.00,0.0031
2458.00,0.0032
2455.00,0.0031
2452.00,0.0031
2449.00,0.0030
2446.00,0.0030
2443.00,0.0029
2440.00,0.0029
2437.00,0.0029
2434.00,0.0029
2431.00,0.0029
2428.00,0.0028
2425.00,0.0028
2422.00,0.0029
2419.00,0.0028
2416.00,0.0028
2413.00,0.0028
2410.00,0.0029
2407.00,0.0027
2404.00,0.0027
2401.00,0.0027
2398.00,0.0027
2395.00,0.0026
2392.00,0.0026
2389.00,0.0026
2386.00,0.0026
2383.00,0.0024
2380.00,0.0021
2377.00,0.0020
2374.00,0.0020
2371.00,0.0021
2368.00,0.0019
2365.00,0.0020
2362.00,0.0020
2359.00,0.0020
2356.00,0.0020
2353.00,0.0021
2350.00,0.0020
2347.00,0.0022
2344.00,0.0022
2341.00,0.0022
2338.00,0.0024
2335.00,0.0024
2332.00,0.0025
2329.00,0.0026
2326.00,0.0035
2323.00,0.0034
2320.00,0.0029
2317.00,0.0028
2314.00,0.0028
2311.00,0.0026
2308.00,0.0025
2305.00,0.0025
2302.00,0.0027
2299.00,0.0028
2296.00,0.0030
2293.00,0.0033
2290.00,0.0035
2287.00,0.0035
2284.00,0.0034
2281.00,0.0033
2278.00,0.0033
2275.00,0.0032
2272.00,0.0030
2269.00,0.0031
2266.00,0.0030
2263.00,0.0028
2260.00,0.0027
2257.00,0.0026
2254.00,0.0024
2251.00,0.0025
2248.00,0.0026
2245.00,0.0027
2242.00,0.0028
2239.00,0.0029
2236.00,0.0029
2233.00,0.0029
2230.00,0.0028
2227.00,0.0029
2224.00,0.0029
2221.00,0.0026
2218.00,0.0027
2215.00,0.0027
2212.00,0.0026
2209.00,0.0027
2206.00,0.0028
2203.00,0.0028
2200.00,0.0027
2197.00,0.0025
2194.00,0.0027
2191.00,0.0027
2188.00,0.0028
2185.00,0.0027
2182.00,0.0025
2179.00,0.0026
2176.00,0.0021
2173.00,0.0024
2170.00,0.0033
2167.00,0.0034
2164.00,0.0036
2161.00,0.0020
2158.00,-0.0005
2155.00,0.0003
2152.00,0.0009
2149.00,0.0012
2146.00,0.0009
2143.00,0.0010
2140.00,0.0011
2137.00,0.0009
2134.00,0.0004
2131.00,0.0009
2128.00,0.0013
2125.00,0.0016
2122.00,0.0019
2119.00,0.0020
2116.00,0.0022
2113.00,0.0023
2110.00,0.0023
2107.00,0.0023
2104.00,0.0022
2101.00,0.0021
2098.00,0.0018
2095.00,0.0016
2092.00,0.0017
2089.00,0.0020
2086.00,0.0022
2083.00,0.0024
2080.00,0.0026
2077.00,0.0026
2074.00,0.0023
2071.00,0.0022
2068.00,0.0023
2065.00,0.0021
2062.00,0.0021
2059.00,0.0019
2056.00,0.0021
2053.00,0.0029
2050.00,0.0029
2047.00,0.0021
2044.00,0.0020
2041.00,0.0025
2038.00,0.0026
2035.00,0.0019
2032.00,0.0019
2029.00,0.0020
2026.00,0.0018
2023.00,0.0017
2020.00,0.0021
2017.00,0.0018
2014.00,0.0016
2011.00,0.0017
2008.00,0.0014
2005.00,0.0011
2002.00,0.0014
1999.00,0.0016
1996.00,0.0020
1993.00,0.0021
1990.00,0.0021
1987.00,0.0024
1984.00,0.0031
1981.00,0.0035
1978.00,0.0023
1975.00,0.0017
1972.00,0.0013
1969.00,0.0011
1966.00,0.0012
1963.00,0.0014
1960.00,0.0011
1957.00,0.0013
1954.00,0.0017
1951.00,0.0017
1948.00,0.0015
1945.00,0.0015
1942.00,0.0015
1939.00,0.0017
1936.00,0.0018
1933.00,0.0017
1930.00,0.0017
1927.00,0.0018
1924.00,0.0019
1921.00,0.0020
1918.00,0.0020
1915.00,0.0020
1912.00,0.0023
1909.00,0.0027
1906.00,0.0027
1903.00,0.0024
1900.00,0.0022
1897.00,0.0023
1894.00,0.0024
1891.00,0.0023
1888.00,0.0022
1885.00,0.0021
1882.00,0.0022
1879.00,0.0022
1876.00,0.0021
1873.00,0.0020
1870.00,0.0020
1867.00,0.0021
1864.00,0.0021
1861.00,0.0021
1858.00,0.0022
1855.00,0.0022
1852.00,0.0022
1849.00,0.0023
1846.00,0.0023
1843.00,0.0024
1840.00,0.0022
1837.00,0.0022
1834.00,0.0022
1831.00,0.0021
1828.00,0.0022
1825.00,0.0022
1822.00,0.0023
1819.00,0.0021
1816.00,0.0020
1813.00,0.0022
1810.00,0.0022
1807.00,0.0023
1804.00,0.0023
1801.00,0.0023
1798.00,0.0025
1795.00,0.0024
1792.00,0.0025
1789.00,0.0025
1786.00,0.0025
1783.00,0.0024
1780.00,0.0024
1777.00,0.0025
1774.00,0.0025
1771.00,0.0026
1768.00,0.0026
1765.00,0.0026
1762.00,0.0026
1759.00,0.0026
1756.00,0.0025
1753.00,0.0024
1750.00,0.0024
1747.00,0.0024
1744.00,0.0024
1741.00,0.0025
1738.00,0.0025
1735.00,0.0024
1732.00,0.0026
1729.00,0.0026
1726.00,0.0028
1723.00,0.0029
1720.00,0.0029
1717.00,0.0029
1714.00,0.0031
1711.00,0.0033
1708.00,0.0035
1705.00,0.0036
1702.00,0.0040
1699.00,0.0046
1696.00,0.0049
1693.00,0.0058
1690.00,0.0064
1687.00,0.0069
1684.00,0.0071
1681.00,0.0070
1678.00,0.0072
1675.00,0.0071
1672.00,0.0069
1669.00,0.0064
1666.00,0.0064
1663.00,0.0063
1660.00,0.0062
1657.00,0.0063
1654.00,0.0063
1651.00,0.0055
1648.00,0.0057
1645.00,0.0053
1642.00,0.0056
1639.00,0.0060
1636.00,0.0065
1633.00,0.0085
1630.00,0.0128
1627.00,0.0208
1624.00,0.0279
1621.00,0.0315
1618.00,0.0295
1615.00,0.0249
1612.00,0.0248
1609.00,0.0245
1606.00,0.0207
1603.00,0.0162
1600.00,0.0130
1597.00,0.0116
1594.00,0.0122
1591.00,0.0156
1588.00,0.0211
1585.00,0.0255
1582.00,0.0263
1579.00,0.0243
1576.00,0.0209
1573.00,0.0179
1570.00,0.0164
1567.00,0.0149
1564.00,0.0124
1561.00,0.0102
1558.00,0.0084
1555.00,0.0074
1552.00,0.0069
1549.00,0.0064
1546.00,0.0062
1543.00,0.0059
1540.00,0.0058
1537.00,0.0057
1534.00,0.0054
1531.00,0.0054
1528.00,0.0054
1525.00,0.0055
1522.00,0.0057
1519.00,0.0064
1516.00,0.0072
1513.00,0.0080
1510.00,0.0084
1507.00,0.0085
1504.00,0.0091
1501.00,0.0103
1498.00,0.0147
1495.00,0.0173
1492.00,0.0144
1489.00,0.0107
1486.00,0.0086
1483.00,0.0076
1480.00,0.0071
1477.00,0.0071
1474.00,0.0076
1471.00,0.0104
1468.00,0.0146
1465.00,0.0173
1462.00,0.0168
1459.00,0.0170
1456.00,0.0166
1453.00,0.0155
1450.00,0.0156
1447.00,0.0165
1444.00,0.0182
1441.00,0.0203
1438.00,0.0220
1435.00,0.0244
1432.00,0.0266
1429.00,0.0279
1426.00,0.0271
1423.00,0.0254
1420.00,0.0239
1417.00,0.0216
1414.00,0.0201
1411.00,0.0202
1408.00,0.0226
1405.00,0.0273
1402.00,0.0319
1399.00,0.0330
1396.00,0.0294
1393.00,0.0239
1390.00,0.0209
1387.00,0.0218
1384.00,0.0206
1381.00,0.0195
1378.00,0.0196
1375.00,0.0176
1372.00,0.0149
1369.00,0.0161
1366.00,0.0204
1363.00,0.0230
1360.00,0.0268
1357.00,0.0244
1354.00,0.0207
1351.00,0.0197
1348.00,0.0199
1345.00,0.0194
1342.00,0.0175
1339.00,0.0151
1336.00,0.0140
1333.00,0.0147
1330.00,0.0154
1327.00,0.0152
1324.00,0.0142
1321.00,0.0136
1318.00,0.0130
1315.00,0.0121
1312.00,0.0120
1309.00,0.0134
1306.00,0.0164
1303.00,0.0214
1300.00,0.0239
1297.00,0.0223
1294.00,0.0214
1291.00,0.0208
1288.00,0.0217
1285.00,0.0250
1282.00,0.0259
1279.00,0.0221
1276.00,0.0178
1273.00,0.0154
1270.00,0.0140
1267.00,0.0132
1264.00,0.0126
1261.00,0.0117
1258.00,0.0109
1255.00,0.0106
1252.00,0.0110
1249.00,0.0128
1246.00,0.0158
1243.00,0.0186
1240.00,0.0204
1237.00,0.0233
1234.00,0.0263
1231.00,0.0253
1228.00,0.0215
1225.00,0.0186
1222.00,0.0171
1219.00,0.0174
1216.00,0.0191
1213.00,0.0196
1210.00,0.0170
1207.00,0.0145
1204.00,0.0147
1201.00,0.0181
1198.00,0.0235
1195.00,0.0285
1192.00,0.0279
1189.00,0.0229
1186.00,0.0173
1183.00,0.0137
1180.00,0.0116
1177.00,0.0105
1174.00,0.0100
1171.00,0.0097
1168.00,0.0097
1165.00,0.0102
1162.00,0.0121
1159.00,0.0173
1156.00,0.0259
1153.00,0.0271
1150.00,0.0185
1147.00,0.0125
1144.00,0.0106
1141.00,0.0103
1138.00,0.0113
1135.00,0.0150
1132.00,0.0237
1129.00,0.0330
1126.00,0.0327
1123.00,0.0259
1120.00,0.0187
1117.00,0.0156
1114.00,0.0149
1111.00,0.0137
1108.00,0.0126
1105.00,0.0139
1102.00,0.0189
1099.00,0.0227
1096.00,0.0187
1093.00,0.0130
1090.00,0.0100
1087.00,0.0090
1084.00,0.0085
1081.00,0.0083
1078.00,0.0085
1075.00,0.0089
1072.00,0.0096
1069.00,0.0109
1066.00,0.0125
1063.00,0.0154
1060.00,0.0219
1057.00,0.0330
1054.00,0.0430
1051.00,0.0464
1048.00,0.0457
1045.00,0.0390
1042.00,0.0298
1039.00,0.0238
1036.00,0.0228
1033.00,0.0244
1030.00,0.0313
1027.00,0.0411
1024.00,0.0381
1021.00,0.0273
1018.00,0.0198
1015.00,0.0158
1012.00,0.0141
1009.00,0.0150
1006.00,0.0184
1003.00,0.0208
1000.00,0.0195
997.00,0.0176
994.00,0.0163
991.00,0.0144
988.00,0.0121
985.00,0.0106
982.00,0.0098
979.00,0.0096
976.00,0.0097
973.00,0.0096
970.00,0.0093
967.00,0.0093
964.00,0.0100
961.00,0.0101
958.00,0.0086
955.00,0.0073
952.00,0.0068
949.00,0.0072
946.00,0.0074
943.00,0.0077
940.00,0.0088
937.00,0.0097
934.00,0.0104
931.00,0.0107
928.00,0.0102
925.00,0.0108
922.00,0.0121
919.00,0.0110
916.00,0.0087
913.00,0.0075
910.00,0.0070
907.00,0.0072
904.00,0.0087
901.00,0.0117
898.00,0.0129
895.00,0.0109
892.00,0.0116
889.00,0.0129
886.00,0.0095
883.00,0.0084
880.00,0.0093
877.00,0.0127
874.00,0.0197
871.00,0.0277
868.00,0.0282
865.00,0.0227
862.00,0.0175
859.00,0.0144
856.00,0.0158
853.00,0.0197
850.00,0.0239
847.00,0.0236
844.00,0.0190
841.00,0.0168
838.00,0.0190
835.00,0.0244
832.00,0.0258
829.00,0.0208
826.00,0.0152
823.00,0.0186
820.00,0.0305
817.00,0.0356
814.00,0.0333
811.00,0.0185
808.00,0.0120
805.00,0.0096
802.00,0.0085
799.00,0.0080
796.00,0.0077
793.00,0.0074
790.00,0.0073
787.00,0.0072
784.00,0.0071
781.00,0.0073
778.00,0.0081
775.00,0.0108
772.00,0.0101
769.00,0.0082
766.00,0.0080
763.00,0.0086
760.00,0.0096
757.00,0.0095
754.00,0.0086
751.00,0.0084
748.00,0.0087
745.00,0.0090
742.00,0.0101
739.00,0.0131
736.00,0.0191
733.00,0.0204
730.00,0.0197
727.00,0.0190
724.00,0.0144
721.00,0.0122
718.00,0.0132
715.00,0.0155
712.00,0.0149
709.00,0.0132
706.00,0.0128
703.00,0.0135
700.00,0.0150
697.00,0.0155
694.00,0.0143
691.00,0.0149
688.00,0.0171
685.00,0.0157
682.00,0.0145
679.00,0.0151
676.00,0.0169
673.00,0.0195
670.00,0.0207
667.00,0.0199
664.00,0.0195
661.00,0.0201
658.00,0.0184
655.00,0.0165
652.00,0.0155
649.00,0.0152
646.00,0.0151
643.00,0.0148
640.00,0.0143
637.00,0.0141
634.00,0.0141
631.00,0.0143
628.00,0.0145
625.00,0.0158
622.00,0.0175
619.00,0.0186
616.00,0.0167
613.00,0.0143
610.00,0.0142
607.00,0.0178
604.00,0.0224
601.00,0.0246
598.00,0.0243
595.00,0.0239
592.00,0.0231
589.00,0.0217
586.00,0.0211
583.00,0.0212
580.00,0.0226
577.00,0.0262
574.00,0.0254
571.00,0.0213
568.00,0.0193
565.00,0.0201
562.00,0.0228
559.00,0.0248
556.00,0.0228
553.00,0.0213
550.00,0.0229
547.00,0.0259
544.00,0.0257
541.00,0.0230
538.00,0.0213
535.00,0.0215
532.00,0.0244
529.00,0.0243
526.00,0.0206
523.00,0.0181
520.00,0.0168
517.00,0.0156
514.00,0.0151
511.00,0.0155
508.00,0.0162
505.00,0.0166
502.00,0.0155
499.00,0.0143
496.00,0.0147
493.00,0.0156
490.00,0.0162
487.00,0.0155
484.00,0.0146
481.00,0.0142
478.00,0.0136
475.00,0.0124
472.00,0.0125
469.00,0.0131
466.00,0.0128
463.00,0.0127
460.00,0.0126
457.00,0.0126
454.00,0.0125
451.00,0.0132
448.00,0.0121
445.00,0.0128
442.00,0.0131
439.00,0.0127
436.00,0.0123
433.00,0.0121
430.00,0.0125
427.00,0.0120
424.00,0.0120
421.00,0.0105
418.00,0.0118
415.00,0.0123
412.00,0.0139
409.00,0.0142
406.00,0.0145
403.00,0.0132
400.00,0.0114