File: FTIR/Olivia/2025_08_01_1CBN_3PVP10_drybatchpowder_scan1.csv
Created as New Dataset,Sample 1012 By YargerLab Date Friday, August 01 2025
cm-1,A
4000.00,0.0093
3997.00,0.0093
3994.00,0.0092
3991.00,0.0092
3988.00,0.0092
3985.00,0.0092
3982.00,0.0093
3979.00,0.0092
3976.00,0.0092
3973.00,0.0093
3970.00,0.0093
3967.00,0.0093
3964.00,0.0092
3961.00,0.0092
3958.00,0.0092
3955.00,0.0093
3952.00,0.0092
3949.00,0.0092
3946.00,0.0092
3943.00,0.0093
3940.00,0.0093
3937.00,0.0093
3934.00,0.0093
3931.00,0.0093
3928.00,0.0093
3925.00,0.0093
3922.00,0.0093
3919.00,0.0093
3916.00,0.0093
3913.00,0.0092
3910.00,0.0092
3907.00,0.0093
3904.00,0.0094
3901.00,0.0095
3898.00,0.0093
3895.00,0.0093
3892.00,0.0093
3889.00,0.0094
3886.00,0.0094
3883.00,0.0094
3880.00,0.0093
3877.00,0.0093
3874.00,0.0094
3871.00,0.0094
3868.00,0.0094
3865.00,0.0094
3862.00,0.0093
3859.00,0.0093
3856.00,0.0095
3853.00,0.0095
3850.00,0.0094
3847.00,0.0092
3844.00,0.0094
3841.00,0.0095
3838.00,0.0094
3835.00,0.0094
3832.00,0.0093
3829.00,0.0093
3826.00,0.0093
3823.00,0.0094
3820.00,0.0094
3817.00,0.0094
3814.00,0.0093
3811.00,0.0092
3808.00,0.0092
3805.00,0.0094
3802.00,0.0093
3799.00,0.0094
3796.00,0.0092
3793.00,0.0092
3790.00,0.0091
3787.00,0.0091
3784.00,0.0091
3781.00,0.0092
3778.00,0.0092
3775.00,0.0091
3772.00,0.0092
3769.00,0.0093
3766.00,0.0092
3763.00,0.0092
3760.00,0.0093
3757.00,0.0093
3754.00,0.0095
3751.00,0.0095
3748.00,0.0095
3745.00,0.0094
3742.00,0.0095
3739.00,0.0094
3736.00,0.0094
3733.00,0.0093
3730.00,0.0092
3727.00,0.0091
3724.00,0.0091
3721.00,0.0091
3718.00,0.0090
3715.00,0.0091
3712.00,0.0092
3709.00,0.0091
3706.00,0.0090
3703.00,0.0090
3700.00,0.0090
3697.00,0.0090
3694.00,0.0091
3691.00,0.0093
3688.00,0.0093
3685.00,0.0093
3682.00,0.0093
3679.00,0.0095
3676.00,0.0095
3673.00,0.0097
3670.00,0.0096
3667.00,0.0095
3664.00,0.0095
3661.00,0.0095
3658.00,0.0097
3655.00,0.0099
3652.00,0.0102
3649.00,0.0103
3646.00,0.0103
3643.00,0.0102
3640.00,0.0103
3637.00,0.0104
3634.00,0.0107
3631.00,0.0110
3628.00,0.0111
3625.00,0.0112
3622.00,0.0113
3619.00,0.0115
3616.00,0.0118
3613.00,0.0120
3610.00,0.0122
3607.00,0.0123
3604.00,0.0125
3601.00,0.0127
3598.00,0.0130
3595.00,0.0132
3592.00,0.0135
3589.00,0.0138
3586.00,0.0141
3583.00,0.0142
3580.00,0.0145
3577.00,0.0148
3574.00,0.0151
3571.00,0.0155
3568.00,0.0158
3565.00,0.0162
3562.00,0.0164
3559.00,0.0167
3556.00,0.0170
3553.00,0.0173
3550.00,0.0177
3547.00,0.0181
3544.00,0.0183
3541.00,0.0185
3538.00,0.0188
3535.00,0.0191
3532.00,0.0194
3529.00,0.0196
3526.00,0.0199
3523.00,0.0202
3520.00,0.0204
3517.00,0.0206
3514.00,0.0208
3511.00,0.0210
3508.00,0.0212
3505.00,0.0214
3502.00,0.0217
3499.00,0.0219
3496.00,0.0221
3493.00,0.0222
3490.00,0.0223
3487.00,0.0225
3484.00,0.0228
3481.00,0.0230
3478.00,0.0231
3475.00,0.0233
3472.00,0.0236
3469.00,0.0239
3466.00,0.0241
3463.00,0.0242
3460.00,0.0245
3457.00,0.0247
3454.00,0.0249
3451.00,0.0251
3448.00,0.0253
3445.00,0.0256
3442.00,0.0258
3439.00,0.0260
3436.00,0.0263
3433.00,0.0267
3430.00,0.0269
3427.00,0.0271
3424.00,0.0274
3421.00,0.0277
3418.00,0.0280
3415.00,0.0283
3412.00,0.0286
3409.00,0.0287
3406.00,0.0288
3403.00,0.0289
3400.00,0.0290
3397.00,0.0289
3394.00,0.0288
3391.00,0.0286
3388.00,0.0284
3385.00,0.0282
3382.00,0.0279
3379.00,0.0277
3376.00,0.0274
3373.00,0.0271
3370.00,0.0269
3367.00,0.0266
3364.00,0.0264
3361.00,0.0262
3358.00,0.0260
3355.00,0.0258
3352.00,0.0255
3349.00,0.0254
3346.00,0.0252
3343.00,0.0250
3340.00,0.0249
3337.00,0.0248
3334.00,0.0248
3331.00,0.0247
3328.00,0.0245
3325.00,0.0244
3322.00,0.0245
3319.00,0.0246
3316.00,0.0246
3313.00,0.0245
3310.00,0.0243
3307.00,0.0243
3304.00,0.0245
3301.00,0.0246
3298.00,0.0246
3295.00,0.0245
3292.00,0.0246
3289.00,0.0248
3286.00,0.0249
3283.00,0.0249
3280.00,0.0248
3277.00,0.0248
3274.00,0.0247
3271.00,0.0247
3268.00,0.0248
3265.00,0.0249
3262.00,0.0249
3259.00,0.0248
3256.00,0.0247
3253.00,0.0247
3250.00,0.0246
3247.00,0.0245
3244.00,0.0245
3241.00,0.0244
3238.00,0.0244
3235.00,0.0241
3232.00,0.0240
3229.00,0.0239
3226.00,0.0237
3223.00,0.0234
3220.00,0.0233
3217.00,0.0230
3214.00,0.0228
3211.00,0.0225
3208.00,0.0222
3205.00,0.0219
3202.00,0.0216
3199.00,0.0214
3196.00,0.0211
3193.00,0.0208
3190.00,0.0205
3187.00,0.0202
3184.00,0.0200
3181.00,0.0197
3178.00,0.0194
3175.00,0.0191
3172.00,0.0189
3169.00,0.0186
3166.00,0.0184
3163.00,0.0181
3160.00,0.0178
3157.00,0.0175
3154.00,0.0173
3151.00,0.0171
3148.00,0.0169
3145.00,0.0166
3142.00,0.0164
3139.00,0.0162
3136.00,0.0161
3133.00,0.0159
3130.00,0.0157
3127.00,0.0155
3124.00,0.0154
3121.00,0.0152
3118.00,0.0151
3115.00,0.0150
3112.00,0.0148
3109.00,0.0147
3106.00,0.0145
3103.00,0.0144
3100.00,0.0142
3097.00,0.0141
3094.00,0.0140
3091.00,0.0140
3088.00,0.0140
3085.00,0.0139
3082.00,0.0139
3079.00,0.0138
3076.00,0.0137
3073.00,0.0136
3070.00,0.0135
3067.00,0.0134
3064.00,0.0134
3061.00,0.0133
3058.00,0.0133
3055.00,0.0132
3052.00,0.0132
3049.00,0.0131
3046.00,0.0131
3043.00,0.0131
3040.00,0.0130
3037.00,0.0131
3034.00,0.0132
3031.00,0.0132
3028.00,0.0131
3025.00,0.0130
3022.00,0.0129
3019.00,0.0128
3016.00,0.0128
3013.00,0.0129
3010.00,0.0131
3007.00,0.0134
3004.00,0.0137
3001.00,0.0143
2998.00,0.0151
2995.00,0.0160
2992.00,0.0169
2989.00,0.0177
2986.00,0.0185
2983.00,0.0194
2980.00,0.0207
2977.00,0.0216
2974.00,0.0223
2971.00,0.0238
2968.00,0.0250
2965.00,0.0259
2962.00,0.0270
2959.00,0.0276
2956.00,0.0271
2953.00,0.0261
2950.00,0.0253
2947.00,0.0249
2944.00,0.0250
2941.00,0.0254
2938.00,0.0264
2935.00,0.0282
2932.00,0.0306
2929.00,0.0328
2926.00,0.0339
2923.00,0.0333
2920.00,0.0319
2917.00,0.0302
2914.00,0.0284
2911.00,0.0269
2908.00,0.0257
2905.00,0.0247
2902.00,0.0240
2899.00,0.0235
2896.00,0.0231
2893.00,0.0228
2890.00,0.0224
2887.00,0.0222
2884.00,0.0220
2881.00,0.0219
2878.00,0.0222
2875.00,0.0228
2872.00,0.0232
2869.00,0.0231
2866.00,0.0229
2863.00,0.0234
2860.00,0.0249
2857.00,0.0262
2854.00,0.0262
2851.00,0.0252
2848.00,0.0231
2845.00,0.0210
2842.00,0.0192
2839.00,0.0180
2836.00,0.0172
2833.00,0.0166
2830.00,0.0160
2827.00,0.0156
2824.00,0.0152
2821.00,0.0148
2818.00,0.0145
2815.00,0.0143
2812.00,0.0141
2809.00,0.0139
2806.00,0.0138
2803.00,0.0136
2800.00,0.0135
2797.00,0.0134
2794.00,0.0133
2791.00,0.0132
2788.00,0.0131
2785.00,0.0130
2782.00,0.0129
2779.00,0.0129
2776.00,0.0128
2773.00,0.0127
2770.00,0.0127
2767.00,0.0126
2764.00,0.0126
2761.00,0.0125
2758.00,0.0126
2755.00,0.0125
2752.00,0.0125
2749.00,0.0125
2746.00,0.0125
2743.00,0.0125
2740.00,0.0125
2737.00,0.0126
2734.00,0.0126
2731.00,0.0127
2728.00,0.0127
2725.00,0.0126
2722.00,0.0125
2719.00,0.0125
2716.00,0.0125
2713.00,0.0124
2710.00,0.0124
2707.00,0.0124
2704.00,0.0123
2701.00,0.0123
2698.00,0.0122
2695.00,0.0123
2692.00,0.0122
2689.00,0.0121
2686.00,0.0121
2683.00,0.0121
2680.00,0.0121
2677.00,0.0121
2674.00,0.0121
2671.00,0.0121
2668.00,0.0121
2665.00,0.0122
2662.00,0.0123
2659.00,0.0124
2656.00,0.0125
2653.00,0.0124
2650.00,0.0124
2647.00,0.0124
2644.00,0.0124
2641.00,0.0124
2638.00,0.0124
2635.00,0.0124
2632.00,0.0123
2629.00,0.0121
2626.00,0.0121
2623.00,0.0121
2620.00,0.0120
2617.00,0.0119
2614.00,0.0120
2611.00,0.0120
2608.00,0.0119
2605.00,0.0119
2602.00,0.0119
2599.00,0.0119
2596.00,0.0119
2593.00,0.0119
2590.00,0.0119
2587.00,0.0119
2584.00,0.0119
2581.00,0.0120
2578.00,0.0119
2575.00,0.0118
2572.00,0.0118
2569.00,0.0118
2566.00,0.0118
2563.00,0.0118
2560.00,0.0117
2557.00,0.0116
2554.00,0.0117
2551.00,0.0117
2548.00,0.0115
2545.00,0.0116
2542.00,0.0116
2539.00,0.0115
2536.00,0.0115
2533.00,0.0116
2530.00,0.0115
2527.00,0.0114
2524.00,0.0114
2521.00,0.0113
2518.00,0.0113
2515.00,0.0113
2512.00,0.0113
2509.00,0.0113
2506.00,0.0112
2503.00,0.0111
2500.00,0.0112
2497.00,0.0113
2494.00,0.0113
2491.00,0.0112
2488.00,0.0112
2485.00,0.0111
2482.00,0.0111
2479.00,0.0111
2476.00,0.0111
2473.00,0.0111
2470.00,0.0111
2467.00,0.0110
2464.00,0.0110
2461.00,0.0111
2458.00,0.0111
2455.00,0.0111
2452.00,0.0112
2449.00,0.0112
2446.00,0.0111
2443.00,0.0112
2440.00,0.0111
2437.00,0.0110
2434.00,0.0110
2431.00,0.0109
2428.00,0.0110
2425.00,0.0110
2422.00,0.0110
2419.00,0.0110
2416.00,0.0109
2413.00,0.0109
2410.00,0.0110
2407.00,0.0109
2404.00,0.0109
2401.00,0.0109
2398.00,0.0109
2395.00,0.0109
2392.00,0.0108
2389.00,0.0109
2386.00,0.0108
2383.00,0.0108
2380.00,0.0107
2377.00,0.0108
2374.00,0.0108
2371.00,0.0108
2368.00,0.0108
2365.00,0.0108
2362.00,0.0110
2359.00,0.0109
2356.00,0.0109
2353.00,0.0109
2350.00,0.0110
2347.00,0.0111
2344.00,0.0112
2341.00,0.0112
2338.00,0.0112
2335.00,0.0111
2332.00,0.0111
2329.00,0.0113
2326.00,0.0122
2323.00,0.0122
2320.00,0.0118
2317.00,0.0116
2314.00,0.0116
2311.00,0.0115
2308.00,0.0114
2305.00,0.0114
2302.00,0.0114
2299.00,0.0116
2296.00,0.0117
2293.00,0.0119
2290.00,0.0120
2287.00,0.0121
2284.00,0.0119
2281.00,0.0118
2278.00,0.0118
2275.00,0.0117
2272.00,0.0116
2269.00,0.0114
2266.00,0.0113
2263.00,0.0113
2260.00,0.0115
2257.00,0.0113
2254.00,0.0109
2251.00,0.0111
2248.00,0.0112
2245.00,0.0113
2242.00,0.0113
2239.00,0.0113
2236.00,0.0111
2233.00,0.0112
2230.00,0.0112
2227.00,0.0111
2224.00,0.0112
2221.00,0.0113
2218.00,0.0114
2215.00,0.0114
2212.00,0.0115
2209.00,0.0113
2206.00,0.0112
2203.00,0.0112
2200.00,0.0113
2197.00,0.0112
2194.00,0.0116
2191.00,0.0117
2188.00,0.0115
2185.00,0.0114
2182.00,0.0109
2179.00,0.0111
2176.00,0.0109
2173.00,0.0111
2170.00,0.0116
2167.00,0.0121
2164.00,0.0122
2161.00,0.0113
2158.00,0.0088
2155.00,0.0092
2152.00,0.0097
2149.00,0.0098
2146.00,0.0097
2143.00,0.0098
2140.00,0.0097
2137.00,0.0096
2134.00,0.0094
2131.00,0.0098
2128.00,0.0102
2125.00,0.0105
2122.00,0.0106
2119.00,0.0108
2116.00,0.0112
2113.00,0.0112
2110.00,0.0110
2107.00,0.0111
2104.00,0.0111
2101.00,0.0110
2098.00,0.0106
2095.00,0.0103
2092.00,0.0105
2089.00,0.0107
2086.00,0.0107
2083.00,0.0109
2080.00,0.0110
2077.00,0.0110
2074.00,0.0110
2071.00,0.0111
2068.00,0.0108
2065.00,0.0107
2062.00,0.0106
2059.00,0.0106
2056.00,0.0104
2053.00,0.0111
2050.00,0.0115
2047.00,0.0108
2044.00,0.0108
2041.00,0.0108
2038.00,0.0106
2035.00,0.0103
2032.00,0.0099
2029.00,0.0099
2026.00,0.0098
2023.00,0.0099
2020.00,0.0098
2017.00,0.0097
2014.00,0.0097
2011.00,0.0100
2008.00,0.0095
2005.00,0.0089
2002.00,0.0092
1999.00,0.0095
1996.00,0.0098
1993.00,0.0097
1990.00,0.0100
1987.00,0.0104
1984.00,0.0110
1981.00,0.0114
1978.00,0.0100
1975.00,0.0093
1972.00,0.0094
1969.00,0.0094
1966.00,0.0091
1963.00,0.0092
1960.00,0.0091
1957.00,0.0090
1954.00,0.0091
1951.00,0.0091
1948.00,0.0092
1945.00,0.0090
1942.00,0.0091
1939.00,0.0093
1936.00,0.0092
1933.00,0.0092
1930.00,0.0094
1927.00,0.0092
1924.00,0.0093
1921.00,0.0096
1918.00,0.0095
1915.00,0.0095
1912.00,0.0097
1909.00,0.0100
1906.00,0.0099
1903.00,0.0097
1900.00,0.0097
1897.00,0.0097
1894.00,0.0098
1891.00,0.0098
1888.00,0.0096
1885.00,0.0095
1882.00,0.0096
1879.00,0.0096
1876.00,0.0095
1873.00,0.0096
1870.00,0.0095
1867.00,0.0095
1864.00,0.0095
1861.00,0.0096
1858.00,0.0096
1855.00,0.0096
1852.00,0.0095
1849.00,0.0095
1846.00,0.0096
1843.00,0.0096
1840.00,0.0094
1837.00,0.0095
1834.00,0.0095
1831.00,0.0094
1828.00,0.0093
1825.00,0.0093
1822.00,0.0094
1819.00,0.0093
1816.00,0.0091
1813.00,0.0093
1810.00,0.0093
1807.00,0.0093
1804.00,0.0094
1801.00,0.0094
1798.00,0.0094
1795.00,0.0094
1792.00,0.0093
1789.00,0.0092
1786.00,0.0093
1783.00,0.0094
1780.00,0.0093
1777.00,0.0093
1774.00,0.0094
1771.00,0.0093
1768.00,0.0092
1765.00,0.0093
1762.00,0.0094
1759.00,0.0094
1756.00,0.0095
1753.00,0.0094
1750.00,0.0094
1747.00,0.0094
1744.00,0.0095
1741.00,0.0095
1738.00,0.0095
1735.00,0.0095
1732.00,0.0096
1729.00,0.0101
1726.00,0.0104
1723.00,0.0108
1720.00,0.0108
1717.00,0.0109
1714.00,0.0113
1711.00,0.0120
1708.00,0.0127
1705.00,0.0136
1702.00,0.0145
1699.00,0.0168
1696.00,0.0197
1693.00,0.0238
1690.00,0.0287
1687.00,0.0338
1684.00,0.0402
1681.00,0.0466
1678.00,0.0526
1675.00,0.0588
1672.00,0.0646
1669.00,0.0708
1666.00,0.0767
1663.00,0.0819
1660.00,0.0869
1657.00,0.0908
1654.00,0.0930
1651.00,0.0949
1648.00,0.0955
1645.00,0.0938
1642.00,0.0919
1639.00,0.0885
1636.00,0.0824
1633.00,0.0766
1630.00,0.0736
1627.00,0.0724
1624.00,0.0720
1621.00,0.0699
1618.00,0.0647
1615.00,0.0570
1612.00,0.0542
1609.00,0.0514
1606.00,0.0464
1603.00,0.0413
1600.00,0.0370
1597.00,0.0340
1594.00,0.0326
1591.00,0.0332
1588.00,0.0357
1585.00,0.0377
1582.00,0.0373
1579.00,0.0354
1576.00,0.0321
1573.00,0.0297
1570.00,0.0283
1567.00,0.0270
1564.00,0.0252
1561.00,0.0232
1558.00,0.0210
1555.00,0.0205
1552.00,0.0203
1549.00,0.0200
1546.00,0.0194
1543.00,0.0188
1540.00,0.0180
1537.00,0.0179
1534.00,0.0179
1531.00,0.0176
1528.00,0.0175
1525.00,0.0174
1522.00,0.0172
1519.00,0.0175
1516.00,0.0182
1513.00,0.0189
1510.00,0.0196
1507.00,0.0204
1504.00,0.0226
1501.00,0.0260
1498.00,0.0315
1495.00,0.0357
1492.00,0.0339
1489.00,0.0291
1486.00,0.0251
1483.00,0.0226
1480.00,0.0213
1477.00,0.0214
1474.00,0.0230
1471.00,0.0288
1468.00,0.0370
1465.00,0.0459
1462.00,0.0503
1459.00,0.0496
1456.00,0.0432
1453.00,0.0396
1450.00,0.0397
1447.00,0.0438
1444.00,0.0501
1441.00,0.0565
1438.00,0.0598
1435.00,0.0611
1432.00,0.0618
1429.00,0.0638
1426.00,0.0676
1423.00,0.0704
1420.00,0.0675
1417.00,0.0578
1414.00,0.0493
1411.00,0.0430
1408.00,0.0403
1405.00,0.0406
1402.00,0.0418
1399.00,0.0412
1396.00,0.0382
1393.00,0.0345
1390.00,0.0328
1387.00,0.0341
1384.00,0.0346
1381.00,0.0353
1378.00,0.0366
1375.00,0.0361
1372.00,0.0345
1369.00,0.0345
1366.00,0.0361
1363.00,0.0361
1360.00,0.0373
1357.00,0.0348
1354.00,0.0317
1351.00,0.0304
1348.00,0.0302
1345.00,0.0298
1342.00,0.0287
1339.00,0.0273
1336.00,0.0270
1333.00,0.0281
1330.00,0.0298
1327.00,0.0317
1324.00,0.0335
1321.00,0.0355
1318.00,0.0364
1315.00,0.0355
1312.00,0.0336
1309.00,0.0327
1306.00,0.0339
1303.00,0.0384
1300.00,0.0448
1297.00,0.0521
1294.00,0.0624
1291.00,0.0716
1288.00,0.0767
1285.00,0.0778
1282.00,0.0752
1279.00,0.0716
1276.00,0.0701
1273.00,0.0696
1270.00,0.0669
1267.00,0.0619
1264.00,0.0558
1261.00,0.0499
1258.00,0.0452
1255.00,0.0417
1252.00,0.0395
1249.00,0.0388
1246.00,0.0398
1243.00,0.0414
1240.00,0.0427
1237.00,0.0454
1234.00,0.0485
1231.00,0.0488
1228.00,0.0468
1225.00,0.0450
1222.00,0.0442
1219.00,0.0445
1216.00,0.0454
1213.00,0.0451
1210.00,0.0424
1207.00,0.0395
1204.00,0.0382
1201.00,0.0390
1198.00,0.0415
1195.00,0.0442
1192.00,0.0436
1189.00,0.0402
1186.00,0.0367
1183.00,0.0343
1180.00,0.0333
1177.00,0.0333
1174.00,0.0337
1171.00,0.0341
1168.00,0.0341
1165.00,0.0337
1162.00,0.0337
1159.00,0.0360
1156.00,0.0409
1153.00,0.0412
1150.00,0.0352
1147.00,0.0309
1144.00,0.0291
1141.00,0.0284
1138.00,0.0284
1135.00,0.0301
1132.00,0.0358
1129.00,0.0419
1126.00,0.0417
1123.00,0.0374
1120.00,0.0332
1117.00,0.0313
1114.00,0.0309
1111.00,0.0302
1108.00,0.0294
1105.00,0.0299
1102.00,0.0332
1099.00,0.0361
1096.00,0.0337
1093.00,0.0302
1090.00,0.0284
1087.00,0.0275
1084.00,0.0271
1081.00,0.0270
1078.00,0.0273
1075.00,0.0276
1072.00,0.0277
1069.00,0.0280
1066.00,0.0285
1063.00,0.0300
1060.00,0.0340
1057.00,0.0414
1054.00,0.0479
1051.00,0.0494
1048.00,0.0485
1045.00,0.0441
1042.00,0.0384
1039.00,0.0346
1036.00,0.0339
1033.00,0.0349
1030.00,0.0394
1027.00,0.0463
1024.00,0.0455
1021.00,0.0400
1018.00,0.0361
1015.00,0.0331
1012.00,0.0307
1009.00,0.0303
1006.00,0.0328
1003.00,0.0354
1000.00,0.0346
997.00,0.0326
994.00,0.0310
991.00,0.0293
988.00,0.0276
985.00,0.0266
982.00,0.0259
979.00,0.0254
976.00,0.0251
973.00,0.0249
970.00,0.0246
967.00,0.0245
964.00,0.0248
961.00,0.0248
958.00,0.0239
955.00,0.0231
952.00,0.0226
949.00,0.0227
946.00,0.0228
943.00,0.0231
940.00,0.0243
937.00,0.0257
934.00,0.0268
931.00,0.0268
928.00,0.0258
925.00,0.0257
922.00,0.0264
919.00,0.0257
916.00,0.0241
913.00,0.0233
910.00,0.0230
907.00,0.0231
904.00,0.0239
901.00,0.0262
898.00,0.0277
895.00,0.0265
892.00,0.0266
889.00,0.0272
886.00,0.0246
883.00,0.0235
880.00,0.0236
877.00,0.0253
874.00,0.0298
871.00,0.0352
868.00,0.0361
865.00,0.0331
862.00,0.0304
859.00,0.0291
856.00,0.0307
853.00,0.0343
850.00,0.0382
847.00,0.0393
844.00,0.0368
841.00,0.0350
838.00,0.0356
835.00,0.0384
832.00,0.0390
829.00,0.0354
826.00,0.0310
823.00,0.0322
820.00,0.0391
817.00,0.0415
814.00,0.0413
811.00,0.0328
808.00,0.0291
805.00,0.0276
802.00,0.0271
799.00,0.0269
796.00,0.0267
793.00,0.0267
790.00,0.0270
787.00,0.0272
784.00,0.0275
781.00,0.0278
778.00,0.0286
775.00,0.0303
772.00,0.0306
769.00,0.0301
766.00,0.0305
763.00,0.0313
760.00,0.0328
757.00,0.0338
754.00,0.0345
751.00,0.0354
748.00,0.0365
745.00,0.0378
742.00,0.0393
739.00,0.0419
736.00,0.0465
733.00,0.0480
730.00,0.0467
727.00,0.0458
724.00,0.0426
721.00,0.0408
718.00,0.0408
715.00,0.0422
712.00,0.0422
709.00,0.0414
706.00,0.0412
703.00,0.0419
700.00,0.0432
697.00,0.0442
694.00,0.0440
691.00,0.0446
688.00,0.0467
685.00,0.0471
682.00,0.0471
679.00,0.0480
676.00,0.0499
673.00,0.0523
670.00,0.0542
667.00,0.0549
664.00,0.0563
661.00,0.0584
658.00,0.0593
655.00,0.0602
652.00,0.0616
649.00,0.0627
646.00,0.0630
643.00,0.0625
640.00,0.0615
637.00,0.0605
634.00,0.0597
631.00,0.0591
628.00,0.0587
625.00,0.0588
622.00,0.0597
619.00,0.0604
616.00,0.0597
613.00,0.0586
610.00,0.0586
607.00,0.0605
604.00,0.0633
601.00,0.0648
598.00,0.0655
595.00,0.0659
592.00,0.0665
589.00,0.0670
586.00,0.0679
583.00,0.0697
580.00,0.0720
577.00,0.0754
574.00,0.0762
571.00,0.0741
568.00,0.0726
565.00,0.0725
562.00,0.0736
559.00,0.0742
556.00,0.0725
553.00,0.0708
550.00,0.0714
547.00,0.0731
544.00,0.0732
541.00,0.0711
538.00,0.0702
535.00,0.0702
532.00,0.0717
529.00,0.0720
526.00,0.0703
523.00,0.0693
520.00,0.0680
517.00,0.0676
514.00,0.0673
511.00,0.0672
508.00,0.0673
505.00,0.0679
502.00,0.0670
499.00,0.0672
496.00,0.0673
493.00,0.0681
490.00,0.0682
487.00,0.0683
484.00,0.0679
481.00,0.0677
478.00,0.0673
475.00,0.0669
472.00,0.0672
469.00,0.0674
466.00,0.0669
463.00,0.0667
460.00,0.0659
457.00,0.0662
454.00,0.0657
451.00,0.0642
448.00,0.0634
445.00,0.0637
442.00,0.0626
439.00,0.0620
436.00,0.0615
433.00,0.0607
430.00,0.0600
427.00,0.0593
424.00,0.0581
421.00,0.0570
418.00,0.0551
415.00,0.0575
412.00,0.0575
409.00,0.0597
406.00,0.0572
403.00,0.0548
400.00,0.0569