File: FTIR/Olivia/2025_07_23_Polystyrene_Std_scan3.csv
Created as New Dataset,Sample 880 By YargerLab Date Wednesday, July 23 2025
cm-1,A
4000.00,0.0009
3997.00,0.0008
3994.00,0.0008
3991.00,0.0008
3988.00,0.0008
3985.00,0.0008
3982.00,0.0008
3979.00,0.0007
3976.00,0.0008
3973.00,0.0008
3970.00,0.0008
3967.00,0.0008
3964.00,0.0007
3961.00,0.0007
3958.00,0.0008
3955.00,0.0008
3952.00,0.0007
3949.00,0.0007
3946.00,0.0007
3943.00,0.0007
3940.00,0.0008
3937.00,0.0008
3934.00,0.0008
3931.00,0.0007
3928.00,0.0007
3925.00,0.0008
3922.00,0.0008
3919.00,0.0008
3916.00,0.0008
3913.00,0.0008
3910.00,0.0008
3907.00,0.0007
3904.00,0.0008
3901.00,0.0008
3898.00,0.0008
3895.00,0.0008
3892.00,0.0008
3889.00,0.0008
3886.00,0.0007
3883.00,0.0006
3880.00,0.0007
3877.00,0.0007
3874.00,0.0008
3871.00,0.0008
3868.00,0.0008
3865.00,0.0009
3862.00,0.0008
3859.00,0.0008
3856.00,0.0010
3853.00,0.0010
3850.00,0.0009
3847.00,0.0008
3844.00,0.0008
3841.00,0.0009
3838.00,0.0009
3835.00,0.0008
3832.00,0.0008
3829.00,0.0008
3826.00,0.0008
3823.00,0.0008
3820.00,0.0008
3817.00,0.0009
3814.00,0.0009
3811.00,0.0009
3808.00,0.0009
3805.00,0.0009
3802.00,0.0008
3799.00,0.0008
3796.00,0.0008
3793.00,0.0008
3790.00,0.0008
3787.00,0.0007
3784.00,0.0008
3781.00,0.0008
3778.00,0.0008
3775.00,0.0008
3772.00,0.0008
3769.00,0.0009
3766.00,0.0009
3763.00,0.0009
3760.00,0.0008
3757.00,0.0008
3754.00,0.0009
3751.00,0.0010
3748.00,0.0010
3745.00,0.0010
3742.00,0.0009
3739.00,0.0007
3736.00,0.0007
3733.00,0.0008
3730.00,0.0008
3727.00,0.0007
3724.00,0.0008
3721.00,0.0007
3718.00,0.0007
3715.00,0.0007
3712.00,0.0007
3709.00,0.0007
3706.00,0.0007
3703.00,0.0007
3700.00,0.0007
3697.00,0.0007
3694.00,0.0007
3691.00,0.0006
3688.00,0.0007
3685.00,0.0007
3682.00,0.0007
3679.00,0.0008
3676.00,0.0009
3673.00,0.0009
3670.00,0.0009
3667.00,0.0009
3664.00,0.0008
3661.00,0.0008
3658.00,0.0008
3655.00,0.0009
3652.00,0.0009
3649.00,0.0010
3646.00,0.0010
3643.00,0.0009
3640.00,0.0009
3637.00,0.0008
3634.00,0.0009
3631.00,0.0009
3628.00,0.0008
3625.00,0.0008
3622.00,0.0008
3619.00,0.0007
3616.00,0.0008
3613.00,0.0008
3610.00,0.0009
3607.00,0.0008
3604.00,0.0008
3601.00,0.0009
3598.00,0.0009
3595.00,0.0010
3592.00,0.0010
3589.00,0.0009
3586.00,0.0010
3583.00,0.0010
3580.00,0.0010
3577.00,0.0009
3574.00,0.0009
3571.00,0.0009
3568.00,0.0009
3565.00,0.0009
3562.00,0.0009
3559.00,0.0010
3556.00,0.0011
3553.00,0.0011
3550.00,0.0011
3547.00,0.0011
3544.00,0.0012
3541.00,0.0012
3538.00,0.0013
3535.00,0.0013
3532.00,0.0013
3529.00,0.0013
3526.00,0.0013
3523.00,0.0013
3520.00,0.0013
3517.00,0.0014
3514.00,0.0014
3511.00,0.0014
3508.00,0.0014
3505.00,0.0013
3502.00,0.0014
3499.00,0.0015
3496.00,0.0014
3493.00,0.0014
3490.00,0.0015
3487.00,0.0014
3484.00,0.0014
3481.00,0.0014
3478.00,0.0014
3475.00,0.0015
3472.00,0.0015
3469.00,0.0015
3466.00,0.0015
3463.00,0.0015
3460.00,0.0015
3457.00,0.0015
3454.00,0.0015
3451.00,0.0016
3448.00,0.0016
3445.00,0.0016
3442.00,0.0017
3439.00,0.0016
3436.00,0.0016
3433.00,0.0016
3430.00,0.0016
3427.00,0.0016
3424.00,0.0015
3421.00,0.0015
3418.00,0.0015
3415.00,0.0015
3412.00,0.0016
3409.00,0.0015
3406.00,0.0015
3403.00,0.0015
3400.00,0.0015
3397.00,0.0015
3394.00,0.0015
3391.00,0.0015
3388.00,0.0016
3385.00,0.0015
3382.00,0.0015
3379.00,0.0015
3376.00,0.0016
3373.00,0.0015
3370.00,0.0015
3367.00,0.0014
3364.00,0.0014
3361.00,0.0015
3358.00,0.0015
3355.00,0.0015
3352.00,0.0014
3349.00,0.0014
3346.00,0.0014
3343.00,0.0014
3340.00,0.0014
3337.00,0.0014
3334.00,0.0014
3331.00,0.0014
3328.00,0.0015
3325.00,0.0014
3322.00,0.0014
3319.00,0.0015
3316.00,0.0015
3313.00,0.0015
3310.00,0.0014
3307.00,0.0014
3304.00,0.0014
3301.00,0.0014
3298.00,0.0014
3295.00,0.0013
3292.00,0.0014
3289.00,0.0013
3286.00,0.0014
3283.00,0.0014
3280.00,0.0014
3277.00,0.0014
3274.00,0.0013
3271.00,0.0013
3268.00,0.0013
3265.00,0.0013
3262.00,0.0013
3259.00,0.0013
3256.00,0.0013
3253.00,0.0013
3250.00,0.0013
3247.00,0.0012
3244.00,0.0013
3241.00,0.0012
3238.00,0.0012
3235.00,0.0012
3232.00,0.0012
3229.00,0.0012
3226.00,0.0012
3223.00,0.0012
3220.00,0.0012
3217.00,0.0012
3214.00,0.0012
3211.00,0.0013
3208.00,0.0014
3205.00,0.0014
3202.00,0.0014
3199.00,0.0014
3196.00,0.0013
3193.00,0.0013
3190.00,0.0013
3187.00,0.0012
3184.00,0.0012
3181.00,0.0012
3178.00,0.0013
3175.00,0.0012
3172.00,0.0012
3169.00,0.0013
3166.00,0.0013
3163.00,0.0013
3160.00,0.0013
3157.00,0.0012
3154.00,0.0012
3151.00,0.0012
3148.00,0.0012
3145.00,0.0011
3142.00,0.0011
3139.00,0.0011
3136.00,0.0011
3133.00,0.0011
3130.00,0.0011
3127.00,0.0011
3124.00,0.0012
3121.00,0.0013
3118.00,0.0014
3115.00,0.0017
3112.00,0.0021
3109.00,0.0027
3106.00,0.0032
3103.00,0.0033
3100.00,0.0032
3097.00,0.0031
3094.00,0.0035
3091.00,0.0045
3088.00,0.0063
3085.00,0.0080
3082.00,0.0084
3079.00,0.0075
3076.00,0.0065
3073.00,0.0063
3070.00,0.0069
3067.00,0.0084
3064.00,0.0104
3061.00,0.0116
3058.00,0.0111
3055.00,0.0093
3052.00,0.0076
3049.00,0.0065
3046.00,0.0060
3043.00,0.0063
3040.00,0.0073
3037.00,0.0093
3034.00,0.0125
3031.00,0.0170
3028.00,0.0212
3025.00,0.0221
3022.00,0.0183
3019.00,0.0128
3016.00,0.0086
3013.00,0.0064
3010.00,0.0057
3007.00,0.0059
3004.00,0.0065
3001.00,0.0065
2998.00,0.0055
2995.00,0.0044
2992.00,0.0036
2989.00,0.0035
2986.00,0.0034
2983.00,0.0033
2980.00,0.0033
2977.00,0.0034
2974.00,0.0036
2971.00,0.0037
2968.00,0.0040
2965.00,0.0045
2962.00,0.0050
2959.00,0.0057
2956.00,0.0065
2953.00,0.0074
2950.00,0.0087
2947.00,0.0103
2944.00,0.0121
2941.00,0.0142
2938.00,0.0168
2935.00,0.0197
2932.00,0.0225
2929.00,0.0251
2926.00,0.0269
2923.00,0.0276
2920.00,0.0274
2917.00,0.0264
2914.00,0.0248
2911.00,0.0228
2908.00,0.0208
2905.00,0.0188
2902.00,0.0167
2899.00,0.0147
2896.00,0.0130
2893.00,0.0118
2890.00,0.0108
2887.00,0.0101
2884.00,0.0093
2881.00,0.0086
2878.00,0.0080
2875.00,0.0075
2872.00,0.0071
2869.00,0.0071
2866.00,0.0074
2863.00,0.0081
2860.00,0.0091
2857.00,0.0104
2854.00,0.0116
2851.00,0.0123
2848.00,0.0121
2845.00,0.0109
2842.00,0.0089
2839.00,0.0068
2836.00,0.0052
2833.00,0.0041
2830.00,0.0035
2827.00,0.0031
2824.00,0.0029
2821.00,0.0028
2818.00,0.0027
2815.00,0.0026
2812.00,0.0026
2809.00,0.0024
2806.00,0.0024
2803.00,0.0023
2800.00,0.0022
2797.00,0.0021
2794.00,0.0020
2791.00,0.0020
2788.00,0.0020
2785.00,0.0020
2782.00,0.0020
2779.00,0.0020
2776.00,0.0019
2773.00,0.0018
2770.00,0.0018
2767.00,0.0018
2764.00,0.0017
2761.00,0.0018
2758.00,0.0018
2755.00,0.0017
2752.00,0.0017
2749.00,0.0016
2746.00,0.0017
2743.00,0.0017
2740.00,0.0016
2737.00,0.0016
2734.00,0.0017
2731.00,0.0017
2728.00,0.0017
2725.00,0.0017
2722.00,0.0017
2719.00,0.0017
2716.00,0.0017
2713.00,0.0016
2710.00,0.0016
2707.00,0.0016
2704.00,0.0016
2701.00,0.0016
2698.00,0.0016
2695.00,0.0016
2692.00,0.0016
2689.00,0.0016
2686.00,0.0016
2683.00,0.0016
2680.00,0.0016
2677.00,0.0016
2674.00,0.0016
2671.00,0.0016
2668.00,0.0016
2665.00,0.0018
2662.00,0.0019
2659.00,0.0020
2656.00,0.0020
2653.00,0.0021
2650.00,0.0021
2647.00,0.0021
2644.00,0.0021
2641.00,0.0022
2638.00,0.0022
2635.00,0.0022
2632.00,0.0021
2629.00,0.0021
2626.00,0.0020
2623.00,0.0020
2620.00,0.0020
2617.00,0.0019
2614.00,0.0019
2611.00,0.0018
2608.00,0.0018
2605.00,0.0019
2602.00,0.0019
2599.00,0.0018
2596.00,0.0017
2593.00,0.0016
2590.00,0.0016
2587.00,0.0016
2584.00,0.0015
2581.00,0.0015
2578.00,0.0015
2575.00,0.0015
2572.00,0.0013
2569.00,0.0014
2566.00,0.0013
2563.00,0.0014
2560.00,0.0014
2557.00,0.0013
2554.00,0.0013
2551.00,0.0013
2548.00,0.0012
2545.00,0.0012
2542.00,0.0012
2539.00,0.0011
2536.00,0.0011
2533.00,0.0011
2530.00,0.0012
2527.00,0.0012
2524.00,0.0013
2521.00,0.0013
2518.00,0.0013
2515.00,0.0013
2512.00,0.0012
2509.00,0.0012
2506.00,0.0012
2503.00,0.0013
2500.00,0.0012
2497.00,0.0012
2494.00,0.0011
2491.00,0.0010
2488.00,0.0009
2485.00,0.0010
2482.00,0.0010
2479.00,0.0010
2476.00,0.0010
2473.00,0.0009
2470.00,0.0009
2467.00,0.0010
2464.00,0.0010
2461.00,0.0010
2458.00,0.0011
2455.00,0.0010
2452.00,0.0010
2449.00,0.0011
2446.00,0.0010
2443.00,0.0009
2440.00,0.0009
2437.00,0.0009
2434.00,0.0007
2431.00,0.0008
2428.00,0.0007
2425.00,0.0007
2422.00,0.0007
2419.00,0.0007
2416.00,0.0006
2413.00,0.0006
2410.00,0.0006
2407.00,0.0004
2404.00,0.0005
2401.00,0.0006
2398.00,0.0005
2395.00,0.0006
2392.00,0.0006
2389.00,0.0006
2386.00,0.0005
2383.00,0.0006
2380.00,0.0006
2377.00,0.0006
2374.00,0.0007
2371.00,0.0006
2368.00,0.0007
2365.00,0.0007
2362.00,0.0009
2359.00,0.0010
2356.00,0.0010
2353.00,0.0010
2350.00,0.0010
2347.00,0.0013
2344.00,0.0014
2341.00,0.0015
2338.00,0.0016
2335.00,0.0014
2332.00,0.0014
2329.00,0.0017
2326.00,0.0027
2323.00,0.0026
2320.00,0.0022
2317.00,0.0021
2314.00,0.0021
2311.00,0.0019
2308.00,0.0017
2305.00,0.0016
2302.00,0.0016
2299.00,0.0016
2296.00,0.0018
2293.00,0.0021
2290.00,0.0022
2287.00,0.0022
2284.00,0.0020
2281.00,0.0018
2278.00,0.0016
2275.00,0.0014
2272.00,0.0014
2269.00,0.0012
2266.00,0.0010
2263.00,0.0010
2260.00,0.0012
2257.00,0.0011
2254.00,0.0009
2251.00,0.0010
2248.00,0.0011
2245.00,0.0011
2242.00,0.0010
2239.00,0.0008
2236.00,0.0009
2233.00,0.0008
2230.00,0.0007
2227.00,0.0009
2224.00,0.0009
2221.00,0.0009
2218.00,0.0010
2215.00,0.0010
2212.00,0.0011
2209.00,0.0009
2206.00,0.0007
2203.00,0.0006
2200.00,0.0010
2197.00,0.0011
2194.00,0.0012
2191.00,0.0012
2188.00,0.0012
2185.00,0.0010
2182.00,0.0004
2179.00,0.0008
2176.00,0.0004
2173.00,0.0006
2170.00,0.0012
2167.00,0.0014
2164.00,0.0018
2161.00,0.0001
2158.00,-0.0034
2155.00,-0.0024
2152.00,-0.0018
2149.00,-0.0014
2146.00,-0.0014
2143.00,-0.0012
2140.00,-0.0009
2137.00,-0.0014
2134.00,-0.0019
2131.00,-0.0015
2128.00,-0.0010
2125.00,-0.0005
2122.00,-0.0002
2119.00,0.0000
2116.00,0.0003
2113.00,0.0005
2110.00,0.0004
2107.00,0.0003
2104.00,0.0004
2101.00,0.0005
2098.00,0.0002
2095.00,-0.0002
2092.00,0.0002
2089.00,0.0004
2086.00,0.0003
2083.00,0.0006
2080.00,0.0007
2077.00,0.0005
2074.00,0.0004
2071.00,0.0002
2068.00,0.0003
2065.00,0.0001
2062.00,0.0001
2059.00,0.0000
2056.00,-0.0001
2053.00,0.0007
2050.00,0.0007
2047.00,0.0001
2044.00,0.0004
2041.00,0.0002
2038.00,0.0005
2035.00,0.0003
2032.00,-0.0000
2029.00,-0.0001
2026.00,-0.0004
2023.00,-0.0007
2020.00,-0.0006
2017.00,-0.0004
2014.00,-0.0006
2011.00,-0.0007
2008.00,-0.0011
2005.00,-0.0019
2002.00,-0.0009
1999.00,-0.0003
1996.00,0.0002
1993.00,0.0002
1990.00,0.0005
1987.00,0.0012
1984.00,0.0017
1981.00,0.0023
1978.00,0.0009
1975.00,0.0001
1972.00,-0.0001
1969.00,-0.0004
1966.00,0.0003
1963.00,0.0009
1960.00,0.0004
1957.00,0.0009
1954.00,0.0016
1951.00,0.0021
1948.00,0.0027
1945.00,0.0027
1942.00,0.0025
1939.00,0.0024
1936.00,0.0018
1933.00,0.0014
1930.00,0.0008
1927.00,0.0003
1924.00,0.0003
1921.00,0.0005
1918.00,0.0003
1915.00,0.0004
1912.00,0.0004
1909.00,0.0003
1906.00,0.0002
1903.00,0.0005
1900.00,0.0006
1897.00,0.0008
1894.00,0.0011
1891.00,0.0014
1888.00,0.0017
1885.00,0.0020
1882.00,0.0021
1879.00,0.0023
1876.00,0.0024
1873.00,0.0026
1870.00,0.0026
1867.00,0.0025
1864.00,0.0023
1861.00,0.0019
1858.00,0.0014
1855.00,0.0011
1852.00,0.0009
1849.00,0.0007
1846.00,0.0005
1843.00,0.0006
1840.00,0.0007
1837.00,0.0007
1834.00,0.0008
1831.00,0.0009
1828.00,0.0011
1825.00,0.0012
1822.00,0.0015
1819.00,0.0016
1816.00,0.0018
1813.00,0.0023
1810.00,0.0026
1807.00,0.0029
1804.00,0.0031
1801.00,0.0032
1798.00,0.0030
1795.00,0.0027
1792.00,0.0022
1789.00,0.0020
1786.00,0.0018
1783.00,0.0018
1780.00,0.0018
1777.00,0.0018
1774.00,0.0020
1771.00,0.0021
1768.00,0.0020
1765.00,0.0022
1762.00,0.0024
1759.00,0.0027
1756.00,0.0031
1753.00,0.0034
1750.00,0.0038
1747.00,0.0041
1744.00,0.0043
1741.00,0.0044
1738.00,0.0044
1735.00,0.0043
1732.00,0.0042
1729.00,0.0039
1726.00,0.0037
1723.00,0.0035
1720.00,0.0034
1717.00,0.0032
1714.00,0.0031
1711.00,0.0030
1708.00,0.0029
1705.00,0.0029
1702.00,0.0029
1699.00,0.0028
1696.00,0.0028
1693.00,0.0028
1690.00,0.0029
1687.00,0.0032
1684.00,0.0034
1681.00,0.0036
1678.00,0.0037
1675.00,0.0038
1672.00,0.0038
1669.00,0.0039
1666.00,0.0038
1663.00,0.0036
1660.00,0.0035
1657.00,0.0034
1654.00,0.0033
1651.00,0.0033
1648.00,0.0030
1645.00,0.0029
1642.00,0.0028
1639.00,0.0027
1636.00,0.0027
1633.00,0.0026
1630.00,0.0027
1627.00,0.0027
1624.00,0.0027
1621.00,0.0029
1618.00,0.0032
1615.00,0.0039
1612.00,0.0048
1609.00,0.0076
1606.00,0.0137
1603.00,0.0204
1600.00,0.0209
1597.00,0.0146
1594.00,0.0095
1591.00,0.0071
1588.00,0.0068
1585.00,0.0088
1582.00,0.0088
1579.00,0.0060
1576.00,0.0042
1573.00,0.0033
1570.00,0.0029
1567.00,0.0026
1564.00,0.0024
1561.00,0.0024
1558.00,0.0025
1555.00,0.0026
1552.00,0.0029
1549.00,0.0032
1546.00,0.0034
1543.00,0.0036
1540.00,0.0035
1537.00,0.0033
1534.00,0.0028
1531.00,0.0024
1528.00,0.0022
1525.00,0.0020
1522.00,0.0020
1519.00,0.0021
1516.00,0.0021
1513.00,0.0023
1510.00,0.0026
1507.00,0.0032
1504.00,0.0049
1501.00,0.0076
1498.00,0.0177
1495.00,0.0433
1492.00,0.0501
1489.00,0.0298
1486.00,0.0162
1483.00,0.0101
1480.00,0.0072
1477.00,0.0060
1474.00,0.0055
1471.00,0.0056
1468.00,0.0059
1465.00,0.0066
1462.00,0.0082
1459.00,0.0121
1456.00,0.0341
1453.00,0.0516
1450.00,0.0484
1447.00,0.0373
1444.00,0.0295
1441.00,0.0230
1438.00,0.0180
1435.00,0.0132
1432.00,0.0099
1429.00,0.0077
1426.00,0.0065
1423.00,0.0058
1420.00,0.0054
1417.00,0.0051
1414.00,0.0049
1411.00,0.0047
1408.00,0.0047
1405.00,0.0046
1402.00,0.0046
1399.00,0.0047
1396.00,0.0050
1393.00,0.0057
1390.00,0.0066
1387.00,0.0077
1384.00,0.0089
1381.00,0.0099
1378.00,0.0109
1375.00,0.0117
1372.00,0.0120
1369.00,0.0120
1366.00,0.0118
1363.00,0.0114
1360.00,0.0111
1357.00,0.0106
1354.00,0.0103
1351.00,0.0102
1348.00,0.0101
1345.00,0.0097
1342.00,0.0091
1339.00,0.0087
1336.00,0.0090
1333.00,0.0096
1330.00,0.0102
1327.00,0.0102
1324.00,0.0098
1321.00,0.0096
1318.00,0.0096
1315.00,0.0098
1312.00,0.0100
1309.00,0.0098
1306.00,0.0093
1303.00,0.0088
1300.00,0.0084
1297.00,0.0082
1294.00,0.0080
1291.00,0.0078
1288.00,0.0076
1285.00,0.0074
1282.00,0.0073
1279.00,0.0071
1276.00,0.0067
1273.00,0.0063
1270.00,0.0059
1267.00,0.0056
1264.00,0.0054
1261.00,0.0054
1258.00,0.0054
1255.00,0.0054
1252.00,0.0055
1249.00,0.0056
1246.00,0.0056
1243.00,0.0056
1240.00,0.0055
1237.00,0.0055
1234.00,0.0056
1231.00,0.0055
1228.00,0.0056
1225.00,0.0057
1222.00,0.0056
1219.00,0.0056
1216.00,0.0057
1213.00,0.0059
1210.00,0.0062
1207.00,0.0066
1204.00,0.0071
1201.00,0.0078
1198.00,0.0082
1195.00,0.0084
1192.00,0.0085
1189.00,0.0088
1186.00,0.0098
1183.00,0.0113
1180.00,0.0113
1177.00,0.0092
1174.00,0.0076
1171.00,0.0070
1168.00,0.0067
1165.00,0.0068
1162.00,0.0074
1159.00,0.0091
1156.00,0.0111
1153.00,0.0108
1150.00,0.0083
1147.00,0.0066
1144.00,0.0058
1141.00,0.0052
1138.00,0.0049
1135.00,0.0047
1132.00,0.0048
1129.00,0.0048
1126.00,0.0048
1123.00,0.0049
1120.00,0.0053
1117.00,0.0059
1114.00,0.0062
1111.00,0.0062
1108.00,0.0061
1105.00,0.0060
1102.00,0.0061
1099.00,0.0064
1096.00,0.0067
1093.00,0.0069
1090.00,0.0071
1087.00,0.0077
1084.00,0.0086
1081.00,0.0097
1078.00,0.0106
1075.00,0.0121
1072.00,0.0138
1069.00,0.0148
1066.00,0.0141
1063.00,0.0124
1060.00,0.0110
1057.00,0.0098
1054.00,0.0090
1051.00,0.0084
1048.00,0.0080
1045.00,0.0076
1042.00,0.0077
1039.00,0.0084
1036.00,0.0115
1033.00,0.0178
1030.00,0.0238
1027.00,0.0246
1024.00,0.0201
1021.00,0.0160
1018.00,0.0135
1015.00,0.0117
1012.00,0.0107
1009.00,0.0103
1006.00,0.0105
1003.00,0.0110
1000.00,0.0097
997.00,0.0082
994.00,0.0078
991.00,0.0079
988.00,0.0084
985.00,0.0092
982.00,0.0099
979.00,0.0100
976.00,0.0094
973.00,0.0091
970.00,0.0095
967.00,0.0105
964.00,0.0109
961.00,0.0102
958.00,0.0089
955.00,0.0081
952.00,0.0080
949.00,0.0082
946.00,0.0086
943.00,0.0088
940.00,0.0084
937.00,0.0077
934.00,0.0068
931.00,0.0063
928.00,0.0062
925.00,0.0064
922.00,0.0069
919.00,0.0077
916.00,0.0093
913.00,0.0122
910.00,0.0154
907.00,0.0174
904.00,0.0164
901.00,0.0130
898.00,0.0096
895.00,0.0075
892.00,0.0066
889.00,0.0060
886.00,0.0054
883.00,0.0052
880.00,0.0050
877.00,0.0049
874.00,0.0048
871.00,0.0047
868.00,0.0045
865.00,0.0045
862.00,0.0044
859.00,0.0044
856.00,0.0046
853.00,0.0052
850.00,0.0062
847.00,0.0078
844.00,0.0090
841.00,0.0093
838.00,0.0083
835.00,0.0066
832.00,0.0052
829.00,0.0045
826.00,0.0043
823.00,0.0042
820.00,0.0042
817.00,0.0042
814.00,0.0042
811.00,0.0043
808.00,0.0043
805.00,0.0044
802.00,0.0047
799.00,0.0053
796.00,0.0061
793.00,0.0072
790.00,0.0087
787.00,0.0105
784.00,0.0125
781.00,0.0152
778.00,0.0193
775.00,0.0251
772.00,0.0325
769.00,0.0413
766.00,0.0499
763.00,0.0583
760.00,0.0668
757.00,0.0731
754.00,0.0748
751.00,0.0742
748.00,0.0737
745.00,0.0676
742.00,0.0540
739.00,0.0403
736.00,0.0292
733.00,0.0197
730.00,0.0132
727.00,0.0104
724.00,0.0093
721.00,0.0090
718.00,0.0096
715.00,0.0118
712.00,0.0177
709.00,0.0322
706.00,0.0593
703.00,0.0984
700.00,0.1456
697.00,0.1911
694.00,0.2002
691.00,0.1487
688.00,0.0974
685.00,0.0694
682.00,0.0539
679.00,0.0443
676.00,0.0384
673.00,0.0343
670.00,0.0312
667.00,0.0281
664.00,0.0250
661.00,0.0224
658.00,0.0199
655.00,0.0179
652.00,0.0165
649.00,0.0151
646.00,0.0141
643.00,0.0135
640.00,0.0136
637.00,0.0141
634.00,0.0150
631.00,0.0159
628.00,0.0166
625.00,0.0172
622.00,0.0179
619.00,0.0175
616.00,0.0160
613.00,0.0151
610.00,0.0148
607.00,0.0142
604.00,0.0144
601.00,0.0146
598.00,0.0151
595.00,0.0155
592.00,0.0159
589.00,0.0169
586.00,0.0175
583.00,0.0184
580.00,0.0201
577.00,0.0225
574.00,0.0254
571.00,0.0284
568.00,0.0313
565.00,0.0345
562.00,0.0373
559.00,0.0401
556.00,0.0434
553.00,0.0466
550.00,0.0506
547.00,0.0564
544.00,0.0631
541.00,0.0692
538.00,0.0719
535.00,0.0676
532.00,0.0587
529.00,0.0484
526.00,0.0397
523.00,0.0330
520.00,0.0282
517.00,0.0260
514.00,0.0243
511.00,0.0220
508.00,0.0203
505.00,0.0190
502.00,0.0172
499.00,0.0155
496.00,0.0147
493.00,0.0146
490.00,0.0141
487.00,0.0130
484.00,0.0123
481.00,0.0128
478.00,0.0124
475.00,0.0118
472.00,0.0115
469.00,0.0124
466.00,0.0115
463.00,0.0100
460.00,0.0101
457.00,0.0106
454.00,0.0106
451.00,0.0101
448.00,0.0107
445.00,0.0105
442.00,0.0096
439.00,0.0092
436.00,0.0098
433.00,0.0095
430.00,0.0094
427.00,0.0084
424.00,0.0094
421.00,0.0124
418.00,0.0125
415.00,0.0099
412.00,0.0091
409.00,0.0109
406.00,0.0134
403.00,0.0140
400.00,0.0103