File: FTIR/Olivia/2025_06_06_Crystalline_Nifedipine_05_25_DSC_Scan1.csv
Created as New Dataset,Sample 626 By YargerLab Date Friday, June 06 2025
cm-1,A
4000.00,0.0071
3997.00,0.0071
3994.00,0.0071
3991.00,0.0071
3988.00,0.0071
3985.00,0.0071
3982.00,0.0071
3979.00,0.0071
3976.00,0.0071
3973.00,0.0071
3970.00,0.0071
3967.00,0.0072
3964.00,0.0072
3961.00,0.0071
3958.00,0.0072
3955.00,0.0072
3952.00,0.0071
3949.00,0.0071
3946.00,0.0071
3943.00,0.0071
3940.00,0.0071
3937.00,0.0072
3934.00,0.0072
3931.00,0.0072
3928.00,0.0071
3925.00,0.0072
3922.00,0.0071
3919.00,0.0071
3916.00,0.0071
3913.00,0.0071
3910.00,0.0070
3907.00,0.0070
3904.00,0.0069
3901.00,0.0070
3898.00,0.0070
3895.00,0.0069
3892.00,0.0070
3889.00,0.0069
3886.00,0.0069
3883.00,0.0069
3880.00,0.0069
3877.00,0.0069
3874.00,0.0069
3871.00,0.0069
3868.00,0.0069
3865.00,0.0069
3862.00,0.0069
3859.00,0.0069
3856.00,0.0067
3853.00,0.0069
3850.00,0.0070
3847.00,0.0069
3844.00,0.0068
3841.00,0.0068
3838.00,0.0069
3835.00,0.0069
3832.00,0.0069
3829.00,0.0069
3826.00,0.0069
3823.00,0.0068
3820.00,0.0068
3817.00,0.0068
3814.00,0.0068
3811.00,0.0068
3808.00,0.0068
3805.00,0.0068
3802.00,0.0068
3799.00,0.0068
3796.00,0.0068
3793.00,0.0068
3790.00,0.0067
3787.00,0.0068
3784.00,0.0068
3781.00,0.0068
3778.00,0.0069
3775.00,0.0068
3772.00,0.0068
3769.00,0.0068
3766.00,0.0069
3763.00,0.0069
3760.00,0.0068
3757.00,0.0068
3754.00,0.0068
3751.00,0.0067
3748.00,0.0067
3745.00,0.0067
3742.00,0.0067
3739.00,0.0067
3736.00,0.0067
3733.00,0.0066
3730.00,0.0066
3727.00,0.0067
3724.00,0.0067
3721.00,0.0066
3718.00,0.0066
3715.00,0.0066
3712.00,0.0066
3709.00,0.0066
3706.00,0.0066
3703.00,0.0066
3700.00,0.0066
3697.00,0.0064
3694.00,0.0063
3691.00,0.0062
3688.00,0.0062
3685.00,0.0062
3682.00,0.0061
3679.00,0.0058
3676.00,0.0056
3673.00,0.0054
3670.00,0.0054
3667.00,0.0054
3664.00,0.0053
3661.00,0.0052
3658.00,0.0051
3655.00,0.0052
3652.00,0.0052
3649.00,0.0052
3646.00,0.0053
3643.00,0.0055
3640.00,0.0055
3637.00,0.0055
3634.00,0.0058
3631.00,0.0060
3628.00,0.0061
3625.00,0.0061
3622.00,0.0061
3619.00,0.0061
3616.00,0.0062
3613.00,0.0062
3610.00,0.0062
3607.00,0.0063
3604.00,0.0063
3601.00,0.0063
3598.00,0.0063
3595.00,0.0063
3592.00,0.0062
3589.00,0.0062
3586.00,0.0062
3583.00,0.0063
3580.00,0.0063
3577.00,0.0063
3574.00,0.0062
3571.00,0.0061
3568.00,0.0062
3565.00,0.0062
3562.00,0.0062
3559.00,0.0061
3556.00,0.0062
3553.00,0.0062
3550.00,0.0062
3547.00,0.0063
3544.00,0.0063
3541.00,0.0063
3538.00,0.0063
3535.00,0.0063
3532.00,0.0062
3529.00,0.0062
3526.00,0.0062
3523.00,0.0063
3520.00,0.0063
3517.00,0.0063
3514.00,0.0062
3511.00,0.0062
3508.00,0.0062
3505.00,0.0062
3502.00,0.0062
3499.00,0.0061
3496.00,0.0061
3493.00,0.0062
3490.00,0.0062
3487.00,0.0061
3484.00,0.0062
3481.00,0.0062
3478.00,0.0061
3475.00,0.0061
3472.00,0.0062
3469.00,0.0061
3466.00,0.0061
3463.00,0.0061
3460.00,0.0061
3457.00,0.0061
3454.00,0.0061
3451.00,0.0062
3448.00,0.0062
3445.00,0.0061
3442.00,0.0062
3439.00,0.0062
3436.00,0.0062
3433.00,0.0063
3430.00,0.0063
3427.00,0.0063
3424.00,0.0064
3421.00,0.0065
3418.00,0.0066
3415.00,0.0066
3412.00,0.0066
3409.00,0.0068
3406.00,0.0069
3403.00,0.0070
3400.00,0.0071
3397.00,0.0073
3394.00,0.0075
3391.00,0.0079
3388.00,0.0084
3385.00,0.0089
3382.00,0.0093
3379.00,0.0098
3376.00,0.0103
3373.00,0.0107
3370.00,0.0109
3367.00,0.0118
3364.00,0.0131
3361.00,0.0143
3358.00,0.0159
3355.00,0.0177
3352.00,0.0194
3349.00,0.0222
3346.00,0.0256
3343.00,0.0299
3340.00,0.0351
3337.00,0.0409
3334.00,0.0459
3331.00,0.0487
3328.00,0.0495
3325.00,0.0493
3322.00,0.0485
3319.00,0.0465
3316.00,0.0433
3313.00,0.0397
3310.00,0.0359
3307.00,0.0328
3304.00,0.0305
3301.00,0.0288
3298.00,0.0272
3295.00,0.0259
3292.00,0.0249
3289.00,0.0239
3286.00,0.0228
3283.00,0.0216
3280.00,0.0207
3277.00,0.0200
3274.00,0.0196
3271.00,0.0195
3268.00,0.0196
3265.00,0.0196
3262.00,0.0194
3259.00,0.0192
3256.00,0.0188
3253.00,0.0187
3250.00,0.0185
3247.00,0.0183
3244.00,0.0185
3241.00,0.0185
3238.00,0.0181
3235.00,0.0175
3232.00,0.0169
3229.00,0.0162
3226.00,0.0155
3223.00,0.0147
3220.00,0.0140
3217.00,0.0135
3214.00,0.0130
3211.00,0.0126
3208.00,0.0123
3205.00,0.0119
3202.00,0.0116
3199.00,0.0114
3196.00,0.0110
3193.00,0.0108
3190.00,0.0107
3187.00,0.0106
3184.00,0.0105
3181.00,0.0105
3178.00,0.0105
3175.00,0.0104
3172.00,0.0103
3169.00,0.0102
3166.00,0.0101
3163.00,0.0101
3160.00,0.0100
3157.00,0.0100
3154.00,0.0100
3151.00,0.0101
3148.00,0.0103
3145.00,0.0103
3142.00,0.0103
3139.00,0.0104
3136.00,0.0105
3133.00,0.0107
3130.00,0.0109
3127.00,0.0111
3124.00,0.0113
3121.00,0.0117
3118.00,0.0121
3115.00,0.0127
3112.00,0.0134
3109.00,0.0141
3106.00,0.0147
3103.00,0.0149
3100.00,0.0148
3097.00,0.0143
3094.00,0.0137
3091.00,0.0133
3088.00,0.0132
3085.00,0.0134
3082.00,0.0133
3079.00,0.0132
3076.00,0.0128
3073.00,0.0120
3070.00,0.0114
3067.00,0.0113
3064.00,0.0118
3061.00,0.0118
3058.00,0.0113
3055.00,0.0110
3052.00,0.0108
3049.00,0.0108
3046.00,0.0106
3043.00,0.0107
3040.00,0.0112
3037.00,0.0115
3034.00,0.0116
3031.00,0.0120
3028.00,0.0122
3025.00,0.0120
3022.00,0.0117
3019.00,0.0113
3016.00,0.0110
3013.00,0.0109
3010.00,0.0111
3007.00,0.0116
3004.00,0.0120
3001.00,0.0122
2998.00,0.0119
2995.00,0.0108
2992.00,0.0088
2989.00,0.0073
2986.00,0.0056
2983.00,0.0024
2980.00,0.0013
2977.00,0.0029
2974.00,0.0036
2971.00,0.0040
2968.00,0.0060
2965.00,0.0085
2962.00,0.0119
2959.00,0.0161
2956.00,0.0193
2953.00,0.0200
2950.00,0.0181
2947.00,0.0154
2944.00,0.0138
2941.00,0.0129
2938.00,0.0125
2935.00,0.0124
2932.00,0.0121
2929.00,0.0119
2926.00,0.0117
2923.00,0.0112
2920.00,0.0107
2917.00,0.0102
2914.00,0.0098
2911.00,0.0096
2908.00,0.0093
2905.00,0.0089
2902.00,0.0087
2899.00,0.0084
2896.00,0.0080
2893.00,0.0076
2890.00,0.0075
2887.00,0.0076
2884.00,0.0079
2881.00,0.0083
2878.00,0.0090
2875.00,0.0094
2872.00,0.0099
2869.00,0.0103
2866.00,0.0102
2863.00,0.0100
2860.00,0.0098
2857.00,0.0100
2854.00,0.0101
2851.00,0.0104
2848.00,0.0111
2845.00,0.0120
2842.00,0.0120
2839.00,0.0112
2836.00,0.0105
2833.00,0.0100
2830.00,0.0098
2827.00,0.0097
2824.00,0.0096
2821.00,0.0097
2818.00,0.0097
2815.00,0.0097
2812.00,0.0098
2809.00,0.0098
2806.00,0.0098
2803.00,0.0097
2800.00,0.0094
2797.00,0.0092
2794.00,0.0091
2791.00,0.0088
2788.00,0.0085
2785.00,0.0084
2782.00,0.0083
2779.00,0.0082
2776.00,0.0082
2773.00,0.0082
2770.00,0.0083
2767.00,0.0082
2764.00,0.0082
2761.00,0.0082
2758.00,0.0081
2755.00,0.0081
2752.00,0.0081
2749.00,0.0080
2746.00,0.0080
2743.00,0.0080
2740.00,0.0080
2737.00,0.0079
2734.00,0.0079
2731.00,0.0079
2728.00,0.0079
2725.00,0.0080
2722.00,0.0081
2719.00,0.0081
2716.00,0.0080
2713.00,0.0080
2710.00,0.0080
2707.00,0.0080
2704.00,0.0080
2701.00,0.0080
2698.00,0.0080
2695.00,0.0080
2692.00,0.0080
2689.00,0.0079
2686.00,0.0079
2683.00,0.0078
2680.00,0.0078
2677.00,0.0078
2674.00,0.0078
2671.00,0.0078
2668.00,0.0077
2665.00,0.0078
2662.00,0.0079
2659.00,0.0080
2656.00,0.0080
2653.00,0.0080
2650.00,0.0080
2647.00,0.0081
2644.00,0.0081
2641.00,0.0081
2638.00,0.0080
2635.00,0.0080
2632.00,0.0080
2629.00,0.0080
2626.00,0.0081
2623.00,0.0082
2620.00,0.0082
2617.00,0.0082
2614.00,0.0081
2611.00,0.0081
2608.00,0.0080
2605.00,0.0079
2602.00,0.0078
2599.00,0.0078
2596.00,0.0077
2593.00,0.0077
2590.00,0.0076
2587.00,0.0076
2584.00,0.0075
2581.00,0.0075
2578.00,0.0075
2575.00,0.0074
2572.00,0.0073
2569.00,0.0072
2566.00,0.0072
2563.00,0.0071
2560.00,0.0072
2557.00,0.0073
2554.00,0.0072
2551.00,0.0072
2548.00,0.0073
2545.00,0.0073
2542.00,0.0073
2539.00,0.0073
2536.00,0.0073
2533.00,0.0073
2530.00,0.0072
2527.00,0.0072
2524.00,0.0070
2521.00,0.0070
2518.00,0.0070
2515.00,0.0070
2512.00,0.0070
2509.00,0.0069
2506.00,0.0068
2503.00,0.0068
2500.00,0.0068
2497.00,0.0068
2494.00,0.0069
2491.00,0.0070
2488.00,0.0071
2485.00,0.0071
2482.00,0.0069
2479.00,0.0068
2476.00,0.0068
2473.00,0.0068
2470.00,0.0068
2467.00,0.0069
2464.00,0.0068
2461.00,0.0069
2458.00,0.0071
2455.00,0.0072
2452.00,0.0071
2449.00,0.0071
2446.00,0.0071
2443.00,0.0070
2440.00,0.0068
2437.00,0.0068
2434.00,0.0067
2431.00,0.0066
2428.00,0.0066
2425.00,0.0067
2422.00,0.0066
2419.00,0.0066
2416.00,0.0066
2413.00,0.0066
2410.00,0.0065
2407.00,0.0063
2404.00,0.0063
2401.00,0.0063
2398.00,0.0063
2395.00,0.0063
2392.00,0.0062
2389.00,0.0062
2386.00,0.0062
2383.00,0.0061
2380.00,0.0060
2377.00,0.0060
2374.00,0.0060
2371.00,0.0059
2368.00,0.0058
2365.00,0.0060
2362.00,0.0062
2359.00,0.0060
2356.00,0.0059
2353.00,0.0060
2350.00,0.0055
2347.00,0.0062
2344.00,0.0064
2341.00,0.0063
2338.00,0.0063
2335.00,0.0063
2332.00,0.0062
2329.00,0.0063
2326.00,0.0072
2323.00,0.0070
2320.00,0.0066
2317.00,0.0064
2314.00,0.0063
2311.00,0.0060
2308.00,0.0059
2305.00,0.0059
2302.00,0.0060
2299.00,0.0062
2296.00,0.0064
2293.00,0.0067
2290.00,0.0070
2287.00,0.0071
2284.00,0.0069
2281.00,0.0067
2278.00,0.0066
2275.00,0.0066
2272.00,0.0064
2269.00,0.0063
2266.00,0.0061
2263.00,0.0060
2260.00,0.0060
2257.00,0.0058
2254.00,0.0056
2251.00,0.0056
2248.00,0.0055
2245.00,0.0053
2242.00,0.0050
2239.00,0.0051
2236.00,0.0050
2233.00,0.0049
2230.00,0.0048
2227.00,0.0049
2224.00,0.0051
2221.00,0.0050
2218.00,0.0052
2215.00,0.0053
2212.00,0.0052
2209.00,0.0048
2206.00,0.0044
2203.00,0.0045
2200.00,0.0048
2197.00,0.0050
2194.00,0.0049
2191.00,0.0048
2188.00,0.0049
2185.00,0.0048
2182.00,0.0041
2179.00,0.0044
2176.00,0.0044
2173.00,0.0052
2170.00,0.0059
2167.00,0.0061
2164.00,0.0063
2161.00,0.0045
2158.00,0.0018
2155.00,0.0027
2152.00,0.0034
2149.00,0.0036
2146.00,0.0035
2143.00,0.0035
2140.00,0.0036
2137.00,0.0034
2134.00,0.0030
2131.00,0.0032
2128.00,0.0037
2125.00,0.0041
2122.00,0.0044
2119.00,0.0045
2116.00,0.0047
2113.00,0.0047
2110.00,0.0046
2107.00,0.0046
2104.00,0.0048
2101.00,0.0049
2098.00,0.0046
2095.00,0.0043
2092.00,0.0045
2089.00,0.0048
2086.00,0.0050
2083.00,0.0051
2080.00,0.0050
2077.00,0.0051
2074.00,0.0049
2071.00,0.0048
2068.00,0.0048
2065.00,0.0045
2062.00,0.0044
2059.00,0.0045
2056.00,0.0042
2053.00,0.0047
2050.00,0.0044
2047.00,0.0032
2044.00,0.0031
2041.00,0.0026
2038.00,0.0028
2035.00,0.0025
2032.00,0.0021
2029.00,0.0023
2026.00,0.0023
2023.00,0.0024
2020.00,0.0027
2017.00,0.0027
2014.00,0.0029
2011.00,0.0034
2008.00,0.0030
2005.00,0.0034
2002.00,0.0040
1999.00,0.0039
1996.00,0.0041
1993.00,0.0041
1990.00,0.0039
1987.00,0.0041
1984.00,0.0045
1981.00,0.0051
1978.00,0.0039
1975.00,0.0030
1972.00,0.0032
1969.00,0.0034
1966.00,0.0036
1963.00,0.0036
1960.00,0.0033
1957.00,0.0033
1954.00,0.0034
1951.00,0.0036
1948.00,0.0036
1945.00,0.0036
1942.00,0.0040
1939.00,0.0039
1936.00,0.0041
1933.00,0.0043
1930.00,0.0046
1927.00,0.0045
1924.00,0.0045
1921.00,0.0046
1918.00,0.0046
1915.00,0.0044
1912.00,0.0043
1909.00,0.0041
1906.00,0.0040
1903.00,0.0039
1900.00,0.0038
1897.00,0.0039
1894.00,0.0040
1891.00,0.0041
1888.00,0.0042
1885.00,0.0041
1882.00,0.0039
1879.00,0.0038
1876.00,0.0037
1873.00,0.0037
1870.00,0.0042
1867.00,0.0041
1864.00,0.0039
1861.00,0.0040
1858.00,0.0041
1855.00,0.0042
1852.00,0.0044
1849.00,0.0046
1846.00,0.0048
1843.00,0.0043
1840.00,0.0039
1837.00,0.0039
1834.00,0.0039
1831.00,0.0043
1828.00,0.0042
1825.00,0.0043
1822.00,0.0038
1819.00,0.0036
1816.00,0.0036
1813.00,0.0038
1810.00,0.0041
1807.00,0.0041
1804.00,0.0043
1801.00,0.0047
1798.00,0.0045
1795.00,0.0047
1792.00,0.0049
1789.00,0.0046
1786.00,0.0046
1783.00,0.0047
1780.00,0.0047
1777.00,0.0047
1774.00,0.0047
1771.00,0.0048
1768.00,0.0053
1765.00,0.0051
1762.00,0.0055
1759.00,0.0057
1756.00,0.0059
1753.00,0.0059
1750.00,0.0064
1747.00,0.0065
1744.00,0.0068
1741.00,0.0069
1738.00,0.0073
1735.00,0.0077
1732.00,0.0080
1729.00,0.0088
1726.00,0.0090
1723.00,0.0095
1720.00,0.0105
1717.00,0.0121
1714.00,0.0158
1711.00,0.0194
1708.00,0.0237
1705.00,0.0286
1702.00,0.0320
1699.00,0.0389
1696.00,0.0509
1693.00,0.0779
1690.00,0.1100
1687.00,0.1234
1684.00,0.1264
1681.00,0.1422
1678.00,0.1559
1675.00,0.1457
1672.00,0.1180
1669.00,0.0897
1666.00,0.0718
1663.00,0.0605
1660.00,0.0534
1657.00,0.0498
1654.00,0.0522
1651.00,0.0675
1648.00,0.0758
1645.00,0.0742
1642.00,0.0622
1639.00,0.0515
1636.00,0.0472
1633.00,0.0510
1630.00,0.0572
1627.00,0.0624
1624.00,0.0634
1621.00,0.0637
1618.00,0.0610
1615.00,0.0565
1612.00,0.0505
1609.00,0.0460
1606.00,0.0484
1603.00,0.0493
1600.00,0.0395
1597.00,0.0309
1594.00,0.0260
1591.00,0.0227
1588.00,0.0200
1585.00,0.0183
1582.00,0.0176
1579.00,0.0188
1576.00,0.0221
1573.00,0.0231
1570.00,0.0194
1567.00,0.0168
1564.00,0.0157
1561.00,0.0152
1558.00,0.0151
1555.00,0.0152
1552.00,0.0156
1549.00,0.0169
1546.00,0.0185
1543.00,0.0211
1540.00,0.0266
1537.00,0.0392
1534.00,0.0638
1531.00,0.1016
1528.00,0.1262
1525.00,0.1272
1522.00,0.1068
1519.00,0.0850
1516.00,0.0698
1513.00,0.0593
1510.00,0.0545
1507.00,0.0594
1504.00,0.0747
1501.00,0.0915
1498.00,0.1108
1495.00,0.1224
1492.00,0.1210
1489.00,0.1147
1486.00,0.1030
1483.00,0.0910
1480.00,0.0814
1477.00,0.0741
1474.00,0.0666
1471.00,0.0610
1468.00,0.0580
1465.00,0.0564
1462.00,0.0537
1459.00,0.0516
1456.00,0.0509
1453.00,0.0495
1450.00,0.0504
1447.00,0.0567
1444.00,0.0642
1441.00,0.0685
1438.00,0.0792
1435.00,0.1058
1432.00,0.1209
1429.00,0.1109
1426.00,0.0882
1423.00,0.0708
1420.00,0.0593
1417.00,0.0498
1414.00,0.0421
1411.00,0.0363
1408.00,0.0320
1405.00,0.0290
1402.00,0.0261
1399.00,0.0247
1396.00,0.0240
1393.00,0.0251
1390.00,0.0283
1387.00,0.0329
1384.00,0.0361
1381.00,0.0415
1378.00,0.0425
1375.00,0.0355
1372.00,0.0287
1369.00,0.0261
1366.00,0.0269
1363.00,0.0319
1360.00,0.0393
1357.00,0.0498
1354.00,0.0705
1351.00,0.1039
1348.00,0.1205
1345.00,0.1087
1342.00,0.1024
1339.00,0.0973
1336.00,0.0824
1333.00,0.0658
1330.00,0.0553
1327.00,0.0532
1324.00,0.0610
1321.00,0.0770
1318.00,0.0888
1315.00,0.0985
1312.00,0.1090
1309.00,0.1127
1306.00,0.1040
1303.00,0.0898
1300.00,0.0778
1297.00,0.0699
1294.00,0.0676
1291.00,0.0688
1288.00,0.0658
1285.00,0.0603
1282.00,0.0565
1279.00,0.0545
1276.00,0.0542
1273.00,0.0554
1270.00,0.0562
1267.00,0.0510
1264.00,0.0422
1261.00,0.0359
1258.00,0.0325
1255.00,0.0314
1252.00,0.0317
1249.00,0.0333
1246.00,0.0363
1243.00,0.0426
1240.00,0.0559
1237.00,0.0726
1234.00,0.0953
1231.00,0.1324
1228.00,0.1737
1225.00,0.2005
1222.00,0.1990
1219.00,0.1811
1216.00,0.1610
1213.00,0.1414
1210.00,0.1222
1207.00,0.1048
1204.00,0.0902
1201.00,0.0798
1198.00,0.0775
1195.00,0.0914
1192.00,0.1199
1189.00,0.1339
1186.00,0.1186
1183.00,0.0971
1180.00,0.0795
1177.00,0.0658
1174.00,0.0577
1171.00,0.0551
1168.00,0.0614
1165.00,0.0732
1162.00,0.0685
1159.00,0.0544
1156.00,0.0557
1153.00,0.0748
1150.00,0.0740
1147.00,0.0575
1144.00,0.0470
1141.00,0.0422
1138.00,0.0426
1135.00,0.0447
1132.00,0.0481
1129.00,0.0604
1126.00,0.0913
1123.00,0.1361
1120.00,0.1624
1117.00,0.1545
1114.00,0.1317
1111.00,0.1122
1108.00,0.1064
1105.00,0.1189
1102.00,0.1355
1099.00,0.1320
1096.00,0.1133
1093.00,0.0943
1090.00,0.0786
1087.00,0.0667
1084.00,0.0583
1081.00,0.0526
1078.00,0.0487
1075.00,0.0468
1072.00,0.0476
1069.00,0.0465
1066.00,0.0432
1063.00,0.0444
1060.00,0.0547
1057.00,0.0728
1054.00,0.0815
1051.00,0.0762
1048.00,0.0688
1045.00,0.0610
1042.00,0.0571
1039.00,0.0571
1036.00,0.0589
1033.00,0.0622
1030.00,0.0698
1027.00,0.0863
1024.00,0.1080
1021.00,0.1186
1018.00,0.1102
1015.00,0.0933
1012.00,0.0775
1009.00,0.0658
1006.00,0.0577
1003.00,0.0535
1000.00,0.0496
997.00,0.0450
994.00,0.0416
991.00,0.0390
988.00,0.0371
985.00,0.0356
982.00,0.0341
979.00,0.0328
976.00,0.0315
973.00,0.0307
970.00,0.0316
967.00,0.0309
964.00,0.0331
961.00,0.0344
958.00,0.0332
955.00,0.0371
952.00,0.0353
949.00,0.0308
946.00,0.0278
943.00,0.0259
940.00,0.0248
937.00,0.0242
934.00,0.0239
931.00,0.0236
928.00,0.0235
925.00,0.0234
922.00,0.0231
919.00,0.0228
916.00,0.0226
913.00,0.0222
910.00,0.0218
907.00,0.0214
904.00,0.0211
901.00,0.0208
898.00,0.0204
895.00,0.0201
892.00,0.0198
889.00,0.0198
886.00,0.0207
883.00,0.0216
880.00,0.0198
877.00,0.0187
874.00,0.0182
871.00,0.0179
868.00,0.0180
865.00,0.0193
862.00,0.0305
859.00,0.0606
856.00,0.0456
853.00,0.0273
850.00,0.0227
847.00,0.0209
844.00,0.0205
841.00,0.0225
838.00,0.0350
835.00,0.0605
832.00,0.0832
829.00,0.0988
826.00,0.0827
823.00,0.0597
820.00,0.0441
817.00,0.0335
814.00,0.0277
811.00,0.0270
808.00,0.0309
805.00,0.0303
802.00,0.0261
799.00,0.0340
796.00,0.0791
793.00,0.1128
790.00,0.0837
787.00,0.0592
784.00,0.0445
781.00,0.0382
778.00,0.0346
775.00,0.0369
772.00,0.0420
769.00,0.0387
766.00,0.0570
763.00,0.0893
760.00,0.0765
757.00,0.0555
754.00,0.0468
751.00,0.0493
748.00,0.0756
745.00,0.1087
742.00,0.0931
739.00,0.0647
736.00,0.0467
733.00,0.0371
730.00,0.0321
727.00,0.0295
724.00,0.0287
721.00,0.0309
718.00,0.0425
715.00,0.0839
712.00,0.1208
709.00,0.0921
706.00,0.0623
703.00,0.0494
700.00,0.0451
697.00,0.0461
694.00,0.0533
691.00,0.0688
688.00,0.0866
685.00,0.0850
682.00,0.0677
679.00,0.0603
676.00,0.0675
673.00,0.0719
670.00,0.0631
667.00,0.0592
664.00,0.0604
661.00,0.0595
658.00,0.0540
655.00,0.0475
652.00,0.0422
649.00,0.0376
646.00,0.0342
643.00,0.0314
640.00,0.0292
637.00,0.0279
634.00,0.0280
631.00,0.0314
628.00,0.0445
625.00,0.0671
622.00,0.0732
619.00,0.0605
616.00,0.0494
613.00,0.0459
610.00,0.0496
607.00,0.0501
604.00,0.0425
601.00,0.0366
598.00,0.0342
595.00,0.0360
592.00,0.0451
589.00,0.0477
586.00,0.0482
583.00,0.0489
580.00,0.0395
577.00,0.0344
574.00,0.0325
571.00,0.0337
568.00,0.0374
565.00,0.0411
562.00,0.0400
559.00,0.0339
556.00,0.0303
553.00,0.0282
550.00,0.0268
547.00,0.0259
544.00,0.0250
541.00,0.0245
538.00,0.0239
535.00,0.0231
532.00,0.0228
529.00,0.0226
526.00,0.0223
523.00,0.0216
520.00,0.0216
517.00,0.0223
514.00,0.0243
511.00,0.0250
508.00,0.0226
505.00,0.0213
502.00,0.0212
499.00,0.0199
496.00,0.0196
493.00,0.0198
490.00,0.0196
487.00,0.0199
484.00,0.0205
481.00,0.0220
478.00,0.0244
475.00,0.0280
472.00,0.0382
469.00,0.0464
466.00,0.0467
463.00,0.0407
460.00,0.0349
457.00,0.0303
454.00,0.0269
451.00,0.0257
448.00,0.0241
445.00,0.0239
442.00,0.0226
439.00,0.0219
436.00,0.0229
433.00,0.0231
430.00,0.0230
427.00,0.0225
424.00,0.0240
421.00,0.0277
418.00,0.0338
415.00,0.0406
412.00,0.0468
409.00,0.0468
406.00,0.0443
403.00,0.0360
400.00,0.0336