File: FTIR/Olivia/2025_07_31_Polystyrene_Std_scan1.csv
Created as New Dataset,Sample 1000 By YargerLab Date Thursday, July 31 2025
cm-1,A
4000.00,0.0002
3997.00,0.0002
3994.00,0.0002
3991.00,0.0001
3988.00,0.0001
3985.00,0.0001
3982.00,0.0002
3979.00,0.0002
3976.00,0.0001
3973.00,0.0001
3970.00,0.0001
3967.00,0.0001
3964.00,0.0001
3961.00,0.0002
3958.00,0.0001
3955.00,0.0001
3952.00,0.0001
3949.00,0.0001
3946.00,0.0001
3943.00,0.0001
3940.00,0.0002
3937.00,0.0001
3934.00,0.0001
3931.00,0.0001
3928.00,0.0001
3925.00,0.0001
3922.00,0.0001
3919.00,0.0000
3916.00,0.0001
3913.00,0.0002
3910.00,0.0002
3907.00,0.0001
3904.00,0.0001
3901.00,0.0000
3898.00,0.0000
3895.00,0.0000
3892.00,0.0001
3889.00,0.0001
3886.00,0.0001
3883.00,0.0001
3880.00,0.0001
3877.00,0.0000
3874.00,0.0001
3871.00,0.0000
3868.00,0.0001
3865.00,-0.0000
3862.00,0.0001
3859.00,0.0001
3856.00,-0.0000
3853.00,-0.0001
3850.00,-0.0001
3847.00,0.0001
3844.00,0.0001
3841.00,0.0001
3838.00,-0.0000
3835.00,0.0000
3832.00,0.0001
3829.00,0.0001
3826.00,0.0001
3823.00,-0.0000
3820.00,0.0001
3817.00,-0.0000
3814.00,0.0001
3811.00,0.0001
3808.00,0.0001
3805.00,0.0002
3802.00,0.0001
3799.00,0.0001
3796.00,0.0001
3793.00,0.0002
3790.00,0.0002
3787.00,0.0002
3784.00,0.0002
3781.00,0.0001
3778.00,0.0002
3775.00,0.0002
3772.00,0.0002
3769.00,0.0002
3766.00,0.0002
3763.00,0.0002
3760.00,0.0003
3757.00,0.0002
3754.00,0.0001
3751.00,0.0000
3748.00,-0.0001
3745.00,-0.0000
3742.00,-0.0000
3739.00,0.0001
3736.00,0.0001
3733.00,-0.0000
3730.00,0.0001
3727.00,0.0001
3724.00,0.0001
3721.00,0.0001
3718.00,0.0001
3715.00,0.0001
3712.00,-0.0000
3709.00,0.0000
3706.00,0.0001
3703.00,0.0001
3700.00,0.0001
3697.00,0.0000
3694.00,0.0000
3691.00,0.0000
3688.00,-0.0000
3685.00,-0.0000
3682.00,0.0000
3679.00,0.0000
3676.00,-0.0001
3673.00,-0.0001
3670.00,-0.0001
3667.00,0.0000
3664.00,0.0001
3661.00,0.0001
3658.00,0.0000
3655.00,0.0001
3652.00,0.0000
3649.00,-0.0000
3646.00,-0.0001
3643.00,0.0001
3640.00,0.0001
3637.00,0.0000
3634.00,0.0000
3631.00,-0.0001
3628.00,-0.0001
3625.00,0.0000
3622.00,0.0001
3619.00,0.0000
3616.00,0.0000
3613.00,0.0001
3610.00,0.0000
3607.00,0.0001
3604.00,0.0001
3601.00,0.0001
3598.00,0.0001
3595.00,0.0001
3592.00,0.0001
3589.00,0.0001
3586.00,0.0001
3583.00,0.0001
3580.00,0.0002
3577.00,0.0002
3574.00,0.0001
3571.00,0.0002
3568.00,0.0002
3565.00,0.0001
3562.00,0.0002
3559.00,0.0002
3556.00,0.0002
3553.00,0.0002
3550.00,0.0003
3547.00,0.0002
3544.00,0.0002
3541.00,0.0003
3538.00,0.0003
3535.00,0.0003
3532.00,0.0004
3529.00,0.0004
3526.00,0.0004
3523.00,0.0004
3520.00,0.0003
3517.00,0.0003
3514.00,0.0004
3511.00,0.0004
3508.00,0.0005
3505.00,0.0004
3502.00,0.0004
3499.00,0.0005
3496.00,0.0005
3493.00,0.0004
3490.00,0.0005
3487.00,0.0005
3484.00,0.0004
3481.00,0.0005
3478.00,0.0005
3475.00,0.0005
3472.00,0.0005
3469.00,0.0006
3466.00,0.0005
3463.00,0.0005
3460.00,0.0005
3457.00,0.0005
3454.00,0.0005
3451.00,0.0005
3448.00,0.0005
3445.00,0.0005
3442.00,0.0006
3439.00,0.0006
3436.00,0.0005
3433.00,0.0005
3430.00,0.0005
3427.00,0.0005
3424.00,0.0005
3421.00,0.0005
3418.00,0.0005
3415.00,0.0005
3412.00,0.0005
3409.00,0.0005
3406.00,0.0005
3403.00,0.0005
3400.00,0.0005
3397.00,0.0006
3394.00,0.0006
3391.00,0.0006
3388.00,0.0006
3385.00,0.0005
3382.00,0.0005
3379.00,0.0006
3376.00,0.0005
3373.00,0.0005
3370.00,0.0006
3367.00,0.0006
3364.00,0.0006
3361.00,0.0005
3358.00,0.0005
3355.00,0.0005
3352.00,0.0006
3349.00,0.0006
3346.00,0.0006
3343.00,0.0005
3340.00,0.0005
3337.00,0.0005
3334.00,0.0005
3331.00,0.0005
3328.00,0.0006
3325.00,0.0006
3322.00,0.0006
3319.00,0.0006
3316.00,0.0006
3313.00,0.0005
3310.00,0.0005
3307.00,0.0005
3304.00,0.0005
3301.00,0.0005
3298.00,0.0005
3295.00,0.0005
3292.00,0.0005
3289.00,0.0006
3286.00,0.0005
3283.00,0.0005
3280.00,0.0005
3277.00,0.0005
3274.00,0.0005
3271.00,0.0006
3268.00,0.0005
3265.00,0.0005
3262.00,0.0005
3259.00,0.0005
3256.00,0.0005
3253.00,0.0005
3250.00,0.0005
3247.00,0.0004
3244.00,0.0005
3241.00,0.0005
3238.00,0.0005
3235.00,0.0004
3232.00,0.0005
3229.00,0.0004
3226.00,0.0004
3223.00,0.0004
3220.00,0.0004
3217.00,0.0004
3214.00,0.0004
3211.00,0.0004
3208.00,0.0005
3205.00,0.0005
3202.00,0.0005
3199.00,0.0005
3196.00,0.0005
3193.00,0.0005
3190.00,0.0005
3187.00,0.0005
3184.00,0.0004
3181.00,0.0004
3178.00,0.0004
3175.00,0.0004
3172.00,0.0004
3169.00,0.0004
3166.00,0.0005
3163.00,0.0005
3160.00,0.0005
3157.00,0.0005
3154.00,0.0004
3151.00,0.0004
3148.00,0.0004
3145.00,0.0004
3142.00,0.0004
3139.00,0.0005
3136.00,0.0004
3133.00,0.0004
3130.00,0.0004
3127.00,0.0005
3124.00,0.0005
3121.00,0.0005
3118.00,0.0005
3115.00,0.0006
3112.00,0.0007
3109.00,0.0010
3106.00,0.0012
3103.00,0.0014
3100.00,0.0013
3097.00,0.0013
3094.00,0.0013
3091.00,0.0016
3088.00,0.0022
3085.00,0.0030
3082.00,0.0035
3079.00,0.0033
3076.00,0.0028
3073.00,0.0026
3070.00,0.0027
3067.00,0.0032
3064.00,0.0040
3061.00,0.0047
3058.00,0.0048
3055.00,0.0042
3052.00,0.0034
3049.00,0.0027
3046.00,0.0025
3043.00,0.0025
3040.00,0.0027
3037.00,0.0034
3034.00,0.0046
3031.00,0.0064
3028.00,0.0084
3025.00,0.0095
3022.00,0.0085
3019.00,0.0062
3016.00,0.0040
3013.00,0.0028
3010.00,0.0022
3007.00,0.0020
3004.00,0.0022
3001.00,0.0023
2998.00,0.0020
2995.00,0.0015
2992.00,0.0011
2989.00,0.0009
2986.00,0.0008
2983.00,0.0007
2980.00,0.0007
2977.00,0.0009
2974.00,0.0010
2971.00,0.0011
2968.00,0.0013
2965.00,0.0016
2962.00,0.0018
2959.00,0.0021
2956.00,0.0025
2953.00,0.0028
2950.00,0.0032
2947.00,0.0039
2944.00,0.0046
2941.00,0.0055
2938.00,0.0066
2935.00,0.0077
2932.00,0.0090
2929.00,0.0102
2926.00,0.0111
2923.00,0.0116
2920.00,0.0117
2917.00,0.0114
2914.00,0.0108
2911.00,0.0098
2908.00,0.0089
2905.00,0.0079
2902.00,0.0070
2899.00,0.0061
2896.00,0.0053
2893.00,0.0047
2890.00,0.0042
2887.00,0.0038
2884.00,0.0035
2881.00,0.0033
2878.00,0.0031
2875.00,0.0029
2872.00,0.0028
2869.00,0.0028
2866.00,0.0028
2863.00,0.0031
2860.00,0.0035
2857.00,0.0041
2854.00,0.0046
2851.00,0.0051
2848.00,0.0051
2845.00,0.0047
2842.00,0.0039
2839.00,0.0029
2836.00,0.0021
2833.00,0.0015
2830.00,0.0012
2827.00,0.0010
2824.00,0.0009
2821.00,0.0008
2818.00,0.0008
2815.00,0.0008
2812.00,0.0007
2809.00,0.0008
2806.00,0.0007
2803.00,0.0007
2800.00,0.0006
2797.00,0.0006
2794.00,0.0006
2791.00,0.0006
2788.00,0.0006
2785.00,0.0006
2782.00,0.0006
2779.00,0.0005
2776.00,0.0005
2773.00,0.0005
2770.00,0.0006
2767.00,0.0005
2764.00,0.0005
2761.00,0.0004
2758.00,0.0004
2755.00,0.0005
2752.00,0.0004
2749.00,0.0004
2746.00,0.0005
2743.00,0.0004
2740.00,0.0005
2737.00,0.0005
2734.00,0.0005
2731.00,0.0004
2728.00,0.0004
2725.00,0.0005
2722.00,0.0005
2719.00,0.0005
2716.00,0.0005
2713.00,0.0005
2710.00,0.0004
2707.00,0.0004
2704.00,0.0005
2701.00,0.0005
2698.00,0.0005
2695.00,0.0005
2692.00,0.0005
2689.00,0.0005
2686.00,0.0005
2683.00,0.0005
2680.00,0.0005
2677.00,0.0005
2674.00,0.0004
2671.00,0.0005
2668.00,0.0005
2665.00,0.0006
2662.00,0.0007
2659.00,0.0008
2656.00,0.0008
2653.00,0.0009
2650.00,0.0009
2647.00,0.0009
2644.00,0.0009
2641.00,0.0009
2638.00,0.0009
2635.00,0.0009
2632.00,0.0009
2629.00,0.0009
2626.00,0.0009
2623.00,0.0009
2620.00,0.0009
2617.00,0.0008
2614.00,0.0008
2611.00,0.0008
2608.00,0.0008
2605.00,0.0008
2602.00,0.0008
2599.00,0.0008
2596.00,0.0007
2593.00,0.0006
2590.00,0.0006
2587.00,0.0006
2584.00,0.0006
2581.00,0.0006
2578.00,0.0006
2575.00,0.0005
2572.00,0.0004
2569.00,0.0004
2566.00,0.0004
2563.00,0.0004
2560.00,0.0005
2557.00,0.0004
2554.00,0.0003
2551.00,0.0004
2548.00,0.0004
2545.00,0.0004
2542.00,0.0004
2539.00,0.0003
2536.00,0.0003
2533.00,0.0003
2530.00,0.0003
2527.00,0.0003
2524.00,0.0003
2521.00,0.0002
2518.00,0.0003
2515.00,0.0004
2512.00,0.0004
2509.00,0.0002
2506.00,0.0002
2503.00,0.0002
2500.00,0.0002
2497.00,0.0003
2494.00,0.0003
2491.00,0.0003
2488.00,0.0003
2485.00,0.0002
2482.00,0.0002
2479.00,0.0002
2476.00,0.0002
2473.00,0.0002
2470.00,0.0001
2467.00,0.0001
2464.00,0.0002
2461.00,0.0002
2458.00,0.0003
2455.00,0.0004
2452.00,0.0003
2449.00,0.0003
2446.00,0.0002
2443.00,0.0002
2440.00,0.0002
2437.00,0.0002
2434.00,0.0001
2431.00,0.0002
2428.00,0.0001
2425.00,0.0001
2422.00,0.0001
2419.00,0.0001
2416.00,0.0000
2413.00,0.0000
2410.00,0.0000
2407.00,-0.0001
2404.00,-0.0002
2401.00,-0.0001
2398.00,-0.0001
2395.00,-0.0001
2392.00,-0.0001
2389.00,-0.0001
2386.00,-0.0002
2383.00,-0.0002
2380.00,-0.0002
2377.00,-0.0002
2374.00,-0.0002
2371.00,-0.0002
2368.00,-0.0002
2365.00,-0.0002
2362.00,-0.0001
2359.00,0.0000
2356.00,0.0000
2353.00,-0.0000
2350.00,0.0000
2347.00,0.0001
2344.00,0.0002
2341.00,0.0003
2338.00,0.0004
2335.00,0.0003
2332.00,0.0002
2329.00,0.0005
2326.00,0.0014
2323.00,0.0013
2320.00,0.0010
2317.00,0.0009
2314.00,0.0007
2311.00,0.0008
2308.00,0.0007
2305.00,0.0007
2302.00,0.0007
2299.00,0.0007
2296.00,0.0008
2293.00,0.0010
2290.00,0.0011
2287.00,0.0012
2284.00,0.0011
2281.00,0.0009
2278.00,0.0007
2275.00,0.0006
2272.00,0.0006
2269.00,0.0006
2266.00,0.0005
2263.00,0.0005
2260.00,0.0006
2257.00,0.0007
2254.00,0.0005
2251.00,0.0004
2248.00,0.0003
2245.00,0.0002
2242.00,0.0002
2239.00,0.0002
2236.00,0.0002
2233.00,0.0004
2230.00,0.0003
2227.00,0.0002
2224.00,0.0001
2221.00,0.0002
2218.00,0.0003
2215.00,0.0003
2212.00,0.0003
2209.00,0.0003
2206.00,0.0002
2203.00,0.0002
2200.00,0.0002
2197.00,0.0003
2194.00,0.0004
2191.00,0.0004
2188.00,0.0003
2185.00,0.0004
2182.00,0.0001
2179.00,0.0001
2176.00,-0.0004
2173.00,-0.0001
2170.00,0.0006
2167.00,0.0009
2164.00,0.0009
2161.00,-0.0001
2158.00,-0.0025
2155.00,-0.0022
2152.00,-0.0018
2149.00,-0.0015
2146.00,-0.0015
2143.00,-0.0012
2140.00,-0.0011
2137.00,-0.0016
2134.00,-0.0021
2131.00,-0.0017
2128.00,-0.0011
2125.00,-0.0009
2122.00,-0.0007
2119.00,-0.0005
2116.00,-0.0002
2113.00,-0.0000
2110.00,-0.0001
2107.00,-0.0001
2104.00,0.0001
2101.00,-0.0001
2098.00,-0.0003
2095.00,-0.0006
2092.00,-0.0003
2089.00,-0.0001
2086.00,-0.0001
2083.00,0.0001
2080.00,0.0002
2077.00,0.0003
2074.00,0.0002
2071.00,0.0001
2068.00,0.0002
2065.00,0.0002
2062.00,-0.0001
2059.00,-0.0002
2056.00,-0.0001
2053.00,0.0005
2050.00,0.0007
2047.00,0.0006
2044.00,0.0003
2041.00,0.0002
2038.00,0.0001
2035.00,-0.0001
2032.00,-0.0002
2029.00,-0.0005
2026.00,-0.0005
2023.00,-0.0006
2020.00,-0.0008
2017.00,-0.0007
2014.00,-0.0005
2011.00,-0.0004
2008.00,-0.0008
2005.00,-0.0008
2002.00,-0.0004
1999.00,-0.0002
1996.00,-0.0001
1993.00,0.0002
1990.00,-0.0002
1987.00,0.0001
1984.00,0.0007
1981.00,0.0010
1978.00,0.0000
1975.00,-0.0006
1972.00,-0.0008
1969.00,-0.0005
1966.00,-0.0003
1963.00,-0.0004
1960.00,-0.0005
1957.00,-0.0004
1954.00,0.0001
1951.00,0.0003
1948.00,0.0005
1945.00,0.0006
1942.00,0.0005
1939.00,0.0003
1936.00,0.0004
1933.00,0.0001
1930.00,-0.0002
1927.00,-0.0001
1924.00,-0.0003
1921.00,-0.0003
1918.00,-0.0002
1915.00,-0.0002
1912.00,-0.0003
1909.00,-0.0002
1906.00,-0.0003
1903.00,-0.0002
1900.00,-0.0001
1897.00,-0.0001
1894.00,0.0001
1891.00,0.0003
1888.00,0.0004
1885.00,0.0005
1882.00,0.0006
1879.00,0.0007
1876.00,0.0007
1873.00,0.0009
1870.00,0.0010
1867.00,0.0008
1864.00,0.0006
1861.00,0.0005
1858.00,0.0003
1855.00,0.0001
1852.00,-0.0000
1849.00,-0.0000
1846.00,-0.0001
1843.00,-0.0001
1840.00,-0.0001
1837.00,-0.0000
1834.00,0.0000
1831.00,0.0000
1828.00,0.0002
1825.00,0.0004
1822.00,0.0005
1819.00,0.0003
1816.00,0.0004
1813.00,0.0007
1810.00,0.0009
1807.00,0.0011
1804.00,0.0012
1801.00,0.0013
1798.00,0.0012
1795.00,0.0010
1792.00,0.0008
1789.00,0.0007
1786.00,0.0006
1783.00,0.0006
1780.00,0.0005
1777.00,0.0006
1774.00,0.0006
1771.00,0.0007
1768.00,0.0007
1765.00,0.0008
1762.00,0.0009
1759.00,0.0010
1756.00,0.0012
1753.00,0.0014
1750.00,0.0017
1747.00,0.0018
1744.00,0.0019
1741.00,0.0020
1738.00,0.0020
1735.00,0.0021
1732.00,0.0019
1729.00,0.0018
1726.00,0.0017
1723.00,0.0016
1720.00,0.0016
1717.00,0.0015
1714.00,0.0013
1711.00,0.0012
1708.00,0.0013
1705.00,0.0013
1702.00,0.0013
1699.00,0.0013
1696.00,0.0013
1693.00,0.0013
1690.00,0.0015
1687.00,0.0018
1684.00,0.0018
1681.00,0.0019
1678.00,0.0020
1675.00,0.0020
1672.00,0.0020
1669.00,0.0021
1666.00,0.0022
1663.00,0.0022
1660.00,0.0021
1657.00,0.0020
1654.00,0.0019
1651.00,0.0017
1648.00,0.0017
1645.00,0.0014
1642.00,0.0014
1639.00,0.0014
1636.00,0.0012
1633.00,0.0012
1630.00,0.0013
1627.00,0.0013
1624.00,0.0014
1621.00,0.0015
1618.00,0.0016
1615.00,0.0017
1612.00,0.0022
1609.00,0.0033
1606.00,0.0058
1603.00,0.0091
1600.00,0.0100
1597.00,0.0074
1594.00,0.0048
1591.00,0.0035
1588.00,0.0031
1585.00,0.0040
1582.00,0.0043
1579.00,0.0030
1576.00,0.0019
1573.00,0.0014
1570.00,0.0012
1567.00,0.0011
1564.00,0.0010
1561.00,0.0010
1558.00,0.0010
1555.00,0.0011
1552.00,0.0013
1549.00,0.0015
1546.00,0.0016
1543.00,0.0017
1540.00,0.0016
1537.00,0.0015
1534.00,0.0014
1531.00,0.0012
1528.00,0.0012
1525.00,0.0010
1522.00,0.0011
1519.00,0.0011
1516.00,0.0012
1513.00,0.0013
1510.00,0.0015
1507.00,0.0016
1504.00,0.0022
1501.00,0.0035
1498.00,0.0075
1495.00,0.0187
1492.00,0.0263
1489.00,0.0165
1486.00,0.0083
1483.00,0.0051
1480.00,0.0036
1477.00,0.0030
1474.00,0.0028
1471.00,0.0027
1468.00,0.0030
1465.00,0.0034
1462.00,0.0041
1459.00,0.0060
1456.00,0.0140
1453.00,0.0243
1450.00,0.0253
1447.00,0.0192
1444.00,0.0151
1441.00,0.0119
1438.00,0.0096
1435.00,0.0066
1432.00,0.0051
1429.00,0.0039
1426.00,0.0033
1423.00,0.0030
1420.00,0.0028
1417.00,0.0024
1414.00,0.0023
1411.00,0.0023
1408.00,0.0022
1405.00,0.0023
1402.00,0.0022
1399.00,0.0022
1396.00,0.0023
1393.00,0.0024
1390.00,0.0029
1387.00,0.0035
1384.00,0.0041
1381.00,0.0047
1378.00,0.0052
1375.00,0.0057
1372.00,0.0058
1369.00,0.0057
1366.00,0.0057
1363.00,0.0056
1360.00,0.0054
1357.00,0.0051
1354.00,0.0049
1351.00,0.0049
1348.00,0.0049
1345.00,0.0047
1342.00,0.0045
1339.00,0.0043
1336.00,0.0044
1333.00,0.0047
1330.00,0.0051
1327.00,0.0051
1324.00,0.0049
1321.00,0.0048
1318.00,0.0048
1315.00,0.0050
1312.00,0.0050
1309.00,0.0049
1306.00,0.0047
1303.00,0.0045
1300.00,0.0044
1297.00,0.0043
1294.00,0.0042
1291.00,0.0042
1288.00,0.0042
1285.00,0.0040
1282.00,0.0039
1279.00,0.0038
1276.00,0.0036
1273.00,0.0034
1270.00,0.0031
1267.00,0.0030
1264.00,0.0028
1261.00,0.0028
1258.00,0.0027
1255.00,0.0027
1252.00,0.0028
1249.00,0.0029
1246.00,0.0029
1243.00,0.0029
1240.00,0.0029
1237.00,0.0029
1234.00,0.0029
1231.00,0.0029
1228.00,0.0030
1225.00,0.0030
1222.00,0.0030
1219.00,0.0031
1216.00,0.0031
1213.00,0.0032
1210.00,0.0034
1207.00,0.0036
1204.00,0.0039
1201.00,0.0043
1198.00,0.0046
1195.00,0.0048
1192.00,0.0048
1189.00,0.0049
1186.00,0.0053
1183.00,0.0061
1180.00,0.0063
1177.00,0.0052
1174.00,0.0042
1171.00,0.0038
1168.00,0.0038
1165.00,0.0038
1162.00,0.0040
1159.00,0.0049
1156.00,0.0062
1153.00,0.0063
1150.00,0.0049
1147.00,0.0038
1144.00,0.0032
1141.00,0.0028
1138.00,0.0026
1135.00,0.0026
1132.00,0.0027
1129.00,0.0027
1126.00,0.0028
1123.00,0.0028
1120.00,0.0030
1117.00,0.0034
1114.00,0.0037
1111.00,0.0039
1108.00,0.0038
1105.00,0.0038
1102.00,0.0038
1099.00,0.0039
1096.00,0.0041
1093.00,0.0042
1090.00,0.0044
1087.00,0.0047
1084.00,0.0052
1081.00,0.0058
1078.00,0.0064
1075.00,0.0073
1072.00,0.0085
1069.00,0.0090
1066.00,0.0087
1063.00,0.0078
1060.00,0.0070
1057.00,0.0063
1054.00,0.0058
1051.00,0.0052
1048.00,0.0050
1045.00,0.0048
1042.00,0.0047
1039.00,0.0052
1036.00,0.0069
1033.00,0.0105
1030.00,0.0144
1027.00,0.0153
1024.00,0.0126
1021.00,0.0099
1018.00,0.0083
1015.00,0.0074
1012.00,0.0066
1009.00,0.0063
1006.00,0.0065
1003.00,0.0069
1000.00,0.0061
997.00,0.0051
994.00,0.0048
991.00,0.0049
988.00,0.0051
985.00,0.0056
982.00,0.0061
979.00,0.0061
976.00,0.0058
973.00,0.0056
970.00,0.0058
967.00,0.0064
964.00,0.0067
961.00,0.0063
958.00,0.0054
955.00,0.0048
952.00,0.0048
949.00,0.0049
946.00,0.0052
943.00,0.0052
940.00,0.0051
937.00,0.0047
934.00,0.0043
931.00,0.0039
928.00,0.0037
925.00,0.0039
922.00,0.0042
919.00,0.0047
916.00,0.0056
913.00,0.0074
910.00,0.0096
907.00,0.0109
904.00,0.0104
901.00,0.0082
898.00,0.0060
895.00,0.0047
892.00,0.0040
889.00,0.0036
886.00,0.0034
883.00,0.0032
880.00,0.0030
877.00,0.0029
874.00,0.0030
871.00,0.0029
868.00,0.0028
865.00,0.0027
862.00,0.0027
859.00,0.0028
856.00,0.0029
853.00,0.0031
850.00,0.0037
847.00,0.0047
844.00,0.0056
841.00,0.0059
838.00,0.0053
835.00,0.0042
832.00,0.0033
829.00,0.0028
826.00,0.0026
823.00,0.0025
820.00,0.0026
817.00,0.0027
814.00,0.0028
811.00,0.0028
808.00,0.0028
805.00,0.0028
802.00,0.0031
799.00,0.0033
796.00,0.0038
793.00,0.0045
790.00,0.0053
787.00,0.0064
784.00,0.0077
781.00,0.0093
778.00,0.0119
775.00,0.0156
772.00,0.0202
769.00,0.0258
766.00,0.0315
763.00,0.0369
760.00,0.0426
757.00,0.0469
754.00,0.0480
751.00,0.0475
748.00,0.0472
745.00,0.0436
742.00,0.0349
739.00,0.0258
736.00,0.0185
733.00,0.0123
730.00,0.0083
727.00,0.0066
724.00,0.0058
721.00,0.0055
718.00,0.0060
715.00,0.0075
712.00,0.0110
709.00,0.0200
706.00,0.0385
703.00,0.0682
700.00,0.1049
697.00,0.1397
694.00,0.1479
691.00,0.1110
688.00,0.0722
685.00,0.0507
682.00,0.0388
679.00,0.0313
676.00,0.0266
673.00,0.0235
670.00,0.0217
667.00,0.0192
664.00,0.0171
661.00,0.0150
658.00,0.0131
655.00,0.0114
652.00,0.0100
649.00,0.0091
646.00,0.0085
643.00,0.0081
640.00,0.0080
637.00,0.0085
634.00,0.0091
631.00,0.0095
628.00,0.0101
625.00,0.0106
622.00,0.0110
619.00,0.0109
616.00,0.0099
613.00,0.0090
610.00,0.0089
607.00,0.0086
604.00,0.0087
601.00,0.0089
598.00,0.0092
595.00,0.0095
592.00,0.0101
589.00,0.0104
586.00,0.0111
583.00,0.0119
580.00,0.0132
577.00,0.0146
574.00,0.0166
571.00,0.0189
568.00,0.0212
565.00,0.0233
562.00,0.0254
559.00,0.0274
556.00,0.0298
553.00,0.0323
550.00,0.0353
547.00,0.0394
544.00,0.0442
541.00,0.0496
538.00,0.0523
535.00,0.0499
532.00,0.0430
529.00,0.0357
526.00,0.0291
523.00,0.0242
520.00,0.0209
517.00,0.0188
514.00,0.0170
511.00,0.0156
508.00,0.0141
505.00,0.0128
502.00,0.0123
499.00,0.0111
496.00,0.0105
493.00,0.0100
490.00,0.0096
487.00,0.0092
484.00,0.0088
481.00,0.0089
478.00,0.0087
475.00,0.0083
472.00,0.0083
469.00,0.0080
466.00,0.0083
463.00,0.0081
460.00,0.0082
457.00,0.0083
454.00,0.0079
451.00,0.0073
448.00,0.0070
445.00,0.0068
442.00,0.0069
439.00,0.0070
436.00,0.0068
433.00,0.0059
430.00,0.0061
427.00,0.0052
424.00,0.0046
421.00,0.0052
418.00,0.0059
415.00,0.0060
412.00,0.0054
409.00,0.0082
406.00,0.0073
403.00,0.0065
400.00,0.0082