File: FTIR/Olivia/2025_08_15_1CBG_3PVP29_silicone_powder_scan1.csv
Created as New Dataset,Sample 121 By YargerLab Date Friday, August 15 2025
cm-1,A
4000.00,0.0056
3997.00,0.0056
3994.00,0.0056
3991.00,0.0056
3988.00,0.0056
3985.00,0.0056
3982.00,0.0056
3979.00,0.0056
3976.00,0.0056
3973.00,0.0056
3970.00,0.0056
3967.00,0.0056
3964.00,0.0056
3961.00,0.0056
3958.00,0.0056
3955.00,0.0056
3952.00,0.0056
3949.00,0.0055
3946.00,0.0055
3943.00,0.0056
3940.00,0.0055
3937.00,0.0055
3934.00,0.0055
3931.00,0.0055
3928.00,0.0055
3925.00,0.0055
3922.00,0.0055
3919.00,0.0055
3916.00,0.0055
3913.00,0.0055
3910.00,0.0055
3907.00,0.0056
3904.00,0.0055
3901.00,0.0054
3898.00,0.0055
3895.00,0.0055
3892.00,0.0055
3889.00,0.0056
3886.00,0.0055
3883.00,0.0053
3880.00,0.0054
3877.00,0.0054
3874.00,0.0054
3871.00,0.0054
3868.00,0.0054
3865.00,0.0054
3862.00,0.0054
3859.00,0.0055
3856.00,0.0054
3853.00,0.0053
3850.00,0.0053
3847.00,0.0055
3844.00,0.0055
3841.00,0.0054
3838.00,0.0054
3835.00,0.0053
3832.00,0.0054
3829.00,0.0054
3826.00,0.0054
3823.00,0.0054
3820.00,0.0054
3817.00,0.0054
3814.00,0.0055
3811.00,0.0055
3808.00,0.0056
3805.00,0.0054
3802.00,0.0054
3799.00,0.0054
3796.00,0.0054
3793.00,0.0055
3790.00,0.0055
3787.00,0.0055
3784.00,0.0055
3781.00,0.0055
3778.00,0.0055
3775.00,0.0055
3772.00,0.0055
3769.00,0.0055
3766.00,0.0055
3763.00,0.0055
3760.00,0.0055
3757.00,0.0055
3754.00,0.0054
3751.00,0.0054
3748.00,0.0052
3745.00,0.0052
3742.00,0.0052
3739.00,0.0053
3736.00,0.0053
3733.00,0.0052
3730.00,0.0053
3727.00,0.0054
3724.00,0.0054
3721.00,0.0054
3718.00,0.0054
3715.00,0.0054
3712.00,0.0053
3709.00,0.0054
3706.00,0.0054
3703.00,0.0055
3700.00,0.0054
3697.00,0.0055
3694.00,0.0056
3691.00,0.0056
3688.00,0.0057
3685.00,0.0059
3682.00,0.0061
3679.00,0.0062
3676.00,0.0062
3673.00,0.0061
3670.00,0.0063
3667.00,0.0064
3664.00,0.0066
3661.00,0.0067
3658.00,0.0068
3655.00,0.0068
3652.00,0.0068
3649.00,0.0069
3646.00,0.0072
3643.00,0.0075
3640.00,0.0077
3637.00,0.0079
3634.00,0.0082
3631.00,0.0083
3628.00,0.0085
3625.00,0.0088
3622.00,0.0090
3619.00,0.0093
3616.00,0.0095
3613.00,0.0098
3610.00,0.0100
3607.00,0.0104
3604.00,0.0106
3601.00,0.0109
3598.00,0.0112
3595.00,0.0116
3592.00,0.0120
3589.00,0.0123
3586.00,0.0127
3583.00,0.0130
3580.00,0.0133
3577.00,0.0137
3574.00,0.0141
3571.00,0.0145
3568.00,0.0149
3565.00,0.0152
3562.00,0.0157
3559.00,0.0160
3556.00,0.0164
3553.00,0.0168
3550.00,0.0172
3547.00,0.0176
3544.00,0.0180
3541.00,0.0183
3538.00,0.0186
3535.00,0.0190
3532.00,0.0193
3529.00,0.0196
3526.00,0.0199
3523.00,0.0202
3520.00,0.0205
3517.00,0.0208
3514.00,0.0211
3511.00,0.0214
3508.00,0.0217
3505.00,0.0220
3502.00,0.0223
3499.00,0.0225
3496.00,0.0228
3493.00,0.0230
3490.00,0.0233
3487.00,0.0235
3484.00,0.0237
3481.00,0.0240
3478.00,0.0242
3475.00,0.0244
3472.00,0.0246
3469.00,0.0249
3466.00,0.0251
3463.00,0.0253
3460.00,0.0255
3457.00,0.0256
3454.00,0.0258
3451.00,0.0261
3448.00,0.0262
3445.00,0.0264
3442.00,0.0266
3439.00,0.0268
3436.00,0.0269
3433.00,0.0270
3430.00,0.0272
3427.00,0.0273
3424.00,0.0274
3421.00,0.0276
3418.00,0.0277
3415.00,0.0278
3412.00,0.0280
3409.00,0.0281
3406.00,0.0283
3403.00,0.0284
3400.00,0.0285
3397.00,0.0286
3394.00,0.0287
3391.00,0.0288
3388.00,0.0290
3385.00,0.0291
3382.00,0.0292
3379.00,0.0293
3376.00,0.0294
3373.00,0.0295
3370.00,0.0294
3367.00,0.0295
3364.00,0.0297
3361.00,0.0298
3358.00,0.0300
3355.00,0.0301
3352.00,0.0299
3349.00,0.0301
3346.00,0.0302
3343.00,0.0302
3340.00,0.0301
3337.00,0.0303
3334.00,0.0306
3331.00,0.0307
3328.00,0.0307
3325.00,0.0306
3322.00,0.0309
3319.00,0.0311
3316.00,0.0311
3313.00,0.0311
3310.00,0.0308
3307.00,0.0306
3304.00,0.0310
3301.00,0.0314
3298.00,0.0314
3295.00,0.0312
3292.00,0.0313
3289.00,0.0317
3286.00,0.0318
3283.00,0.0318
3280.00,0.0318
3277.00,0.0316
3274.00,0.0314
3271.00,0.0313
3268.00,0.0315
3265.00,0.0316
3262.00,0.0316
3259.00,0.0314
3256.00,0.0313
3253.00,0.0313
3250.00,0.0312
3247.00,0.0310
3244.00,0.0310
3241.00,0.0310
3238.00,0.0309
3235.00,0.0306
3232.00,0.0305
3229.00,0.0305
3226.00,0.0304
3223.00,0.0302
3220.00,0.0300
3217.00,0.0299
3214.00,0.0298
3211.00,0.0297
3208.00,0.0295
3205.00,0.0294
3202.00,0.0293
3199.00,0.0292
3196.00,0.0291
3193.00,0.0289
3190.00,0.0286
3187.00,0.0284
3184.00,0.0282
3181.00,0.0280
3178.00,0.0278
3175.00,0.0276
3172.00,0.0273
3169.00,0.0270
3166.00,0.0267
3163.00,0.0265
3160.00,0.0262
3157.00,0.0259
3154.00,0.0256
3151.00,0.0254
3148.00,0.0252
3145.00,0.0249
3142.00,0.0246
3139.00,0.0244
3136.00,0.0242
3133.00,0.0240
3130.00,0.0239
3127.00,0.0236
3124.00,0.0234
3121.00,0.0232
3118.00,0.0230
3115.00,0.0227
3112.00,0.0224
3109.00,0.0221
3106.00,0.0219
3103.00,0.0216
3100.00,0.0213
3097.00,0.0210
3094.00,0.0207
3091.00,0.0204
3088.00,0.0202
3085.00,0.0199
3082.00,0.0197
3079.00,0.0194
3076.00,0.0192
3073.00,0.0190
3070.00,0.0188
3067.00,0.0186
3064.00,0.0185
3061.00,0.0183
3058.00,0.0181
3055.00,0.0180
3052.00,0.0178
3049.00,0.0177
3046.00,0.0175
3043.00,0.0174
3040.00,0.0172
3037.00,0.0171
3034.00,0.0170
3031.00,0.0170
3028.00,0.0170
3025.00,0.0169
3022.00,0.0169
3019.00,0.0169
3016.00,0.0170
3013.00,0.0171
3010.00,0.0175
3007.00,0.0180
3004.00,0.0186
3001.00,0.0195
2998.00,0.0206
2995.00,0.0221
2992.00,0.0236
2989.00,0.0252
2986.00,0.0266
2983.00,0.0278
2980.00,0.0289
2977.00,0.0303
2974.00,0.0317
2971.00,0.0333
2968.00,0.0354
2965.00,0.0374
2962.00,0.0393
2959.00,0.0406
2956.00,0.0413
2953.00,0.0414
2950.00,0.0409
2947.00,0.0404
2944.00,0.0402
2941.00,0.0407
2938.00,0.0419
2935.00,0.0436
2932.00,0.0453
2929.00,0.0469
2926.00,0.0481
2923.00,0.0485
2920.00,0.0482
2917.00,0.0473
2914.00,0.0458
2911.00,0.0440
2908.00,0.0422
2905.00,0.0405
2902.00,0.0392
2899.00,0.0383
2896.00,0.0377
2893.00,0.0372
2890.00,0.0366
2887.00,0.0361
2884.00,0.0355
2881.00,0.0353
2878.00,0.0352
2875.00,0.0352
2872.00,0.0354
2869.00,0.0353
2866.00,0.0351
2863.00,0.0353
2860.00,0.0359
2857.00,0.0361
2854.00,0.0353
2851.00,0.0335
2848.00,0.0312
2845.00,0.0289
2842.00,0.0266
2839.00,0.0246
2836.00,0.0232
2833.00,0.0219
2830.00,0.0209
2827.00,0.0198
2824.00,0.0187
2821.00,0.0177
2818.00,0.0169
2815.00,0.0162
2812.00,0.0156
2809.00,0.0152
2806.00,0.0149
2803.00,0.0145
2800.00,0.0142
2797.00,0.0140
2794.00,0.0137
2791.00,0.0135
2788.00,0.0134
2785.00,0.0133
2782.00,0.0131
2779.00,0.0131
2776.00,0.0129
2773.00,0.0127
2770.00,0.0127
2767.00,0.0126
2764.00,0.0125
2761.00,0.0125
2758.00,0.0124
2755.00,0.0124
2752.00,0.0124
2749.00,0.0125
2746.00,0.0125
2743.00,0.0125
2740.00,0.0126
2737.00,0.0125
2734.00,0.0126
2731.00,0.0126
2728.00,0.0126
2725.00,0.0126
2722.00,0.0126
2719.00,0.0125
2716.00,0.0125
2713.00,0.0124
2710.00,0.0123
2707.00,0.0123
2704.00,0.0123
2701.00,0.0122
2698.00,0.0122
2695.00,0.0121
2692.00,0.0120
2689.00,0.0120
2686.00,0.0119
2683.00,0.0119
2680.00,0.0118
2677.00,0.0117
2674.00,0.0117
2671.00,0.0116
2668.00,0.0116
2665.00,0.0116
2662.00,0.0117
2659.00,0.0117
2656.00,0.0116
2653.00,0.0116
2650.00,0.0115
2647.00,0.0114
2644.00,0.0113
2641.00,0.0113
2638.00,0.0112
2635.00,0.0111
2632.00,0.0110
2629.00,0.0109
2626.00,0.0108
2623.00,0.0107
2620.00,0.0107
2617.00,0.0106
2614.00,0.0104
2611.00,0.0104
2608.00,0.0103
2605.00,0.0102
2602.00,0.0103
2599.00,0.0103
2596.00,0.0102
2593.00,0.0102
2590.00,0.0101
2587.00,0.0102
2584.00,0.0102
2581.00,0.0102
2578.00,0.0101
2575.00,0.0101
2572.00,0.0100
2569.00,0.0100
2566.00,0.0099
2563.00,0.0098
2560.00,0.0098
2557.00,0.0097
2554.00,0.0096
2551.00,0.0096
2548.00,0.0096
2545.00,0.0094
2542.00,0.0095
2539.00,0.0094
2536.00,0.0094
2533.00,0.0094
2530.00,0.0094
2527.00,0.0093
2524.00,0.0092
2521.00,0.0091
2518.00,0.0092
2515.00,0.0091
2512.00,0.0090
2509.00,0.0090
2506.00,0.0090
2503.00,0.0089
2500.00,0.0089
2497.00,0.0090
2494.00,0.0088
2491.00,0.0088
2488.00,0.0088
2485.00,0.0087
2482.00,0.0087
2479.00,0.0087
2476.00,0.0087
2473.00,0.0086
2470.00,0.0086
2467.00,0.0086
2464.00,0.0086
2461.00,0.0087
2458.00,0.0086
2455.00,0.0086
2452.00,0.0087
2449.00,0.0086
2446.00,0.0085
2443.00,0.0085
2440.00,0.0084
2437.00,0.0083
2434.00,0.0083
2431.00,0.0085
2428.00,0.0084
2425.00,0.0084
2422.00,0.0083
2419.00,0.0084
2416.00,0.0084
2413.00,0.0083
2410.00,0.0084
2407.00,0.0083
2404.00,0.0084
2401.00,0.0083
2398.00,0.0083
2395.00,0.0084
2392.00,0.0083
2389.00,0.0083
2386.00,0.0081
2383.00,0.0078
2380.00,0.0077
2377.00,0.0077
2374.00,0.0077
2371.00,0.0077
2368.00,0.0075
2365.00,0.0076
2362.00,0.0077
2359.00,0.0077
2356.00,0.0078
2353.00,0.0079
2350.00,0.0078
2347.00,0.0079
2344.00,0.0079
2341.00,0.0080
2338.00,0.0082
2335.00,0.0083
2332.00,0.0082
2329.00,0.0085
2326.00,0.0093
2323.00,0.0091
2320.00,0.0088
2317.00,0.0086
2314.00,0.0085
2311.00,0.0083
2308.00,0.0083
2305.00,0.0083
2302.00,0.0084
2299.00,0.0085
2296.00,0.0088
2293.00,0.0089
2290.00,0.0092
2287.00,0.0092
2284.00,0.0090
2281.00,0.0089
2278.00,0.0087
2275.00,0.0087
2272.00,0.0087
2269.00,0.0084
2266.00,0.0083
2263.00,0.0083
2260.00,0.0085
2257.00,0.0084
2254.00,0.0083
2251.00,0.0084
2248.00,0.0085
2245.00,0.0086
2242.00,0.0085
2239.00,0.0085
2236.00,0.0084
2233.00,0.0084
2230.00,0.0083
2227.00,0.0083
2224.00,0.0085
2221.00,0.0084
2218.00,0.0084
2215.00,0.0085
2212.00,0.0085
2209.00,0.0084
2206.00,0.0084
2203.00,0.0086
2200.00,0.0085
2197.00,0.0085
2194.00,0.0086
2191.00,0.0087
2188.00,0.0087
2185.00,0.0085
2182.00,0.0079
2179.00,0.0082
2176.00,0.0080
2173.00,0.0081
2170.00,0.0089
2167.00,0.0088
2164.00,0.0089
2161.00,0.0078
2158.00,0.0053
2155.00,0.0060
2152.00,0.0071
2149.00,0.0068
2146.00,0.0066
2143.00,0.0069
2140.00,0.0070
2137.00,0.0067
2134.00,0.0064
2131.00,0.0068
2128.00,0.0072
2125.00,0.0076
2122.00,0.0078
2119.00,0.0080
2116.00,0.0083
2113.00,0.0083
2110.00,0.0082
2107.00,0.0081
2104.00,0.0081
2101.00,0.0081
2098.00,0.0079
2095.00,0.0076
2092.00,0.0077
2089.00,0.0077
2086.00,0.0078
2083.00,0.0080
2080.00,0.0081
2077.00,0.0081
2074.00,0.0079
2071.00,0.0078
2068.00,0.0077
2065.00,0.0077
2062.00,0.0075
2059.00,0.0077
2056.00,0.0076
2053.00,0.0081
2050.00,0.0081
2047.00,0.0076
2044.00,0.0076
2041.00,0.0073
2038.00,0.0072
2035.00,0.0069
2032.00,0.0069
2029.00,0.0067
2026.00,0.0066
2023.00,0.0063
2020.00,0.0067
2017.00,0.0069
2014.00,0.0067
2011.00,0.0069
2008.00,0.0067
2005.00,0.0060
2002.00,0.0064
1999.00,0.0068
1996.00,0.0071
1993.00,0.0069
1990.00,0.0069
1987.00,0.0075
1984.00,0.0079
1981.00,0.0082
1978.00,0.0069
1975.00,0.0061
1972.00,0.0061
1969.00,0.0062
1966.00,0.0062
1963.00,0.0062
1960.00,0.0061
1957.00,0.0064
1954.00,0.0064
1951.00,0.0063
1948.00,0.0066
1945.00,0.0066
1942.00,0.0067
1939.00,0.0069
1936.00,0.0068
1933.00,0.0068
1930.00,0.0068
1927.00,0.0069
1924.00,0.0069
1921.00,0.0070
1918.00,0.0070
1915.00,0.0071
1912.00,0.0071
1909.00,0.0072
1906.00,0.0071
1903.00,0.0070
1900.00,0.0069
1897.00,0.0070
1894.00,0.0070
1891.00,0.0071
1888.00,0.0070
1885.00,0.0069
1882.00,0.0071
1879.00,0.0071
1876.00,0.0070
1873.00,0.0070
1870.00,0.0072
1867.00,0.0072
1864.00,0.0071
1861.00,0.0070
1858.00,0.0070
1855.00,0.0071
1852.00,0.0072
1849.00,0.0072
1846.00,0.0070
1843.00,0.0070
1840.00,0.0072
1837.00,0.0072
1834.00,0.0071
1831.00,0.0072
1828.00,0.0071
1825.00,0.0071
1822.00,0.0071
1819.00,0.0069
1816.00,0.0068
1813.00,0.0070
1810.00,0.0070
1807.00,0.0071
1804.00,0.0072
1801.00,0.0071
1798.00,0.0071
1795.00,0.0072
1792.00,0.0071
1789.00,0.0072
1786.00,0.0073
1783.00,0.0073
1780.00,0.0073
1777.00,0.0073
1774.00,0.0073
1771.00,0.0074
1768.00,0.0076
1765.00,0.0076
1762.00,0.0076
1759.00,0.0078
1756.00,0.0079
1753.00,0.0080
1750.00,0.0082
1747.00,0.0085
1744.00,0.0086
1741.00,0.0086
1738.00,0.0089
1735.00,0.0092
1732.00,0.0096
1729.00,0.0101
1726.00,0.0107
1723.00,0.0114
1720.00,0.0120
1717.00,0.0130
1714.00,0.0143
1711.00,0.0161
1708.00,0.0184
1705.00,0.0222
1702.00,0.0262
1699.00,0.0359
1696.00,0.0465
1693.00,0.0599
1690.00,0.0742
1687.00,0.0882
1684.00,0.1058
1681.00,0.1195
1678.00,0.1294
1675.00,0.1409
1672.00,0.1509
1669.00,0.1644
1666.00,0.1765
1663.00,0.1895
1660.00,0.2018
1657.00,0.2096
1654.00,0.2153
1651.00,0.2168
1648.00,0.2114
1645.00,0.1976
1642.00,0.1819
1639.00,0.1638
1636.00,0.1432
1633.00,0.1237
1630.00,0.1103
1627.00,0.0987
1624.00,0.0912
1621.00,0.0861
1618.00,0.0812
1615.00,0.0746
1612.00,0.0683
1609.00,0.0630
1606.00,0.0608
1603.00,0.0623
1600.00,0.0648
1597.00,0.0644
1594.00,0.0603
1591.00,0.0550
1588.00,0.0508
1585.00,0.0469
1582.00,0.0427
1579.00,0.0388
1576.00,0.0351
1573.00,0.0326
1570.00,0.0306
1567.00,0.0290
1564.00,0.0277
1561.00,0.0261
1558.00,0.0251
1555.00,0.0250
1552.00,0.0247
1549.00,0.0243
1546.00,0.0241
1543.00,0.0239
1540.00,0.0237
1537.00,0.0236
1534.00,0.0232
1531.00,0.0228
1528.00,0.0226
1525.00,0.0225
1522.00,0.0225
1519.00,0.0228
1516.00,0.0230
1513.00,0.0232
1510.00,0.0238
1507.00,0.0254
1504.00,0.0291
1501.00,0.0338
1498.00,0.0407
1495.00,0.0469
1492.00,0.0475
1489.00,0.0424
1486.00,0.0355
1483.00,0.0309
1480.00,0.0287
1477.00,0.0291
1474.00,0.0325
1471.00,0.0426
1468.00,0.0552
1465.00,0.0727
1462.00,0.0860
1459.00,0.0870
1456.00,0.0767
1453.00,0.0706
1450.00,0.0709
1447.00,0.0798
1444.00,0.0926
1441.00,0.1057
1438.00,0.1152
1435.00,0.1249
1432.00,0.1316
1429.00,0.1390
1426.00,0.1449
1423.00,0.1493
1420.00,0.1418
1417.00,0.1174
1414.00,0.0942
1411.00,0.0763
1408.00,0.0654
1405.00,0.0592
1402.00,0.0555
1399.00,0.0534
1396.00,0.0521
1393.00,0.0518
1390.00,0.0526
1387.00,0.0553
1384.00,0.0593
1381.00,0.0634
1378.00,0.0667
1375.00,0.0677
1372.00,0.0653
1369.00,0.0615
1366.00,0.0572
1363.00,0.0530
1360.00,0.0493
1357.00,0.0471
1354.00,0.0458
1351.00,0.0447
1348.00,0.0431
1345.00,0.0415
1342.00,0.0407
1339.00,0.0407
1336.00,0.0411
1333.00,0.0424
1330.00,0.0449
1327.00,0.0488
1324.00,0.0541
1321.00,0.0593
1318.00,0.0621
1315.00,0.0613
1312.00,0.0579
1309.00,0.0546
1306.00,0.0536
1303.00,0.0567
1300.00,0.0662
1297.00,0.0850
1294.00,0.1114
1291.00,0.1360
1288.00,0.1493
1285.00,0.1486
1282.00,0.1387
1279.00,0.1308
1276.00,0.1305
1273.00,0.1324
1270.00,0.1293
1267.00,0.1201
1264.00,0.1085
1261.00,0.0968
1258.00,0.0858
1255.00,0.0762
1252.00,0.0686
1249.00,0.0633
1246.00,0.0601
1243.00,0.0588
1240.00,0.0596
1237.00,0.0627
1234.00,0.0677
1231.00,0.0730
1228.00,0.0761
1225.00,0.0768
1222.00,0.0763
1219.00,0.0748
1216.00,0.0719
1213.00,0.0678
1210.00,0.0639
1207.00,0.0607
1204.00,0.0584
1201.00,0.0564
1198.00,0.0545
1195.00,0.0528
1192.00,0.0515
1189.00,0.0506
1186.00,0.0500
1183.00,0.0500
1180.00,0.0510
1177.00,0.0533
1174.00,0.0571
1171.00,0.0615
1168.00,0.0652
1165.00,0.0666
1162.00,0.0649
1159.00,0.0614
1156.00,0.0579
1153.00,0.0543
1150.00,0.0509
1147.00,0.0477
1144.00,0.0452
1141.00,0.0435
1138.00,0.0422
1135.00,0.0413
1132.00,0.0411
1129.00,0.0413
1126.00,0.0415
1123.00,0.0418
1120.00,0.0425
1117.00,0.0438
1114.00,0.0455
1111.00,0.0474
1108.00,0.0488
1105.00,0.0493
1102.00,0.0497
1099.00,0.0504
1096.00,0.0513
1093.00,0.0518
1090.00,0.0521
1087.00,0.0530
1084.00,0.0544
1081.00,0.0546
1078.00,0.0536
1075.00,0.0523
1072.00,0.0506
1069.00,0.0489
1066.00,0.0479
1063.00,0.0482
1060.00,0.0505
1057.00,0.0561
1054.00,0.0664
1051.00,0.0777
1048.00,0.0811
1045.00,0.0761
1042.00,0.0698
1039.00,0.0659
1036.00,0.0636
1033.00,0.0618
1030.00,0.0602
1027.00,0.0589
1024.00,0.0583
1021.00,0.0583
1018.00,0.0576
1015.00,0.0543
1012.00,0.0491
1009.00,0.0452
1006.00,0.0444
1003.00,0.0453
1000.00,0.0441
997.00,0.0413
994.00,0.0390
991.00,0.0380
988.00,0.0378
985.00,0.0373
982.00,0.0361
979.00,0.0346
976.00,0.0333
973.00,0.0322
970.00,0.0310
967.00,0.0297
964.00,0.0288
961.00,0.0279
958.00,0.0270
955.00,0.0262
952.00,0.0256
949.00,0.0253
946.00,0.0252
943.00,0.0255
940.00,0.0266
937.00,0.0287
934.00,0.0310
931.00,0.0309
928.00,0.0297
925.00,0.0294
922.00,0.0295
919.00,0.0299
916.00,0.0304
913.00,0.0311
910.00,0.0319
907.00,0.0325
904.00,0.0329
901.00,0.0333
898.00,0.0339
895.00,0.0342
892.00,0.0336
889.00,0.0328
886.00,0.0325
883.00,0.0325
880.00,0.0328
877.00,0.0335
874.00,0.0342
871.00,0.0350
868.00,0.0361
865.00,0.0378
862.00,0.0401
859.00,0.0429
856.00,0.0466
853.00,0.0506
850.00,0.0545
847.00,0.0576
844.00,0.0596
841.00,0.0607
838.00,0.0615
835.00,0.0622
832.00,0.0629
829.00,0.0628
826.00,0.0617
823.00,0.0593
820.00,0.0565
817.00,0.0541
814.00,0.0523
811.00,0.0515
808.00,0.0510
805.00,0.0509
802.00,0.0508
799.00,0.0508
796.00,0.0509
793.00,0.0506
790.00,0.0498
787.00,0.0489
784.00,0.0485
781.00,0.0485
778.00,0.0486
775.00,0.0486
772.00,0.0486
769.00,0.0489
766.00,0.0496
763.00,0.0507
760.00,0.0527
757.00,0.0552
754.00,0.0578
751.00,0.0606
748.00,0.0633
745.00,0.0662
742.00,0.0686
739.00,0.0707
736.00,0.0723
733.00,0.0722
730.00,0.0700
727.00,0.0666
724.00,0.0636
721.00,0.0614
718.00,0.0601
715.00,0.0595
712.00,0.0593
709.00,0.0596
706.00,0.0599
703.00,0.0604
700.00,0.0612
697.00,0.0620
694.00,0.0629
691.00,0.0641
688.00,0.0659
685.00,0.0679
682.00,0.0697
679.00,0.0714
676.00,0.0733
673.00,0.0753
670.00,0.0773
667.00,0.0811
664.00,0.0838
661.00,0.0875
658.00,0.0918
655.00,0.0962
652.00,0.1002
649.00,0.1026
646.00,0.1023
643.00,0.1000
640.00,0.0965
637.00,0.0930
634.00,0.0897
631.00,0.0871
628.00,0.0850
625.00,0.0833
622.00,0.0821
619.00,0.0813
616.00,0.0811
613.00,0.0810
610.00,0.0809
607.00,0.0822
604.00,0.0837
601.00,0.0851
598.00,0.0863
595.00,0.0875
592.00,0.0898
589.00,0.0927
586.00,0.0961
583.00,0.1006
580.00,0.1046
577.00,0.1074
574.00,0.1089
571.00,0.1086
568.00,0.1073
565.00,0.1050
562.00,0.1017
559.00,0.0989
556.00,0.0966
553.00,0.0943
550.00,0.0921
547.00,0.0901
544.00,0.0891
541.00,0.0888
538.00,0.0881
535.00,0.0874
532.00,0.0875
529.00,0.0879
526.00,0.0870
523.00,0.0860
520.00,0.0854
517.00,0.0849
514.00,0.0851
511.00,0.0847
508.00,0.0841
505.00,0.0833
502.00,0.0836
499.00,0.0838
496.00,0.0842
493.00,0.0850
490.00,0.0853
487.00,0.0860
484.00,0.0864
481.00,0.0868
478.00,0.0872
475.00,0.0878
472.00,0.0883
469.00,0.0881
466.00,0.0876
463.00,0.0874
460.00,0.0875
457.00,0.0877
454.00,0.0873
451.00,0.0862
448.00,0.0853
445.00,0.0842
442.00,0.0838
439.00,0.0812
436.00,0.0804
433.00,0.0794
430.00,0.0791
427.00,0.0776
424.00,0.0760
421.00,0.0778
418.00,0.0775
415.00,0.0759
412.00,0.0769
409.00,0.0776
406.00,0.0786
403.00,0.0785
400.00,0.0811