File: FTIR/Olivia/2025_08_01_1CBN_3PVP40_mortar_dry_scan3.csv
Created as New Dataset,Sample 1025 By YargerLab Date Friday, August 01 2025
cm-1,A
4000.00,0.0072
3997.00,0.0072
3994.00,0.0072
3991.00,0.0072
3988.00,0.0072
3985.00,0.0072
3982.00,0.0072
3979.00,0.0072
3976.00,0.0073
3973.00,0.0073
3970.00,0.0073
3967.00,0.0073
3964.00,0.0073
3961.00,0.0072
3958.00,0.0072
3955.00,0.0072
3952.00,0.0072
3949.00,0.0072
3946.00,0.0072
3943.00,0.0072
3940.00,0.0072
3937.00,0.0071
3934.00,0.0072
3931.00,0.0072
3928.00,0.0072
3925.00,0.0072
3922.00,0.0072
3919.00,0.0072
3916.00,0.0072
3913.00,0.0071
3910.00,0.0071
3907.00,0.0071
3904.00,0.0072
3901.00,0.0071
3898.00,0.0071
3895.00,0.0071
3892.00,0.0071
3889.00,0.0071
3886.00,0.0071
3883.00,0.0071
3880.00,0.0071
3877.00,0.0071
3874.00,0.0070
3871.00,0.0070
3868.00,0.0071
3865.00,0.0071
3862.00,0.0071
3859.00,0.0070
3856.00,0.0070
3853.00,0.0070
3850.00,0.0070
3847.00,0.0071
3844.00,0.0071
3841.00,0.0071
3838.00,0.0070
3835.00,0.0070
3832.00,0.0070
3829.00,0.0070
3826.00,0.0070
3823.00,0.0070
3820.00,0.0069
3817.00,0.0069
3814.00,0.0070
3811.00,0.0070
3808.00,0.0070
3805.00,0.0070
3802.00,0.0069
3799.00,0.0069
3796.00,0.0069
3793.00,0.0070
3790.00,0.0070
3787.00,0.0070
3784.00,0.0070
3781.00,0.0070
3778.00,0.0070
3775.00,0.0070
3772.00,0.0070
3769.00,0.0069
3766.00,0.0069
3763.00,0.0070
3760.00,0.0070
3757.00,0.0069
3754.00,0.0069
3751.00,0.0070
3748.00,0.0069
3745.00,0.0069
3742.00,0.0069
3739.00,0.0069
3736.00,0.0068
3733.00,0.0068
3730.00,0.0068
3727.00,0.0069
3724.00,0.0068
3721.00,0.0068
3718.00,0.0069
3715.00,0.0069
3712.00,0.0069
3709.00,0.0068
3706.00,0.0068
3703.00,0.0068
3700.00,0.0067
3697.00,0.0068
3694.00,0.0068
3691.00,0.0068
3688.00,0.0069
3685.00,0.0069
3682.00,0.0070
3679.00,0.0070
3676.00,0.0069
3673.00,0.0070
3670.00,0.0070
3667.00,0.0071
3664.00,0.0071
3661.00,0.0072
3658.00,0.0072
3655.00,0.0072
3652.00,0.0072
3649.00,0.0073
3646.00,0.0074
3643.00,0.0074
3640.00,0.0076
3637.00,0.0076
3634.00,0.0077
3631.00,0.0078
3628.00,0.0078
3625.00,0.0080
3622.00,0.0080
3619.00,0.0081
3616.00,0.0083
3613.00,0.0085
3610.00,0.0086
3607.00,0.0087
3604.00,0.0087
3601.00,0.0088
3598.00,0.0090
3595.00,0.0091
3592.00,0.0092
3589.00,0.0093
3586.00,0.0096
3583.00,0.0098
3580.00,0.0099
3577.00,0.0101
3574.00,0.0103
3571.00,0.0105
3568.00,0.0106
3565.00,0.0109
3562.00,0.0111
3559.00,0.0113
3556.00,0.0115
3553.00,0.0117
3550.00,0.0119
3547.00,0.0122
3544.00,0.0124
3541.00,0.0127
3538.00,0.0129
3535.00,0.0130
3532.00,0.0132
3529.00,0.0134
3526.00,0.0137
3523.00,0.0140
3520.00,0.0142
3517.00,0.0144
3514.00,0.0146
3511.00,0.0148
3508.00,0.0151
3505.00,0.0153
3502.00,0.0155
3499.00,0.0157
3496.00,0.0160
3493.00,0.0162
3490.00,0.0165
3487.00,0.0169
3484.00,0.0172
3481.00,0.0176
3478.00,0.0180
3475.00,0.0183
3472.00,0.0188
3469.00,0.0193
3466.00,0.0197
3463.00,0.0202
3460.00,0.0207
3457.00,0.0211
3454.00,0.0216
3451.00,0.0221
3448.00,0.0226
3445.00,0.0232
3442.00,0.0238
3439.00,0.0244
3436.00,0.0251
3433.00,0.0259
3430.00,0.0266
3427.00,0.0274
3424.00,0.0283
3421.00,0.0291
3418.00,0.0300
3415.00,0.0308
3412.00,0.0316
3409.00,0.0322
3406.00,0.0326
3403.00,0.0330
3400.00,0.0331
3397.00,0.0330
3394.00,0.0328
3391.00,0.0324
3388.00,0.0320
3385.00,0.0315
3382.00,0.0309
3379.00,0.0304
3376.00,0.0298
3373.00,0.0293
3370.00,0.0288
3367.00,0.0283
3364.00,0.0278
3361.00,0.0274
3358.00,0.0271
3355.00,0.0267
3352.00,0.0263
3349.00,0.0262
3346.00,0.0260
3343.00,0.0258
3340.00,0.0256
3337.00,0.0255
3334.00,0.0254
3331.00,0.0254
3328.00,0.0254
3325.00,0.0254
3322.00,0.0255
3319.00,0.0256
3316.00,0.0258
3313.00,0.0259
3310.00,0.0260
3307.00,0.0262
3304.00,0.0265
3301.00,0.0268
3298.00,0.0270
3295.00,0.0273
3292.00,0.0275
3289.00,0.0278
3286.00,0.0282
3283.00,0.0285
3280.00,0.0287
3277.00,0.0290
3274.00,0.0293
3271.00,0.0296
3268.00,0.0299
3265.00,0.0302
3262.00,0.0304
3259.00,0.0307
3256.00,0.0309
3253.00,0.0311
3250.00,0.0313
3247.00,0.0314
3244.00,0.0317
3241.00,0.0318
3238.00,0.0318
3235.00,0.0317
3232.00,0.0317
3229.00,0.0316
3226.00,0.0314
3223.00,0.0312
3220.00,0.0310
3217.00,0.0307
3214.00,0.0303
3211.00,0.0299
3208.00,0.0294
3205.00,0.0290
3202.00,0.0284
3199.00,0.0279
3196.00,0.0274
3193.00,0.0268
3190.00,0.0262
3187.00,0.0257
3184.00,0.0252
3181.00,0.0246
3178.00,0.0240
3175.00,0.0234
3172.00,0.0229
3169.00,0.0223
3166.00,0.0217
3163.00,0.0212
3160.00,0.0207
3157.00,0.0201
3154.00,0.0196
3151.00,0.0190
3148.00,0.0187
3145.00,0.0183
3142.00,0.0178
3139.00,0.0174
3136.00,0.0171
3133.00,0.0167
3130.00,0.0164
3127.00,0.0160
3124.00,0.0158
3121.00,0.0156
3118.00,0.0153
3115.00,0.0150
3112.00,0.0146
3109.00,0.0143
3106.00,0.0140
3103.00,0.0137
3100.00,0.0136
3097.00,0.0134
3094.00,0.0133
3091.00,0.0134
3088.00,0.0135
3085.00,0.0135
3082.00,0.0134
3079.00,0.0134
3076.00,0.0132
3073.00,0.0130
3070.00,0.0129
3067.00,0.0128
3064.00,0.0128
3061.00,0.0128
3058.00,0.0129
3055.00,0.0130
3052.00,0.0129
3049.00,0.0128
3046.00,0.0127
3043.00,0.0127
3040.00,0.0129
3037.00,0.0132
3034.00,0.0135
3031.00,0.0136
3028.00,0.0133
3025.00,0.0129
3022.00,0.0125
3019.00,0.0122
3016.00,0.0121
3013.00,0.0121
3010.00,0.0123
3007.00,0.0128
3004.00,0.0135
3001.00,0.0145
2998.00,0.0158
2995.00,0.0175
2992.00,0.0190
2989.00,0.0201
2986.00,0.0213
2983.00,0.0236
2980.00,0.0266
2977.00,0.0281
2974.00,0.0295
2971.00,0.0332
2968.00,0.0355
2965.00,0.0370
2962.00,0.0391
2959.00,0.0401
2956.00,0.0379
2953.00,0.0345
2950.00,0.0321
2947.00,0.0315
2944.00,0.0329
2941.00,0.0355
2938.00,0.0394
2935.00,0.0455
2932.00,0.0529
2929.00,0.0591
2926.00,0.0609
2923.00,0.0580
2920.00,0.0531
2917.00,0.0478
2914.00,0.0428
2911.00,0.0389
2908.00,0.0359
2905.00,0.0334
2902.00,0.0314
2899.00,0.0296
2896.00,0.0281
2893.00,0.0269
2890.00,0.0259
2887.00,0.0251
2884.00,0.0245
2881.00,0.0247
2878.00,0.0261
2875.00,0.0285
2872.00,0.0300
2869.00,0.0297
2866.00,0.0297
2863.00,0.0322
2860.00,0.0373
2857.00,0.0417
2854.00,0.0424
2851.00,0.0397
2848.00,0.0339
2845.00,0.0279
2842.00,0.0234
2839.00,0.0203
2836.00,0.0184
2833.00,0.0171
2830.00,0.0161
2827.00,0.0153
2824.00,0.0146
2821.00,0.0140
2818.00,0.0135
2815.00,0.0131
2812.00,0.0128
2809.00,0.0125
2806.00,0.0123
2803.00,0.0121
2800.00,0.0119
2797.00,0.0117
2794.00,0.0115
2791.00,0.0113
2788.00,0.0112
2785.00,0.0110
2782.00,0.0109
2779.00,0.0108
2776.00,0.0106
2773.00,0.0106
2770.00,0.0105
2767.00,0.0105
2764.00,0.0104
2761.00,0.0104
2758.00,0.0104
2755.00,0.0104
2752.00,0.0105
2749.00,0.0105
2746.00,0.0105
2743.00,0.0106
2740.00,0.0107
2737.00,0.0109
2734.00,0.0110
2731.00,0.0112
2728.00,0.0112
2725.00,0.0110
2722.00,0.0109
2719.00,0.0108
2716.00,0.0107
2713.00,0.0106
2710.00,0.0106
2707.00,0.0106
2704.00,0.0105
2701.00,0.0104
2698.00,0.0104
2695.00,0.0102
2692.00,0.0102
2689.00,0.0101
2686.00,0.0100
2683.00,0.0100
2680.00,0.0099
2677.00,0.0100
2674.00,0.0100
2671.00,0.0100
2668.00,0.0101
2665.00,0.0103
2662.00,0.0104
2659.00,0.0106
2656.00,0.0106
2653.00,0.0106
2650.00,0.0106
2647.00,0.0106
2644.00,0.0105
2641.00,0.0104
2638.00,0.0104
2635.00,0.0103
2632.00,0.0101
2629.00,0.0100
2626.00,0.0099
2623.00,0.0098
2620.00,0.0097
2617.00,0.0097
2614.00,0.0097
2611.00,0.0097
2608.00,0.0097
2605.00,0.0097
2602.00,0.0098
2599.00,0.0098
2596.00,0.0098
2593.00,0.0098
2590.00,0.0098
2587.00,0.0099
2584.00,0.0099
2581.00,0.0098
2578.00,0.0097
2575.00,0.0097
2572.00,0.0096
2569.00,0.0096
2566.00,0.0097
2563.00,0.0096
2560.00,0.0095
2557.00,0.0094
2554.00,0.0093
2551.00,0.0093
2548.00,0.0092
2545.00,0.0092
2542.00,0.0093
2539.00,0.0093
2536.00,0.0093
2533.00,0.0092
2530.00,0.0092
2527.00,0.0092
2524.00,0.0091
2521.00,0.0090
2518.00,0.0089
2515.00,0.0088
2512.00,0.0088
2509.00,0.0087
2506.00,0.0087
2503.00,0.0087
2500.00,0.0086
2497.00,0.0086
2494.00,0.0086
2491.00,0.0085
2488.00,0.0085
2485.00,0.0085
2482.00,0.0085
2479.00,0.0084
2476.00,0.0084
2473.00,0.0084
2470.00,0.0083
2467.00,0.0082
2464.00,0.0083
2461.00,0.0083
2458.00,0.0083
2455.00,0.0084
2452.00,0.0085
2449.00,0.0084
2446.00,0.0084
2443.00,0.0083
2440.00,0.0082
2437.00,0.0081
2434.00,0.0081
2431.00,0.0081
2428.00,0.0080
2425.00,0.0080
2422.00,0.0080
2419.00,0.0080
2416.00,0.0080
2413.00,0.0080
2410.00,0.0081
2407.00,0.0080
2404.00,0.0080
2401.00,0.0080
2398.00,0.0080
2395.00,0.0079
2392.00,0.0079
2389.00,0.0078
2386.00,0.0077
2383.00,0.0076
2380.00,0.0074
2377.00,0.0073
2374.00,0.0074
2371.00,0.0074
2368.00,0.0074
2365.00,0.0074
2362.00,0.0074
2359.00,0.0074
2356.00,0.0076
2353.00,0.0076
2350.00,0.0075
2347.00,0.0076
2344.00,0.0076
2341.00,0.0077
2338.00,0.0078
2335.00,0.0078
2332.00,0.0078
2329.00,0.0079
2326.00,0.0088
2323.00,0.0086
2320.00,0.0082
2317.00,0.0081
2314.00,0.0080
2311.00,0.0078
2308.00,0.0078
2305.00,0.0077
2302.00,0.0078
2299.00,0.0080
2296.00,0.0082
2293.00,0.0085
2290.00,0.0087
2287.00,0.0088
2284.00,0.0087
2281.00,0.0085
2278.00,0.0083
2275.00,0.0083
2272.00,0.0081
2269.00,0.0080
2266.00,0.0079
2263.00,0.0080
2260.00,0.0078
2257.00,0.0077
2254.00,0.0074
2251.00,0.0075
2248.00,0.0078
2245.00,0.0077
2242.00,0.0077
2239.00,0.0079
2236.00,0.0080
2233.00,0.0079
2230.00,0.0078
2227.00,0.0080
2224.00,0.0079
2221.00,0.0078
2218.00,0.0078
2215.00,0.0077
2212.00,0.0078
2209.00,0.0078
2206.00,0.0080
2203.00,0.0081
2200.00,0.0080
2197.00,0.0078
2194.00,0.0077
2191.00,0.0078
2188.00,0.0080
2185.00,0.0079
2182.00,0.0076
2179.00,0.0075
2176.00,0.0071
2173.00,0.0074
2170.00,0.0081
2167.00,0.0083
2164.00,0.0085
2161.00,0.0074
2158.00,0.0048
2155.00,0.0054
2152.00,0.0059
2149.00,0.0060
2146.00,0.0060
2143.00,0.0061
2140.00,0.0061
2137.00,0.0061
2134.00,0.0056
2131.00,0.0060
2128.00,0.0064
2125.00,0.0066
2122.00,0.0068
2119.00,0.0071
2116.00,0.0075
2113.00,0.0074
2110.00,0.0072
2107.00,0.0072
2104.00,0.0072
2101.00,0.0071
2098.00,0.0069
2095.00,0.0066
2092.00,0.0069
2089.00,0.0071
2086.00,0.0071
2083.00,0.0073
2080.00,0.0074
2077.00,0.0073
2074.00,0.0072
2071.00,0.0072
2068.00,0.0070
2065.00,0.0069
2062.00,0.0068
2059.00,0.0068
2056.00,0.0068
2053.00,0.0072
2050.00,0.0073
2047.00,0.0068
2044.00,0.0069
2041.00,0.0069
2038.00,0.0070
2035.00,0.0068
2032.00,0.0066
2029.00,0.0066
2026.00,0.0065
2023.00,0.0063
2020.00,0.0063
2017.00,0.0063
2014.00,0.0060
2011.00,0.0059
2008.00,0.0056
2005.00,0.0054
2002.00,0.0058
1999.00,0.0063
1996.00,0.0063
1993.00,0.0065
1990.00,0.0071
1987.00,0.0070
1984.00,0.0070
1981.00,0.0076
1978.00,0.0065
1975.00,0.0059
1972.00,0.0057
1969.00,0.0057
1966.00,0.0058
1963.00,0.0058
1960.00,0.0054
1957.00,0.0056
1954.00,0.0056
1951.00,0.0058
1948.00,0.0061
1945.00,0.0062
1942.00,0.0062
1939.00,0.0060
1936.00,0.0060
1933.00,0.0061
1930.00,0.0062
1927.00,0.0063
1924.00,0.0065
1921.00,0.0065
1918.00,0.0066
1915.00,0.0067
1912.00,0.0071
1909.00,0.0078
1906.00,0.0078
1903.00,0.0071
1900.00,0.0069
1897.00,0.0069
1894.00,0.0073
1891.00,0.0071
1888.00,0.0068
1885.00,0.0067
1882.00,0.0067
1879.00,0.0067
1876.00,0.0067
1873.00,0.0066
1870.00,0.0066
1867.00,0.0066
1864.00,0.0068
1861.00,0.0068
1858.00,0.0068
1855.00,0.0069
1852.00,0.0070
1849.00,0.0071
1846.00,0.0072
1843.00,0.0071
1840.00,0.0069
1837.00,0.0069
1834.00,0.0069
1831.00,0.0067
1828.00,0.0065
1825.00,0.0067
1822.00,0.0068
1819.00,0.0067
1816.00,0.0067
1813.00,0.0068
1810.00,0.0068
1807.00,0.0069
1804.00,0.0069
1801.00,0.0070
1798.00,0.0071
1795.00,0.0071
1792.00,0.0071
1789.00,0.0071
1786.00,0.0072
1783.00,0.0071
1780.00,0.0073
1777.00,0.0074
1774.00,0.0075
1771.00,0.0074
1768.00,0.0075
1765.00,0.0074
1762.00,0.0076
1759.00,0.0077
1756.00,0.0077
1753.00,0.0075
1750.00,0.0075
1747.00,0.0076
1744.00,0.0078
1741.00,0.0077
1738.00,0.0077
1735.00,0.0079
1732.00,0.0081
1729.00,0.0088
1726.00,0.0092
1723.00,0.0097
1720.00,0.0096
1717.00,0.0099
1714.00,0.0106
1711.00,0.0114
1708.00,0.0119
1705.00,0.0125
1702.00,0.0130
1699.00,0.0145
1696.00,0.0169
1693.00,0.0196
1690.00,0.0226
1687.00,0.0252
1684.00,0.0288
1681.00,0.0327
1678.00,0.0360
1675.00,0.0395
1672.00,0.0428
1669.00,0.0467
1666.00,0.0502
1663.00,0.0530
1660.00,0.0558
1657.00,0.0574
1654.00,0.0576
1651.00,0.0593
1648.00,0.0595
1645.00,0.0592
1642.00,0.0589
1639.00,0.0574
1636.00,0.0548
1633.00,0.0550
1630.00,0.0595
1627.00,0.0710
1624.00,0.0814
1621.00,0.0853
1618.00,0.0788
1615.00,0.0664
1612.00,0.0650
1609.00,0.0625
1606.00,0.0536
1603.00,0.0440
1600.00,0.0369
1597.00,0.0332
1594.00,0.0332
1591.00,0.0386
1588.00,0.0485
1585.00,0.0562
1582.00,0.0569
1579.00,0.0525
1576.00,0.0445
1573.00,0.0388
1570.00,0.0356
1567.00,0.0327
1564.00,0.0282
1561.00,0.0237
1558.00,0.0188
1555.00,0.0182
1552.00,0.0176
1549.00,0.0170
1546.00,0.0164
1543.00,0.0155
1540.00,0.0145
1537.00,0.0146
1534.00,0.0145
1531.00,0.0143
1528.00,0.0143
1525.00,0.0144
1522.00,0.0148
1519.00,0.0158
1516.00,0.0177
1513.00,0.0195
1510.00,0.0207
1507.00,0.0212
1504.00,0.0231
1501.00,0.0272
1498.00,0.0364
1495.00,0.0427
1492.00,0.0374
1489.00,0.0288
1486.00,0.0236
1483.00,0.0210
1480.00,0.0197
1477.00,0.0198
1474.00,0.0217
1471.00,0.0292
1468.00,0.0405
1465.00,0.0488
1462.00,0.0503
1459.00,0.0497
1456.00,0.0450
1453.00,0.0422
1450.00,0.0427
1447.00,0.0465
1444.00,0.0527
1441.00,0.0591
1438.00,0.0625
1435.00,0.0657
1432.00,0.0691
1429.00,0.0716
1426.00,0.0724
1423.00,0.0713
1420.00,0.0670
1417.00,0.0587
1414.00,0.0521
1411.00,0.0489
1408.00,0.0510
1405.00,0.0581
1402.00,0.0654
1399.00,0.0663
1396.00,0.0592
1393.00,0.0489
1390.00,0.0440
1387.00,0.0466
1384.00,0.0452
1381.00,0.0441
1378.00,0.0448
1375.00,0.0414
1372.00,0.0365
1369.00,0.0384
1366.00,0.0456
1363.00,0.0492
1360.00,0.0549
1357.00,0.0495
1354.00,0.0428
1351.00,0.0408
1348.00,0.0412
1345.00,0.0403
1342.00,0.0371
1339.00,0.0332
1336.00,0.0315
1333.00,0.0331
1330.00,0.0354
1327.00,0.0362
1324.00,0.0361
1321.00,0.0365
1318.00,0.0361
1315.00,0.0343
1312.00,0.0329
1309.00,0.0343
1306.00,0.0394
1303.00,0.0491
1300.00,0.0566
1297.00,0.0584
1294.00,0.0628
1291.00,0.0661
1288.00,0.0692
1285.00,0.0734
1282.00,0.0730
1279.00,0.0664
1276.00,0.0601
1273.00,0.0565
1270.00,0.0529
1267.00,0.0488
1264.00,0.0443
1261.00,0.0398
1258.00,0.0362
1255.00,0.0340
1252.00,0.0335
1249.00,0.0356
1246.00,0.0406
1243.00,0.0454
1240.00,0.0484
1237.00,0.0540
1234.00,0.0598
1231.00,0.0582
1228.00,0.0516
1225.00,0.0463
1222.00,0.0439
1219.00,0.0446
1216.00,0.0478
1213.00,0.0483
1210.00,0.0430
1207.00,0.0377
1204.00,0.0373
1201.00,0.0426
1198.00,0.0518
1195.00,0.0604
1192.00,0.0588
1189.00,0.0495
1186.00,0.0398
1183.00,0.0335
1180.00,0.0303
1177.00,0.0290
1174.00,0.0285
1171.00,0.0284
1168.00,0.0284
1165.00,0.0289
1162.00,0.0316
1159.00,0.0409
1156.00,0.0565
1153.00,0.0577
1150.00,0.0410
1147.00,0.0298
1144.00,0.0263
1141.00,0.0256
1138.00,0.0273
1135.00,0.0340
1132.00,0.0503
1129.00,0.0672
1126.00,0.0658
1123.00,0.0530
1120.00,0.0403
1117.00,0.0348
1114.00,0.0338
1111.00,0.0319
1108.00,0.0300
1105.00,0.0320
1102.00,0.0413
1099.00,0.0484
1096.00,0.0407
1093.00,0.0307
1090.00,0.0258
1087.00,0.0238
1084.00,0.0231
1081.00,0.0231
1078.00,0.0235
1075.00,0.0243
1072.00,0.0255
1069.00,0.0274
1066.00,0.0302
1063.00,0.0355
1060.00,0.0472
1057.00,0.0679
1054.00,0.0856
1051.00,0.0902
1048.00,0.0875
1045.00,0.0740
1042.00,0.0575
1039.00,0.0471
1036.00,0.0456
1033.00,0.0487
1030.00,0.0614
1027.00,0.0787
1024.00,0.0722
1021.00,0.0538
1018.00,0.0418
1015.00,0.0349
1012.00,0.0313
1009.00,0.0323
1006.00,0.0387
1003.00,0.0438
1000.00,0.0414
997.00,0.0375
994.00,0.0350
991.00,0.0315
988.00,0.0273
985.00,0.0247
982.00,0.0232
979.00,0.0228
976.00,0.0228
973.00,0.0226
970.00,0.0221
967.00,0.0221
964.00,0.0228
961.00,0.0231
958.00,0.0206
955.00,0.0187
952.00,0.0179
949.00,0.0186
946.00,0.0189
943.00,0.0194
940.00,0.0216
937.00,0.0234
934.00,0.0250
931.00,0.0251
928.00,0.0235
925.00,0.0243
922.00,0.0268
919.00,0.0250
916.00,0.0208
913.00,0.0185
910.00,0.0178
907.00,0.0182
904.00,0.0205
901.00,0.0259
898.00,0.0286
895.00,0.0252
892.00,0.0261
889.00,0.0282
886.00,0.0223
883.00,0.0203
880.00,0.0218
877.00,0.0273
874.00,0.0390
871.00,0.0524
868.00,0.0535
865.00,0.0444
862.00,0.0362
859.00,0.0312
856.00,0.0342
853.00,0.0413
850.00,0.0484
847.00,0.0482
844.00,0.0413
841.00,0.0376
838.00,0.0405
835.00,0.0487
832.00,0.0506
829.00,0.0425
826.00,0.0331
823.00,0.0382
820.00,0.0568
817.00,0.0633
814.00,0.0602
811.00,0.0380
808.00,0.0286
805.00,0.0249
802.00,0.0235
799.00,0.0229
796.00,0.0227
793.00,0.0225
790.00,0.0223
787.00,0.0223
784.00,0.0224
781.00,0.0230
778.00,0.0244
775.00,0.0283
772.00,0.0279
769.00,0.0258
766.00,0.0257
763.00,0.0269
760.00,0.0291
757.00,0.0297
754.00,0.0293
751.00,0.0297
748.00,0.0307
745.00,0.0320
742.00,0.0341
739.00,0.0387
736.00,0.0485
733.00,0.0508
730.00,0.0484
727.00,0.0472
724.00,0.0406
721.00,0.0368
718.00,0.0381
715.00,0.0414
712.00,0.0406
709.00,0.0385
706.00,0.0381
703.00,0.0394
700.00,0.0416
697.00,0.0432
694.00,0.0419
691.00,0.0428
688.00,0.0464
685.00,0.0453
682.00,0.0442
679.00,0.0452
676.00,0.0479
673.00,0.0520
670.00,0.0542
667.00,0.0537
664.00,0.0542
661.00,0.0563
658.00,0.0551
655.00,0.0535
652.00,0.0533
649.00,0.0534
646.00,0.0535
643.00,0.0529
640.00,0.0519
637.00,0.0512
634.00,0.0507
631.00,0.0503
628.00,0.0505
625.00,0.0518
622.00,0.0541
619.00,0.0555
616.00,0.0531
613.00,0.0498
610.00,0.0501
607.00,0.0549
604.00,0.0616
601.00,0.0642
598.00,0.0644
595.00,0.0642
592.00,0.0638
589.00,0.0628
586.00,0.0626
583.00,0.0637
580.00,0.0666
577.00,0.0717
574.00,0.0712
571.00,0.0664
568.00,0.0634
565.00,0.0643
562.00,0.0679
559.00,0.0703
556.00,0.0673
553.00,0.0648
550.00,0.0663
547.00,0.0706
544.00,0.0708
541.00,0.0670
538.00,0.0641
535.00,0.0649
532.00,0.0689
529.00,0.0688
526.00,0.0643
523.00,0.0603
520.00,0.0587
517.00,0.0576
514.00,0.0570
511.00,0.0570
508.00,0.0583
505.00,0.0590
502.00,0.0576
499.00,0.0565
496.00,0.0565
493.00,0.0580
490.00,0.0582
487.00,0.0568
484.00,0.0563
481.00,0.0558
478.00,0.0551
475.00,0.0545
472.00,0.0538
469.00,0.0543
466.00,0.0537
463.00,0.0530
460.00,0.0531
457.00,0.0524
454.00,0.0526
451.00,0.0527
448.00,0.0518
445.00,0.0511
442.00,0.0517
439.00,0.0506
436.00,0.0496
433.00,0.0479
430.00,0.0474
427.00,0.0474
424.00,0.0464
421.00,0.0451
418.00,0.0452
415.00,0.0454
412.00,0.0474
409.00,0.0473
406.00,0.0451
403.00,0.0489
400.00,0.0462