File: FTIR/Olivia/2025_07_28_CBN_PVP10kDa_Mortar_Mix_Batch_scan2.csv
Created as New Dataset,Sample 944 By YargerLab Date Monday, July 28 2025
cm-1,A
4000.00,0.0040
3997.00,0.0040
3994.00,0.0040
3991.00,0.0040
3988.00,0.0040
3985.00,0.0040
3982.00,0.0041
3979.00,0.0040
3976.00,0.0041
3973.00,0.0040
3970.00,0.0040
3967.00,0.0040
3964.00,0.0040
3961.00,0.0040
3958.00,0.0040
3955.00,0.0040
3952.00,0.0041
3949.00,0.0040
3946.00,0.0040
3943.00,0.0041
3940.00,0.0040
3937.00,0.0040
3934.00,0.0040
3931.00,0.0040
3928.00,0.0040
3925.00,0.0040
3922.00,0.0040
3919.00,0.0040
3916.00,0.0040
3913.00,0.0040
3910.00,0.0040
3907.00,0.0040
3904.00,0.0041
3901.00,0.0040
3898.00,0.0040
3895.00,0.0039
3892.00,0.0039
3889.00,0.0040
3886.00,0.0039
3883.00,0.0039
3880.00,0.0040
3877.00,0.0039
3874.00,0.0039
3871.00,0.0039
3868.00,0.0039
3865.00,0.0039
3862.00,0.0040
3859.00,0.0040
3856.00,0.0039
3853.00,0.0039
3850.00,0.0039
3847.00,0.0039
3844.00,0.0039
3841.00,0.0039
3838.00,0.0040
3835.00,0.0039
3832.00,0.0039
3829.00,0.0040
3826.00,0.0040
3823.00,0.0040
3820.00,0.0040
3817.00,0.0039
3814.00,0.0039
3811.00,0.0039
3808.00,0.0040
3805.00,0.0040
3802.00,0.0039
3799.00,0.0039
3796.00,0.0040
3793.00,0.0040
3790.00,0.0040
3787.00,0.0040
3784.00,0.0040
3781.00,0.0040
3778.00,0.0041
3775.00,0.0040
3772.00,0.0040
3769.00,0.0040
3766.00,0.0041
3763.00,0.0041
3760.00,0.0041
3757.00,0.0040
3754.00,0.0040
3751.00,0.0041
3748.00,0.0040
3745.00,0.0039
3742.00,0.0039
3739.00,0.0039
3736.00,0.0040
3733.00,0.0039
3730.00,0.0039
3727.00,0.0039
3724.00,0.0039
3721.00,0.0040
3718.00,0.0040
3715.00,0.0040
3712.00,0.0039
3709.00,0.0039
3706.00,0.0039
3703.00,0.0039
3700.00,0.0039
3697.00,0.0039
3694.00,0.0039
3691.00,0.0039
3688.00,0.0039
3685.00,0.0040
3682.00,0.0042
3679.00,0.0042
3676.00,0.0042
3673.00,0.0042
3670.00,0.0042
3667.00,0.0042
3664.00,0.0043
3661.00,0.0044
3658.00,0.0043
3655.00,0.0044
3652.00,0.0045
3649.00,0.0046
3646.00,0.0047
3643.00,0.0047
3640.00,0.0049
3637.00,0.0050
3634.00,0.0051
3631.00,0.0052
3628.00,0.0052
3625.00,0.0054
3622.00,0.0055
3619.00,0.0057
3616.00,0.0058
3613.00,0.0060
3610.00,0.0061
3607.00,0.0063
3604.00,0.0065
3601.00,0.0067
3598.00,0.0070
3595.00,0.0071
3592.00,0.0074
3589.00,0.0075
3586.00,0.0078
3583.00,0.0081
3580.00,0.0083
3577.00,0.0086
3574.00,0.0089
3571.00,0.0091
3568.00,0.0094
3565.00,0.0096
3562.00,0.0099
3559.00,0.0102
3556.00,0.0105
3553.00,0.0108
3550.00,0.0110
3547.00,0.0113
3544.00,0.0115
3541.00,0.0117
3538.00,0.0119
3535.00,0.0122
3532.00,0.0124
3529.00,0.0125
3526.00,0.0128
3523.00,0.0130
3520.00,0.0131
3517.00,0.0132
3514.00,0.0134
3511.00,0.0135
3508.00,0.0136
3505.00,0.0137
3502.00,0.0139
3499.00,0.0140
3496.00,0.0142
3493.00,0.0143
3490.00,0.0145
3487.00,0.0146
3484.00,0.0148
3481.00,0.0150
3478.00,0.0151
3475.00,0.0154
3472.00,0.0156
3469.00,0.0158
3466.00,0.0160
3463.00,0.0162
3460.00,0.0165
3457.00,0.0167
3454.00,0.0169
3451.00,0.0171
3448.00,0.0173
3445.00,0.0176
3442.00,0.0178
3439.00,0.0181
3436.00,0.0183
3433.00,0.0186
3430.00,0.0188
3427.00,0.0191
3424.00,0.0194
3421.00,0.0197
3418.00,0.0201
3415.00,0.0203
3412.00,0.0205
3409.00,0.0207
3406.00,0.0209
3403.00,0.0209
3400.00,0.0210
3397.00,0.0210
3394.00,0.0208
3391.00,0.0207
3388.00,0.0205
3385.00,0.0202
3382.00,0.0199
3379.00,0.0196
3376.00,0.0194
3373.00,0.0190
3370.00,0.0186
3367.00,0.0183
3364.00,0.0182
3361.00,0.0180
3358.00,0.0177
3355.00,0.0176
3352.00,0.0172
3349.00,0.0171
3346.00,0.0170
3343.00,0.0168
3340.00,0.0167
3337.00,0.0166
3334.00,0.0166
3331.00,0.0165
3328.00,0.0163
3325.00,0.0162
3322.00,0.0163
3319.00,0.0163
3316.00,0.0163
3313.00,0.0163
3310.00,0.0160
3307.00,0.0158
3304.00,0.0160
3301.00,0.0163
3298.00,0.0163
3295.00,0.0161
3292.00,0.0162
3289.00,0.0165
3286.00,0.0165
3283.00,0.0166
3280.00,0.0166
3277.00,0.0165
3274.00,0.0165
3271.00,0.0165
3268.00,0.0166
3265.00,0.0167
3262.00,0.0168
3259.00,0.0168
3256.00,0.0168
3253.00,0.0168
3250.00,0.0168
3247.00,0.0168
3244.00,0.0169
3241.00,0.0169
3238.00,0.0168
3235.00,0.0166
3232.00,0.0165
3229.00,0.0165
3226.00,0.0164
3223.00,0.0164
3220.00,0.0162
3217.00,0.0160
3214.00,0.0159
3211.00,0.0157
3208.00,0.0154
3205.00,0.0152
3202.00,0.0149
3199.00,0.0147
3196.00,0.0144
3193.00,0.0141
3190.00,0.0139
3187.00,0.0137
3184.00,0.0134
3181.00,0.0132
3178.00,0.0129
3175.00,0.0126
3172.00,0.0124
3169.00,0.0121
3166.00,0.0118
3163.00,0.0115
3160.00,0.0113
3157.00,0.0110
3154.00,0.0108
3151.00,0.0106
3148.00,0.0103
3145.00,0.0101
3142.00,0.0099
3139.00,0.0097
3136.00,0.0095
3133.00,0.0094
3130.00,0.0092
3127.00,0.0090
3124.00,0.0089
3121.00,0.0088
3118.00,0.0086
3115.00,0.0085
3112.00,0.0084
3109.00,0.0082
3106.00,0.0081
3103.00,0.0080
3100.00,0.0080
3097.00,0.0079
3094.00,0.0078
3091.00,0.0078
3088.00,0.0079
3085.00,0.0079
3082.00,0.0078
3079.00,0.0078
3076.00,0.0077
3073.00,0.0076
3070.00,0.0076
3067.00,0.0075
3064.00,0.0075
3061.00,0.0075
3058.00,0.0076
3055.00,0.0076
3052.00,0.0076
3049.00,0.0076
3046.00,0.0075
3043.00,0.0076
3040.00,0.0077
3037.00,0.0078
3034.00,0.0080
3031.00,0.0080
3028.00,0.0079
3025.00,0.0078
3022.00,0.0078
3019.00,0.0078
3016.00,0.0078
3013.00,0.0080
3010.00,0.0084
3007.00,0.0090
3004.00,0.0098
3001.00,0.0107
2998.00,0.0119
2995.00,0.0131
2992.00,0.0144
2989.00,0.0156
2986.00,0.0169
2983.00,0.0186
2980.00,0.0204
2977.00,0.0214
2974.00,0.0226
2971.00,0.0247
2968.00,0.0260
2965.00,0.0270
2962.00,0.0282
2959.00,0.0286
2956.00,0.0278
2953.00,0.0266
2950.00,0.0256
2947.00,0.0255
2944.00,0.0260
2941.00,0.0271
2938.00,0.0289
2935.00,0.0317
2932.00,0.0349
2929.00,0.0374
2926.00,0.0380
2923.00,0.0367
2920.00,0.0342
2917.00,0.0315
2914.00,0.0291
2911.00,0.0273
2908.00,0.0256
2905.00,0.0242
2902.00,0.0231
2899.00,0.0223
2896.00,0.0217
2893.00,0.0212
2890.00,0.0208
2887.00,0.0205
2884.00,0.0203
2881.00,0.0205
2878.00,0.0211
2875.00,0.0220
2872.00,0.0225
2869.00,0.0222
2866.00,0.0221
2863.00,0.0231
2860.00,0.0252
2857.00,0.0266
2854.00,0.0261
2851.00,0.0242
2848.00,0.0212
2845.00,0.0183
2842.00,0.0159
2839.00,0.0142
2836.00,0.0130
2833.00,0.0121
2830.00,0.0113
2827.00,0.0106
2824.00,0.0100
2821.00,0.0094
2818.00,0.0090
2815.00,0.0087
2812.00,0.0085
2809.00,0.0082
2806.00,0.0080
2803.00,0.0079
2800.00,0.0077
2797.00,0.0076
2794.00,0.0075
2791.00,0.0073
2788.00,0.0072
2785.00,0.0071
2782.00,0.0070
2779.00,0.0069
2776.00,0.0068
2773.00,0.0067
2770.00,0.0066
2767.00,0.0066
2764.00,0.0066
2761.00,0.0065
2758.00,0.0066
2755.00,0.0066
2752.00,0.0066
2749.00,0.0066
2746.00,0.0066
2743.00,0.0066
2740.00,0.0067
2737.00,0.0067
2734.00,0.0068
2731.00,0.0069
2728.00,0.0068
2725.00,0.0068
2722.00,0.0067
2719.00,0.0066
2716.00,0.0066
2713.00,0.0066
2710.00,0.0065
2707.00,0.0064
2704.00,0.0064
2701.00,0.0064
2698.00,0.0063
2695.00,0.0062
2692.00,0.0062
2689.00,0.0062
2686.00,0.0062
2683.00,0.0061
2680.00,0.0061
2677.00,0.0061
2674.00,0.0061
2671.00,0.0061
2668.00,0.0062
2665.00,0.0063
2662.00,0.0065
2659.00,0.0066
2656.00,0.0067
2653.00,0.0067
2650.00,0.0067
2647.00,0.0067
2644.00,0.0067
2641.00,0.0067
2638.00,0.0066
2635.00,0.0066
2632.00,0.0065
2629.00,0.0064
2626.00,0.0063
2623.00,0.0063
2620.00,0.0063
2617.00,0.0063
2614.00,0.0062
2611.00,0.0062
2608.00,0.0061
2605.00,0.0061
2602.00,0.0062
2599.00,0.0062
2596.00,0.0062
2593.00,0.0062
2590.00,0.0062
2587.00,0.0063
2584.00,0.0062
2581.00,0.0062
2578.00,0.0062
2575.00,0.0062
2572.00,0.0061
2569.00,0.0061
2566.00,0.0060
2563.00,0.0061
2560.00,0.0060
2557.00,0.0059
2554.00,0.0058
2551.00,0.0059
2548.00,0.0058
2545.00,0.0058
2542.00,0.0057
2539.00,0.0058
2536.00,0.0058
2533.00,0.0058
2530.00,0.0057
2527.00,0.0056
2524.00,0.0055
2521.00,0.0055
2518.00,0.0055
2515.00,0.0055
2512.00,0.0055
2509.00,0.0054
2506.00,0.0053
2503.00,0.0053
2500.00,0.0053
2497.00,0.0053
2494.00,0.0053
2491.00,0.0053
2488.00,0.0052
2485.00,0.0052
2482.00,0.0052
2479.00,0.0052
2476.00,0.0051
2473.00,0.0051
2470.00,0.0051
2467.00,0.0052
2464.00,0.0052
2461.00,0.0052
2458.00,0.0053
2455.00,0.0053
2452.00,0.0053
2449.00,0.0052
2446.00,0.0051
2443.00,0.0051
2440.00,0.0051
2437.00,0.0051
2434.00,0.0051
2431.00,0.0051
2428.00,0.0050
2425.00,0.0049
2422.00,0.0050
2419.00,0.0050
2416.00,0.0050
2413.00,0.0050
2410.00,0.0050
2407.00,0.0049
2404.00,0.0049
2401.00,0.0048
2398.00,0.0048
2395.00,0.0048
2392.00,0.0048
2389.00,0.0047
2386.00,0.0046
2383.00,0.0045
2380.00,0.0044
2377.00,0.0044
2374.00,0.0044
2371.00,0.0044
2368.00,0.0044
2365.00,0.0044
2362.00,0.0044
2359.00,0.0046
2356.00,0.0045
2353.00,0.0045
2350.00,0.0045
2347.00,0.0046
2344.00,0.0047
2341.00,0.0048
2338.00,0.0049
2335.00,0.0048
2332.00,0.0048
2329.00,0.0052
2326.00,0.0063
2323.00,0.0061
2320.00,0.0057
2317.00,0.0055
2314.00,0.0054
2311.00,0.0053
2308.00,0.0053
2305.00,0.0054
2302.00,0.0054
2299.00,0.0055
2296.00,0.0057
2293.00,0.0059
2290.00,0.0061
2287.00,0.0062
2284.00,0.0060
2281.00,0.0059
2278.00,0.0056
2275.00,0.0054
2272.00,0.0054
2269.00,0.0054
2266.00,0.0051
2263.00,0.0050
2260.00,0.0052
2257.00,0.0051
2254.00,0.0048
2251.00,0.0049
2248.00,0.0051
2245.00,0.0051
2242.00,0.0051
2239.00,0.0051
2236.00,0.0051
2233.00,0.0050
2230.00,0.0050
2227.00,0.0050
2224.00,0.0050
2221.00,0.0050
2218.00,0.0052
2215.00,0.0051
2212.00,0.0051
2209.00,0.0050
2206.00,0.0049
2203.00,0.0050
2200.00,0.0051
2197.00,0.0052
2194.00,0.0054
2191.00,0.0053
2188.00,0.0053
2185.00,0.0052
2182.00,0.0049
2179.00,0.0050
2176.00,0.0045
2173.00,0.0048
2170.00,0.0058
2167.00,0.0062
2164.00,0.0061
2161.00,0.0044
2158.00,0.0015
2155.00,0.0023
2152.00,0.0031
2149.00,0.0032
2146.00,0.0032
2143.00,0.0032
2140.00,0.0033
2137.00,0.0031
2134.00,0.0026
2131.00,0.0032
2128.00,0.0038
2125.00,0.0039
2122.00,0.0042
2119.00,0.0044
2116.00,0.0048
2113.00,0.0048
2110.00,0.0047
2107.00,0.0045
2104.00,0.0046
2101.00,0.0046
2098.00,0.0043
2095.00,0.0040
2092.00,0.0043
2089.00,0.0046
2086.00,0.0047
2083.00,0.0048
2080.00,0.0049
2077.00,0.0047
2074.00,0.0046
2071.00,0.0045
2068.00,0.0044
2065.00,0.0043
2062.00,0.0042
2059.00,0.0042
2056.00,0.0043
2053.00,0.0052
2050.00,0.0050
2047.00,0.0042
2044.00,0.0043
2041.00,0.0043
2038.00,0.0046
2035.00,0.0043
2032.00,0.0038
2029.00,0.0037
2026.00,0.0040
2023.00,0.0036
2020.00,0.0038
2017.00,0.0039
2014.00,0.0034
2011.00,0.0035
2008.00,0.0030
2005.00,0.0028
2002.00,0.0033
1999.00,0.0040
1996.00,0.0040
1993.00,0.0042
1990.00,0.0042
1987.00,0.0045
1984.00,0.0048
1981.00,0.0055
1978.00,0.0036
1975.00,0.0028
1972.00,0.0032
1969.00,0.0035
1966.00,0.0034
1963.00,0.0032
1960.00,0.0030
1957.00,0.0031
1954.00,0.0031
1951.00,0.0033
1948.00,0.0034
1945.00,0.0035
1942.00,0.0036
1939.00,0.0035
1936.00,0.0033
1933.00,0.0034
1930.00,0.0035
1927.00,0.0035
1924.00,0.0039
1921.00,0.0039
1918.00,0.0039
1915.00,0.0040
1912.00,0.0043
1909.00,0.0047
1906.00,0.0044
1903.00,0.0043
1900.00,0.0042
1897.00,0.0043
1894.00,0.0044
1891.00,0.0044
1888.00,0.0041
1885.00,0.0041
1882.00,0.0041
1879.00,0.0041
1876.00,0.0042
1873.00,0.0041
1870.00,0.0043
1867.00,0.0043
1864.00,0.0042
1861.00,0.0043
1858.00,0.0043
1855.00,0.0043
1852.00,0.0043
1849.00,0.0045
1846.00,0.0045
1843.00,0.0043
1840.00,0.0044
1837.00,0.0045
1834.00,0.0044
1831.00,0.0044
1828.00,0.0043
1825.00,0.0044
1822.00,0.0044
1819.00,0.0042
1816.00,0.0041
1813.00,0.0045
1810.00,0.0045
1807.00,0.0045
1804.00,0.0046
1801.00,0.0047
1798.00,0.0048
1795.00,0.0048
1792.00,0.0047
1789.00,0.0048
1786.00,0.0048
1783.00,0.0050
1780.00,0.0051
1777.00,0.0052
1774.00,0.0053
1771.00,0.0051
1768.00,0.0052
1765.00,0.0052
1762.00,0.0054
1759.00,0.0056
1756.00,0.0055
1753.00,0.0057
1750.00,0.0061
1747.00,0.0063
1744.00,0.0064
1741.00,0.0061
1738.00,0.0063
1735.00,0.0064
1732.00,0.0070
1729.00,0.0074
1726.00,0.0078
1723.00,0.0084
1720.00,0.0087
1717.00,0.0097
1714.00,0.0106
1711.00,0.0120
1708.00,0.0136
1705.00,0.0163
1702.00,0.0183
1699.00,0.0247
1696.00,0.0311
1693.00,0.0385
1690.00,0.0461
1687.00,0.0533
1684.00,0.0620
1681.00,0.0699
1678.00,0.0757
1675.00,0.0819
1672.00,0.0875
1669.00,0.0923
1666.00,0.0960
1663.00,0.0991
1660.00,0.1020
1657.00,0.1033
1654.00,0.1033
1651.00,0.1023
1648.00,0.0993
1645.00,0.0924
1642.00,0.0859
1639.00,0.0783
1636.00,0.0700
1633.00,0.0643
1630.00,0.0630
1627.00,0.0654
1624.00,0.0677
1621.00,0.0666
1618.00,0.0605
1615.00,0.0523
1612.00,0.0497
1609.00,0.0465
1606.00,0.0400
1603.00,0.0337
1600.00,0.0288
1597.00,0.0263
1594.00,0.0260
1591.00,0.0287
1588.00,0.0336
1585.00,0.0367
1582.00,0.0359
1579.00,0.0329
1576.00,0.0286
1573.00,0.0252
1570.00,0.0233
1567.00,0.0216
1564.00,0.0191
1561.00,0.0162
1558.00,0.0139
1555.00,0.0138
1552.00,0.0135
1549.00,0.0130
1546.00,0.0126
1543.00,0.0123
1540.00,0.0118
1537.00,0.0115
1534.00,0.0115
1531.00,0.0115
1528.00,0.0117
1525.00,0.0117
1522.00,0.0122
1519.00,0.0127
1516.00,0.0139
1513.00,0.0150
1510.00,0.0165
1507.00,0.0179
1504.00,0.0201
1501.00,0.0242
1498.00,0.0312
1495.00,0.0357
1492.00,0.0333
1489.00,0.0282
1486.00,0.0232
1483.00,0.0201
1480.00,0.0185
1477.00,0.0187
1474.00,0.0212
1471.00,0.0278
1468.00,0.0373
1465.00,0.0464
1462.00,0.0513
1459.00,0.0518
1456.00,0.0464
1453.00,0.0420
1450.00,0.0407
1447.00,0.0434
1444.00,0.0493
1441.00,0.0565
1438.00,0.0622
1435.00,0.0685
1432.00,0.0726
1429.00,0.0761
1426.00,0.0803
1423.00,0.0838
1420.00,0.0819
1417.00,0.0729
1414.00,0.0614
1411.00,0.0520
1408.00,0.0473
1405.00,0.0471
1402.00,0.0479
1399.00,0.0462
1396.00,0.0413
1393.00,0.0355
1390.00,0.0333
1387.00,0.0357
1384.00,0.0363
1381.00,0.0375
1378.00,0.0393
1375.00,0.0387
1372.00,0.0363
1369.00,0.0368
1366.00,0.0395
1363.00,0.0401
1360.00,0.0409
1357.00,0.0365
1354.00,0.0319
1351.00,0.0300
1348.00,0.0295
1345.00,0.0286
1342.00,0.0271
1339.00,0.0255
1336.00,0.0248
1333.00,0.0262
1330.00,0.0281
1327.00,0.0298
1324.00,0.0317
1321.00,0.0342
1318.00,0.0359
1315.00,0.0357
1312.00,0.0344
1309.00,0.0340
1306.00,0.0360
1303.00,0.0414
1300.00,0.0471
1297.00,0.0530
1294.00,0.0627
1291.00,0.0734
1288.00,0.0826
1285.00,0.0883
1282.00,0.0874
1279.00,0.0817
1276.00,0.0782
1273.00,0.0782
1270.00,0.0776
1267.00,0.0739
1264.00,0.0672
1261.00,0.0594
1258.00,0.0520
1255.00,0.0464
1252.00,0.0429
1249.00,0.0418
1246.00,0.0429
1243.00,0.0448
1240.00,0.0468
1237.00,0.0506
1234.00,0.0544
1231.00,0.0545
1228.00,0.0518
1225.00,0.0490
1222.00,0.0472
1219.00,0.0467
1216.00,0.0472
1213.00,0.0460
1210.00,0.0419
1207.00,0.0383
1204.00,0.0373
1201.00,0.0392
1198.00,0.0431
1195.00,0.0464
1192.00,0.0448
1189.00,0.0397
1186.00,0.0345
1183.00,0.0312
1180.00,0.0298
1177.00,0.0296
1174.00,0.0301
1171.00,0.0309
1168.00,0.0314
1165.00,0.0316
1162.00,0.0325
1159.00,0.0364
1156.00,0.0430
1153.00,0.0424
1150.00,0.0334
1147.00,0.0270
1144.00,0.0245
1141.00,0.0234
1138.00,0.0237
1135.00,0.0268
1132.00,0.0351
1129.00,0.0432
1126.00,0.0421
1123.00,0.0355
1120.00,0.0292
1117.00,0.0263
1114.00,0.0258
1111.00,0.0248
1108.00,0.0239
1105.00,0.0251
1102.00,0.0298
1099.00,0.0329
1096.00,0.0290
1093.00,0.0241
1090.00,0.0216
1087.00,0.0207
1084.00,0.0203
1081.00,0.0204
1078.00,0.0210
1075.00,0.0217
1072.00,0.0223
1069.00,0.0230
1066.00,0.0242
1063.00,0.0271
1060.00,0.0334
1057.00,0.0437
1054.00,0.0520
1051.00,0.0542
1048.00,0.0521
1045.00,0.0451
1042.00,0.0370
1039.00,0.0320
1036.00,0.0315
1033.00,0.0335
1030.00,0.0402
1027.00,0.0484
1024.00,0.0454
1021.00,0.0373
1018.00,0.0320
1015.00,0.0283
1012.00,0.0254
1009.00,0.0253
1006.00,0.0284
1003.00,0.0309
1000.00,0.0299
997.00,0.0275
994.00,0.0254
991.00,0.0232
988.00,0.0208
985.00,0.0192
982.00,0.0182
979.00,0.0179
976.00,0.0177
973.00,0.0175
970.00,0.0171
967.00,0.0169
964.00,0.0172
961.00,0.0173
958.00,0.0161
955.00,0.0151
952.00,0.0145
949.00,0.0149
946.00,0.0152
943.00,0.0159
940.00,0.0177
937.00,0.0197
934.00,0.0215
931.00,0.0216
928.00,0.0203
925.00,0.0202
922.00,0.0210
919.00,0.0196
916.00,0.0173
913.00,0.0161
910.00,0.0158
907.00,0.0162
904.00,0.0178
901.00,0.0210
898.00,0.0225
895.00,0.0208
892.00,0.0212
889.00,0.0217
886.00,0.0181
883.00,0.0168
880.00,0.0175
877.00,0.0207
874.00,0.0273
871.00,0.0345
868.00,0.0347
865.00,0.0303
862.00,0.0266
859.00,0.0251
856.00,0.0281
853.00,0.0333
850.00,0.0384
847.00,0.0390
844.00,0.0355
841.00,0.0332
838.00,0.0342
835.00,0.0374
832.00,0.0369
829.00,0.0314
826.00,0.0258
823.00,0.0282
820.00,0.0379
817.00,0.0416
814.00,0.0384
811.00,0.0260
808.00,0.0204
805.00,0.0180
802.00,0.0169
799.00,0.0164
796.00,0.0161
793.00,0.0161
790.00,0.0162
787.00,0.0162
784.00,0.0164
781.00,0.0168
778.00,0.0180
775.00,0.0204
772.00,0.0204
769.00,0.0193
766.00,0.0196
763.00,0.0210
760.00,0.0228
757.00,0.0236
754.00,0.0241
751.00,0.0251
748.00,0.0264
745.00,0.0278
742.00,0.0298
739.00,0.0333
736.00,0.0394
733.00,0.0408
730.00,0.0389
727.00,0.0367
724.00,0.0318
721.00,0.0289
718.00,0.0293
715.00,0.0307
712.00,0.0300
709.00,0.0288
706.00,0.0287
703.00,0.0295
700.00,0.0311
697.00,0.0322
694.00,0.0322
691.00,0.0335
688.00,0.0361
685.00,0.0360
682.00,0.0358
679.00,0.0372
676.00,0.0397
673.00,0.0430
670.00,0.0452
667.00,0.0464
664.00,0.0482
661.00,0.0509
658.00,0.0521
655.00,0.0529
652.00,0.0544
649.00,0.0553
646.00,0.0552
643.00,0.0539
640.00,0.0522
637.00,0.0506
634.00,0.0493
631.00,0.0481
628.00,0.0476
625.00,0.0478
622.00,0.0488
619.00,0.0494
616.00,0.0481
613.00,0.0465
610.00,0.0467
607.00,0.0496
604.00,0.0535
601.00,0.0554
598.00,0.0558
595.00,0.0565
592.00,0.0571
589.00,0.0577
586.00,0.0588
583.00,0.0612
580.00,0.0646
577.00,0.0692
574.00,0.0695
571.00,0.0667
568.00,0.0647
565.00,0.0642
562.00,0.0653
559.00,0.0655
556.00,0.0628
553.00,0.0607
550.00,0.0610
547.00,0.0630
544.00,0.0622
541.00,0.0593
538.00,0.0578
535.00,0.0580
532.00,0.0603
529.00,0.0601
526.00,0.0578
523.00,0.0553
520.00,0.0542
517.00,0.0536
514.00,0.0529
511.00,0.0530
508.00,0.0532
505.00,0.0538
502.00,0.0533
499.00,0.0528
496.00,0.0530
493.00,0.0539
490.00,0.0537
487.00,0.0537
484.00,0.0531
481.00,0.0532
478.00,0.0533
475.00,0.0530
472.00,0.0530
469.00,0.0526
466.00,0.0526
463.00,0.0523
460.00,0.0524
457.00,0.0523
454.00,0.0525
451.00,0.0519
448.00,0.0509
445.00,0.0505
442.00,0.0493
439.00,0.0497
436.00,0.0493
433.00,0.0492
430.00,0.0476
427.00,0.0474
424.00,0.0464
421.00,0.0470
418.00,0.0459
415.00,0.0461
412.00,0.0475
409.00,0.0498
406.00,0.0499
403.00,0.0472
400.00,0.0460