File: FTIR/Olivia/2025_08_01_1CBN_3PVP40_mortar_dry_scan2.csv
Created as New Dataset,Sample 1024 By YargerLab Date Friday, August 01 2025
cm-1,A
4000.00,0.0108
3997.00,0.0108
3994.00,0.0108
3991.00,0.0108
3988.00,0.0108
3985.00,0.0108
3982.00,0.0108
3979.00,0.0108
3976.00,0.0109
3973.00,0.0109
3970.00,0.0109
3967.00,0.0109
3964.00,0.0108
3961.00,0.0108
3958.00,0.0108
3955.00,0.0108
3952.00,0.0108
3949.00,0.0108
3946.00,0.0108
3943.00,0.0108
3940.00,0.0107
3937.00,0.0108
3934.00,0.0108
3931.00,0.0107
3928.00,0.0107
3925.00,0.0107
3922.00,0.0107
3919.00,0.0108
3916.00,0.0108
3913.00,0.0107
3910.00,0.0107
3907.00,0.0108
3904.00,0.0107
3901.00,0.0107
3898.00,0.0107
3895.00,0.0107
3892.00,0.0107
3889.00,0.0107
3886.00,0.0107
3883.00,0.0106
3880.00,0.0106
3877.00,0.0107
3874.00,0.0107
3871.00,0.0106
3868.00,0.0106
3865.00,0.0107
3862.00,0.0106
3859.00,0.0106
3856.00,0.0106
3853.00,0.0107
3850.00,0.0107
3847.00,0.0107
3844.00,0.0107
3841.00,0.0106
3838.00,0.0106
3835.00,0.0106
3832.00,0.0107
3829.00,0.0107
3826.00,0.0107
3823.00,0.0106
3820.00,0.0106
3817.00,0.0106
3814.00,0.0107
3811.00,0.0106
3808.00,0.0106
3805.00,0.0106
3802.00,0.0107
3799.00,0.0106
3796.00,0.0106
3793.00,0.0106
3790.00,0.0106
3787.00,0.0107
3784.00,0.0106
3781.00,0.0106
3778.00,0.0107
3775.00,0.0107
3772.00,0.0107
3769.00,0.0106
3766.00,0.0106
3763.00,0.0107
3760.00,0.0107
3757.00,0.0107
3754.00,0.0106
3751.00,0.0106
3748.00,0.0106
3745.00,0.0106
3742.00,0.0106
3739.00,0.0105
3736.00,0.0104
3733.00,0.0103
3730.00,0.0105
3727.00,0.0106
3724.00,0.0105
3721.00,0.0105
3718.00,0.0105
3715.00,0.0106
3712.00,0.0106
3709.00,0.0105
3706.00,0.0105
3703.00,0.0105
3700.00,0.0105
3697.00,0.0105
3694.00,0.0105
3691.00,0.0106
3688.00,0.0107
3685.00,0.0109
3682.00,0.0109
3679.00,0.0110
3676.00,0.0111
3673.00,0.0111
3670.00,0.0113
3667.00,0.0114
3664.00,0.0115
3661.00,0.0115
3658.00,0.0116
3655.00,0.0118
3652.00,0.0119
3649.00,0.0122
3646.00,0.0123
3643.00,0.0125
3640.00,0.0127
3637.00,0.0129
3634.00,0.0131
3631.00,0.0132
3628.00,0.0136
3625.00,0.0138
3622.00,0.0139
3619.00,0.0142
3616.00,0.0146
3613.00,0.0148
3610.00,0.0151
3607.00,0.0155
3604.00,0.0157
3601.00,0.0160
3598.00,0.0163
3595.00,0.0167
3592.00,0.0170
3589.00,0.0173
3586.00,0.0179
3583.00,0.0183
3580.00,0.0187
3577.00,0.0191
3574.00,0.0196
3571.00,0.0199
3568.00,0.0204
3565.00,0.0210
3562.00,0.0215
3559.00,0.0219
3556.00,0.0223
3553.00,0.0228
3550.00,0.0233
3547.00,0.0237
3544.00,0.0243
3541.00,0.0247
3538.00,0.0251
3535.00,0.0255
3532.00,0.0258
3529.00,0.0262
3526.00,0.0267
3523.00,0.0272
3520.00,0.0275
3517.00,0.0279
3514.00,0.0283
3511.00,0.0285
3508.00,0.0289
3505.00,0.0293
3502.00,0.0298
3499.00,0.0301
3496.00,0.0304
3493.00,0.0308
3490.00,0.0312
3487.00,0.0316
3484.00,0.0320
3481.00,0.0326
3478.00,0.0331
3475.00,0.0335
3472.00,0.0340
3469.00,0.0345
3466.00,0.0350
3463.00,0.0356
3460.00,0.0362
3457.00,0.0367
3454.00,0.0373
3451.00,0.0378
3448.00,0.0383
3445.00,0.0390
3442.00,0.0397
3439.00,0.0404
3436.00,0.0411
3433.00,0.0419
3430.00,0.0427
3427.00,0.0434
3424.00,0.0443
3421.00,0.0452
3418.00,0.0460
3415.00,0.0469
3412.00,0.0477
3409.00,0.0482
3406.00,0.0487
3403.00,0.0490
3400.00,0.0491
3397.00,0.0490
3394.00,0.0488
3391.00,0.0484
3388.00,0.0480
3385.00,0.0475
3382.00,0.0469
3379.00,0.0462
3376.00,0.0455
3373.00,0.0449
3370.00,0.0442
3367.00,0.0437
3364.00,0.0431
3361.00,0.0426
3358.00,0.0422
3355.00,0.0417
3352.00,0.0411
3349.00,0.0408
3346.00,0.0406
3343.00,0.0402
3340.00,0.0399
3337.00,0.0398
3334.00,0.0397
3331.00,0.0396
3328.00,0.0394
3325.00,0.0393
3322.00,0.0394
3319.00,0.0395
3316.00,0.0396
3313.00,0.0397
3310.00,0.0394
3307.00,0.0394
3304.00,0.0399
3301.00,0.0403
3298.00,0.0404
3295.00,0.0404
3292.00,0.0407
3289.00,0.0412
3286.00,0.0415
3283.00,0.0418
3280.00,0.0419
3277.00,0.0420
3274.00,0.0420
3271.00,0.0422
3268.00,0.0426
3265.00,0.0429
3262.00,0.0430
3259.00,0.0431
3256.00,0.0431
3253.00,0.0433
3250.00,0.0433
3247.00,0.0433
3244.00,0.0435
3241.00,0.0435
3238.00,0.0433
3235.00,0.0430
3232.00,0.0428
3229.00,0.0428
3226.00,0.0425
3223.00,0.0422
3220.00,0.0418
3217.00,0.0413
3214.00,0.0409
3211.00,0.0403
3208.00,0.0397
3205.00,0.0391
3202.00,0.0385
3199.00,0.0378
3196.00,0.0372
3193.00,0.0365
3190.00,0.0358
3187.00,0.0352
3184.00,0.0345
3181.00,0.0338
3178.00,0.0331
3175.00,0.0325
3172.00,0.0319
3169.00,0.0312
3166.00,0.0304
3163.00,0.0298
3160.00,0.0292
3157.00,0.0285
3154.00,0.0278
3151.00,0.0272
3148.00,0.0267
3145.00,0.0262
3142.00,0.0256
3139.00,0.0251
3136.00,0.0247
3133.00,0.0242
3130.00,0.0238
3127.00,0.0234
3124.00,0.0231
3121.00,0.0227
3118.00,0.0224
3115.00,0.0220
3112.00,0.0216
3109.00,0.0213
3106.00,0.0209
3103.00,0.0205
3100.00,0.0203
3097.00,0.0201
3094.00,0.0199
3091.00,0.0199
3088.00,0.0199
3085.00,0.0198
3082.00,0.0197
3079.00,0.0195
3076.00,0.0193
3073.00,0.0191
3070.00,0.0189
3067.00,0.0189
3064.00,0.0188
3061.00,0.0187
3058.00,0.0188
3055.00,0.0188
3052.00,0.0187
3049.00,0.0185
3046.00,0.0184
3043.00,0.0184
3040.00,0.0185
3037.00,0.0188
3034.00,0.0190
3031.00,0.0190
3028.00,0.0187
3025.00,0.0184
3022.00,0.0181
3019.00,0.0179
3016.00,0.0178
3013.00,0.0179
3010.00,0.0184
3007.00,0.0191
3004.00,0.0201
3001.00,0.0215
2998.00,0.0233
2995.00,0.0253
2992.00,0.0271
2989.00,0.0285
2986.00,0.0301
2983.00,0.0327
2980.00,0.0360
2977.00,0.0377
2974.00,0.0398
2971.00,0.0439
2968.00,0.0466
2965.00,0.0486
2962.00,0.0511
2959.00,0.0518
2956.00,0.0495
2953.00,0.0462
2950.00,0.0439
2947.00,0.0434
2944.00,0.0446
2941.00,0.0471
2938.00,0.0513
2935.00,0.0576
2932.00,0.0653
2929.00,0.0718
2926.00,0.0738
2923.00,0.0710
2920.00,0.0658
2917.00,0.0600
2914.00,0.0547
2911.00,0.0505
2908.00,0.0472
2905.00,0.0445
2902.00,0.0424
2899.00,0.0406
2896.00,0.0391
2893.00,0.0380
2890.00,0.0370
2887.00,0.0360
2884.00,0.0354
2881.00,0.0355
2878.00,0.0369
2875.00,0.0391
2872.00,0.0403
2869.00,0.0398
2866.00,0.0399
2863.00,0.0426
2860.00,0.0479
2857.00,0.0520
2854.00,0.0522
2851.00,0.0491
2848.00,0.0427
2845.00,0.0362
2842.00,0.0313
2839.00,0.0279
2836.00,0.0258
2833.00,0.0243
2830.00,0.0231
2827.00,0.0221
2824.00,0.0212
2821.00,0.0204
2818.00,0.0197
2815.00,0.0193
2812.00,0.0189
2809.00,0.0186
2806.00,0.0183
2803.00,0.0180
2800.00,0.0177
2797.00,0.0175
2794.00,0.0172
2791.00,0.0170
2788.00,0.0168
2785.00,0.0166
2782.00,0.0164
2779.00,0.0163
2776.00,0.0161
2773.00,0.0160
2770.00,0.0159
2767.00,0.0159
2764.00,0.0158
2761.00,0.0157
2758.00,0.0157
2755.00,0.0157
2752.00,0.0157
2749.00,0.0158
2746.00,0.0158
2743.00,0.0158
2740.00,0.0159
2737.00,0.0161
2734.00,0.0163
2731.00,0.0164
2728.00,0.0164
2725.00,0.0162
2722.00,0.0161
2719.00,0.0159
2716.00,0.0158
2713.00,0.0157
2710.00,0.0157
2707.00,0.0156
2704.00,0.0155
2701.00,0.0155
2698.00,0.0154
2695.00,0.0153
2692.00,0.0152
2689.00,0.0151
2686.00,0.0150
2683.00,0.0149
2680.00,0.0149
2677.00,0.0149
2674.00,0.0149
2671.00,0.0150
2668.00,0.0151
2665.00,0.0153
2662.00,0.0155
2659.00,0.0156
2656.00,0.0156
2653.00,0.0156
2650.00,0.0156
2647.00,0.0156
2644.00,0.0156
2641.00,0.0154
2638.00,0.0154
2635.00,0.0153
2632.00,0.0152
2629.00,0.0150
2626.00,0.0149
2623.00,0.0148
2620.00,0.0147
2617.00,0.0146
2614.00,0.0146
2611.00,0.0146
2608.00,0.0146
2605.00,0.0147
2602.00,0.0147
2599.00,0.0148
2596.00,0.0148
2593.00,0.0148
2590.00,0.0149
2587.00,0.0149
2584.00,0.0150
2581.00,0.0148
2578.00,0.0147
2575.00,0.0146
2572.00,0.0146
2569.00,0.0146
2566.00,0.0146
2563.00,0.0146
2560.00,0.0144
2557.00,0.0143
2554.00,0.0142
2551.00,0.0141
2548.00,0.0141
2545.00,0.0140
2542.00,0.0141
2539.00,0.0141
2536.00,0.0141
2533.00,0.0140
2530.00,0.0139
2527.00,0.0139
2524.00,0.0139
2521.00,0.0138
2518.00,0.0136
2515.00,0.0136
2512.00,0.0135
2509.00,0.0135
2506.00,0.0134
2503.00,0.0135
2500.00,0.0134
2497.00,0.0134
2494.00,0.0133
2491.00,0.0132
2488.00,0.0133
2485.00,0.0132
2482.00,0.0132
2479.00,0.0131
2476.00,0.0131
2473.00,0.0131
2470.00,0.0131
2467.00,0.0131
2464.00,0.0130
2461.00,0.0130
2458.00,0.0131
2455.00,0.0132
2452.00,0.0132
2449.00,0.0131
2446.00,0.0131
2443.00,0.0130
2440.00,0.0129
2437.00,0.0129
2434.00,0.0129
2431.00,0.0129
2428.00,0.0129
2425.00,0.0128
2422.00,0.0128
2419.00,0.0128
2416.00,0.0128
2413.00,0.0129
2410.00,0.0129
2407.00,0.0128
2404.00,0.0128
2401.00,0.0128
2398.00,0.0128
2395.00,0.0128
2392.00,0.0127
2389.00,0.0126
2386.00,0.0125
2383.00,0.0123
2380.00,0.0121
2377.00,0.0121
2374.00,0.0122
2371.00,0.0122
2368.00,0.0122
2365.00,0.0122
2362.00,0.0123
2359.00,0.0122
2356.00,0.0124
2353.00,0.0127
2350.00,0.0126
2347.00,0.0125
2344.00,0.0126
2341.00,0.0126
2338.00,0.0128
2335.00,0.0128
2332.00,0.0128
2329.00,0.0131
2326.00,0.0141
2323.00,0.0138
2320.00,0.0134
2317.00,0.0132
2314.00,0.0131
2311.00,0.0129
2308.00,0.0128
2305.00,0.0128
2302.00,0.0129
2299.00,0.0130
2296.00,0.0133
2293.00,0.0136
2290.00,0.0139
2287.00,0.0140
2284.00,0.0139
2281.00,0.0137
2278.00,0.0135
2275.00,0.0133
2272.00,0.0132
2269.00,0.0131
2266.00,0.0128
2263.00,0.0128
2260.00,0.0128
2257.00,0.0127
2254.00,0.0124
2251.00,0.0125
2248.00,0.0127
2245.00,0.0127
2242.00,0.0128
2239.00,0.0131
2236.00,0.0130
2233.00,0.0127
2230.00,0.0129
2227.00,0.0130
2224.00,0.0130
2221.00,0.0128
2218.00,0.0127
2215.00,0.0125
2212.00,0.0126
2209.00,0.0126
2206.00,0.0128
2203.00,0.0129
2200.00,0.0129
2197.00,0.0128
2194.00,0.0128
2191.00,0.0127
2188.00,0.0132
2185.00,0.0131
2182.00,0.0125
2179.00,0.0127
2176.00,0.0122
2173.00,0.0126
2170.00,0.0132
2167.00,0.0136
2164.00,0.0140
2161.00,0.0122
2158.00,0.0092
2155.00,0.0101
2152.00,0.0105
2149.00,0.0108
2146.00,0.0110
2143.00,0.0112
2140.00,0.0111
2137.00,0.0109
2134.00,0.0105
2131.00,0.0107
2128.00,0.0113
2125.00,0.0117
2122.00,0.0118
2119.00,0.0122
2116.00,0.0126
2113.00,0.0124
2110.00,0.0123
2107.00,0.0123
2104.00,0.0123
2101.00,0.0121
2098.00,0.0117
2095.00,0.0115
2092.00,0.0118
2089.00,0.0120
2086.00,0.0120
2083.00,0.0122
2080.00,0.0123
2077.00,0.0123
2074.00,0.0122
2071.00,0.0122
2068.00,0.0119
2065.00,0.0118
2062.00,0.0117
2059.00,0.0116
2056.00,0.0115
2053.00,0.0121
2050.00,0.0119
2047.00,0.0113
2044.00,0.0115
2041.00,0.0117
2038.00,0.0115
2035.00,0.0111
2032.00,0.0109
2029.00,0.0110
2026.00,0.0108
2023.00,0.0108
2020.00,0.0110
2017.00,0.0108
2014.00,0.0103
2011.00,0.0104
2008.00,0.0099
2005.00,0.0094
2002.00,0.0099
1999.00,0.0106
1996.00,0.0108
1993.00,0.0112
1990.00,0.0115
1987.00,0.0115
1984.00,0.0115
1981.00,0.0123
1978.00,0.0106
1975.00,0.0102
1972.00,0.0098
1969.00,0.0098
1966.00,0.0100
1963.00,0.0100
1960.00,0.0096
1957.00,0.0100
1954.00,0.0101
1951.00,0.0103
1948.00,0.0104
1945.00,0.0106
1942.00,0.0106
1939.00,0.0104
1936.00,0.0104
1933.00,0.0104
1930.00,0.0106
1927.00,0.0106
1924.00,0.0110
1921.00,0.0110
1918.00,0.0108
1915.00,0.0109
1912.00,0.0116
1909.00,0.0124
1906.00,0.0121
1903.00,0.0115
1900.00,0.0113
1897.00,0.0115
1894.00,0.0118
1891.00,0.0116
1888.00,0.0112
1885.00,0.0111
1882.00,0.0111
1879.00,0.0111
1876.00,0.0110
1873.00,0.0110
1870.00,0.0112
1867.00,0.0113
1864.00,0.0112
1861.00,0.0113
1858.00,0.0113
1855.00,0.0113
1852.00,0.0113
1849.00,0.0116
1846.00,0.0118
1843.00,0.0113
1840.00,0.0114
1837.00,0.0114
1834.00,0.0113
1831.00,0.0113
1828.00,0.0112
1825.00,0.0113
1822.00,0.0112
1819.00,0.0110
1816.00,0.0110
1813.00,0.0113
1810.00,0.0115
1807.00,0.0114
1804.00,0.0115
1801.00,0.0117
1798.00,0.0117
1795.00,0.0120
1792.00,0.0116
1789.00,0.0115
1786.00,0.0116
1783.00,0.0117
1780.00,0.0121
1777.00,0.0122
1774.00,0.0125
1771.00,0.0122
1768.00,0.0121
1765.00,0.0121
1762.00,0.0124
1759.00,0.0127
1756.00,0.0126
1753.00,0.0126
1750.00,0.0131
1747.00,0.0136
1744.00,0.0138
1741.00,0.0133
1738.00,0.0133
1735.00,0.0135
1732.00,0.0142
1729.00,0.0151
1726.00,0.0155
1723.00,0.0163
1720.00,0.0166
1717.00,0.0177
1714.00,0.0184
1711.00,0.0197
1708.00,0.0210
1705.00,0.0229
1702.00,0.0236
1699.00,0.0276
1696.00,0.0335
1693.00,0.0391
1690.00,0.0462
1687.00,0.0529
1684.00,0.0628
1681.00,0.0721
1678.00,0.0792
1675.00,0.0878
1672.00,0.0963
1669.00,0.1064
1666.00,0.1142
1663.00,0.1215
1660.00,0.1295
1657.00,0.1330
1654.00,0.1349
1651.00,0.1432
1648.00,0.1419
1645.00,0.1426
1642.00,0.1392
1639.00,0.1335
1636.00,0.1267
1633.00,0.1222
1630.00,0.1214
1627.00,0.1297
1624.00,0.1364
1621.00,0.1371
1618.00,0.1241
1615.00,0.1077
1612.00,0.1025
1609.00,0.0972
1606.00,0.0848
1603.00,0.0717
1600.00,0.0616
1597.00,0.0556
1594.00,0.0543
1591.00,0.0590
1588.00,0.0686
1585.00,0.0756
1582.00,0.0752
1579.00,0.0694
1576.00,0.0608
1573.00,0.0541
1570.00,0.0501
1567.00,0.0466
1564.00,0.0413
1561.00,0.0353
1558.00,0.0305
1555.00,0.0295
1552.00,0.0287
1549.00,0.0281
1546.00,0.0270
1543.00,0.0263
1540.00,0.0252
1537.00,0.0244
1534.00,0.0243
1531.00,0.0239
1528.00,0.0241
1525.00,0.0242
1522.00,0.0246
1519.00,0.0256
1516.00,0.0280
1513.00,0.0295
1510.00,0.0316
1507.00,0.0341
1504.00,0.0366
1501.00,0.0432
1498.00,0.0560
1495.00,0.0649
1492.00,0.0583
1489.00,0.0479
1486.00,0.0391
1483.00,0.0343
1480.00,0.0322
1477.00,0.0325
1474.00,0.0364
1471.00,0.0489
1468.00,0.0661
1465.00,0.0819
1462.00,0.0872
1459.00,0.0847
1456.00,0.0753
1453.00,0.0691
1450.00,0.0696
1447.00,0.0778
1444.00,0.0893
1441.00,0.1004
1438.00,0.1055
1435.00,0.1107
1432.00,0.1136
1429.00,0.1182
1426.00,0.1225
1423.00,0.1246
1420.00,0.1166
1417.00,0.1006
1414.00,0.0850
1411.00,0.0754
1408.00,0.0737
1405.00,0.0794
1402.00,0.0855
1399.00,0.0852
1396.00,0.0770
1393.00,0.0657
1390.00,0.0606
1387.00,0.0644
1384.00,0.0635
1381.00,0.0635
1378.00,0.0657
1375.00,0.0631
1372.00,0.0577
1369.00,0.0590
1366.00,0.0654
1363.00,0.0677
1360.00,0.0732
1357.00,0.0662
1354.00,0.0583
1351.00,0.0559
1348.00,0.0562
1345.00,0.0551
1342.00,0.0516
1339.00,0.0481
1336.00,0.0464
1333.00,0.0489
1330.00,0.0527
1327.00,0.0553
1324.00,0.0573
1321.00,0.0597
1318.00,0.0604
1315.00,0.0577
1312.00,0.0549
1309.00,0.0552
1306.00,0.0611
1303.00,0.0740
1300.00,0.0868
1297.00,0.0965
1294.00,0.1109
1291.00,0.1227
1288.00,0.1302
1285.00,0.1344
1282.00,0.1312
1279.00,0.1217
1276.00,0.1147
1273.00,0.1107
1270.00,0.1044
1267.00,0.0951
1264.00,0.0850
1261.00,0.0753
1258.00,0.0676
1255.00,0.0623
1252.00,0.0596
1249.00,0.0606
1246.00,0.0653
1243.00,0.0704
1240.00,0.0744
1237.00,0.0819
1234.00,0.0894
1231.00,0.0878
1228.00,0.0802
1225.00,0.0740
1222.00,0.0711
1219.00,0.0719
1216.00,0.0749
1213.00,0.0744
1210.00,0.0673
1207.00,0.0604
1204.00,0.0591
1201.00,0.0643
1198.00,0.0737
1195.00,0.0825
1192.00,0.0802
1189.00,0.0697
1186.00,0.0588
1183.00,0.0520
1180.00,0.0489
1177.00,0.0480
1174.00,0.0480
1171.00,0.0483
1168.00,0.0480
1165.00,0.0477
1162.00,0.0496
1159.00,0.0586
1156.00,0.0744
1153.00,0.0747
1150.00,0.0566
1147.00,0.0445
1144.00,0.0404
1141.00,0.0392
1138.00,0.0407
1135.00,0.0480
1132.00,0.0661
1129.00,0.0845
1126.00,0.0832
1123.00,0.0696
1120.00,0.0559
1117.00,0.0500
1114.00,0.0488
1111.00,0.0465
1108.00,0.0443
1105.00,0.0468
1102.00,0.0573
1099.00,0.0647
1096.00,0.0562
1093.00,0.0453
1090.00,0.0402
1087.00,0.0381
1084.00,0.0373
1081.00,0.0374
1078.00,0.0381
1075.00,0.0392
1072.00,0.0403
1069.00,0.0420
1066.00,0.0446
1063.00,0.0502
1060.00,0.0631
1057.00,0.0861
1054.00,0.1055
1051.00,0.1105
1048.00,0.1068
1045.00,0.0919
1042.00,0.0741
1039.00,0.0632
1036.00,0.0620
1033.00,0.0655
1030.00,0.0797
1027.00,0.0988
1024.00,0.0926
1021.00,0.0735
1018.00,0.0605
1015.00,0.0522
1012.00,0.0472
1009.00,0.0480
1006.00,0.0556
1003.00,0.0616
1000.00,0.0589
997.00,0.0538
994.00,0.0502
991.00,0.0457
988.00,0.0407
985.00,0.0375
982.00,0.0358
979.00,0.0350
976.00,0.0348
973.00,0.0344
970.00,0.0337
967.00,0.0336
964.00,0.0343
961.00,0.0344
958.00,0.0317
955.00,0.0294
952.00,0.0285
949.00,0.0294
946.00,0.0299
943.00,0.0307
940.00,0.0336
937.00,0.0363
934.00,0.0385
931.00,0.0384
928.00,0.0361
925.00,0.0367
922.00,0.0393
919.00,0.0370
916.00,0.0322
913.00,0.0297
910.00,0.0291
907.00,0.0297
904.00,0.0326
901.00,0.0392
898.00,0.0424
895.00,0.0388
892.00,0.0402
889.00,0.0423
886.00,0.0351
883.00,0.0326
880.00,0.0340
877.00,0.0404
874.00,0.0543
871.00,0.0699
868.00,0.0710
865.00,0.0610
862.00,0.0522
859.00,0.0474
856.00,0.0519
853.00,0.0615
850.00,0.0717
847.00,0.0725
844.00,0.0641
841.00,0.0593
838.00,0.0623
835.00,0.0718
832.00,0.0732
829.00,0.0626
826.00,0.0510
823.00,0.0570
820.00,0.0792
817.00,0.0875
814.00,0.0832
811.00,0.0568
808.00,0.0461
805.00,0.0421
802.00,0.0406
799.00,0.0399
796.00,0.0398
793.00,0.0398
790.00,0.0399
787.00,0.0402
784.00,0.0405
781.00,0.0414
778.00,0.0434
775.00,0.0486
772.00,0.0485
769.00,0.0465
766.00,0.0469
763.00,0.0492
760.00,0.0528
757.00,0.0543
754.00,0.0545
751.00,0.0559
748.00,0.0579
745.00,0.0602
742.00,0.0636
739.00,0.0702
736.00,0.0828
733.00,0.0858
730.00,0.0834
727.00,0.0816
724.00,0.0726
721.00,0.0677
718.00,0.0692
715.00,0.0734
712.00,0.0727
709.00,0.0701
706.00,0.0698
703.00,0.0717
700.00,0.0748
697.00,0.0770
694.00,0.0758
691.00,0.0776
688.00,0.0831
685.00,0.0824
682.00,0.0814
679.00,0.0834
676.00,0.0877
673.00,0.0936
670.00,0.0969
667.00,0.0983
664.00,0.0996
661.00,0.1037
658.00,0.1040
655.00,0.1035
652.00,0.1049
649.00,0.1063
646.00,0.1067
643.00,0.1055
640.00,0.1035
637.00,0.1018
634.00,0.1006
631.00,0.0997
628.00,0.0995
625.00,0.1008
622.00,0.1040
619.00,0.1061
616.00,0.1031
613.00,0.0987
610.00,0.0987
607.00,0.1054
604.00,0.1145
601.00,0.1186
598.00,0.1195
595.00,0.1199
592.00,0.1200
589.00,0.1196
586.00,0.1200
583.00,0.1225
580.00,0.1277
577.00,0.1363
574.00,0.1370
571.00,0.1304
568.00,0.1256
565.00,0.1262
562.00,0.1303
559.00,0.1331
556.00,0.1284
553.00,0.1242
550.00,0.1266
547.00,0.1328
544.00,0.1323
541.00,0.1267
538.00,0.1225
535.00,0.1235
532.00,0.1289
529.00,0.1284
526.00,0.1218
523.00,0.1170
520.00,0.1144
517.00,0.1127
514.00,0.1114
511.00,0.1113
508.00,0.1125
505.00,0.1133
502.00,0.1114
499.00,0.1093
496.00,0.1098
493.00,0.1121
490.00,0.1123
487.00,0.1105
484.00,0.1095
481.00,0.1091
478.00,0.1080
475.00,0.1079
472.00,0.1070
469.00,0.1073
466.00,0.1061
463.00,0.1049
460.00,0.1041
457.00,0.1043
454.00,0.1033
451.00,0.1020
448.00,0.1013
445.00,0.1005
442.00,0.0999
439.00,0.0988
436.00,0.0976
433.00,0.0960
430.00,0.0957
427.00,0.0949
424.00,0.0936
421.00,0.0922
418.00,0.0917
415.00,0.0922
412.00,0.0958
409.00,0.0949
406.00,0.0925
403.00,0.0917
400.00,0.0876