File: FTIR/Olivia/2025_06_05_Putative_Cocrystal_Sorbic_CBD_Scan3.csv
Created as New Dataset,Sample 590 By YargerLab Date Thursday, June 05 2025
cm-1,A
4000.00,0.0028
3997.00,0.0028
3994.00,0.0027
3991.00,0.0027
3988.00,0.0027
3985.00,0.0028
3982.00,0.0028
3979.00,0.0028
3976.00,0.0028
3973.00,0.0027
3970.00,0.0028
3967.00,0.0028
3964.00,0.0028
3961.00,0.0027
3958.00,0.0028
3955.00,0.0028
3952.00,0.0028
3949.00,0.0028
3946.00,0.0027
3943.00,0.0027
3940.00,0.0027
3937.00,0.0027
3934.00,0.0026
3931.00,0.0026
3928.00,0.0026
3925.00,0.0026
3922.00,0.0026
3919.00,0.0026
3916.00,0.0026
3913.00,0.0026
3910.00,0.0027
3907.00,0.0026
3904.00,0.0025
3901.00,0.0024
3898.00,0.0025
3895.00,0.0025
3892.00,0.0026
3889.00,0.0026
3886.00,0.0025
3883.00,0.0025
3880.00,0.0025
3877.00,0.0025
3874.00,0.0024
3871.00,0.0024
3868.00,0.0024
3865.00,0.0023
3862.00,0.0024
3859.00,0.0024
3856.00,0.0024
3853.00,0.0023
3850.00,0.0024
3847.00,0.0024
3844.00,0.0025
3841.00,0.0024
3838.00,0.0023
3835.00,0.0024
3832.00,0.0024
3829.00,0.0024
3826.00,0.0024
3823.00,0.0024
3820.00,0.0024
3817.00,0.0023
3814.00,0.0023
3811.00,0.0024
3808.00,0.0024
3805.00,0.0024
3802.00,0.0023
3799.00,0.0023
3796.00,0.0023
3793.00,0.0024
3790.00,0.0024
3787.00,0.0025
3784.00,0.0024
3781.00,0.0024
3778.00,0.0024
3775.00,0.0024
3772.00,0.0024
3769.00,0.0024
3766.00,0.0023
3763.00,0.0024
3760.00,0.0024
3757.00,0.0023
3754.00,0.0023
3751.00,0.0022
3748.00,0.0021
3745.00,0.0022
3742.00,0.0022
3739.00,0.0021
3736.00,0.0020
3733.00,0.0021
3730.00,0.0022
3727.00,0.0022
3724.00,0.0022
3721.00,0.0022
3718.00,0.0022
3715.00,0.0022
3712.00,0.0022
3709.00,0.0022
3706.00,0.0022
3703.00,0.0021
3700.00,0.0022
3697.00,0.0022
3694.00,0.0022
3691.00,0.0021
3688.00,0.0019
3685.00,0.0020
3682.00,0.0021
3679.00,0.0020
3676.00,0.0018
3673.00,0.0018
3670.00,0.0018
3667.00,0.0018
3664.00,0.0019
3661.00,0.0019
3658.00,0.0019
3655.00,0.0018
3652.00,0.0017
3649.00,0.0017
3646.00,0.0017
3643.00,0.0018
3640.00,0.0019
3637.00,0.0019
3634.00,0.0020
3631.00,0.0019
3628.00,0.0019
3625.00,0.0020
3622.00,0.0020
3619.00,0.0020
3616.00,0.0021
3613.00,0.0022
3610.00,0.0021
3607.00,0.0021
3604.00,0.0021
3601.00,0.0022
3598.00,0.0022
3595.00,0.0022
3592.00,0.0022
3589.00,0.0022
3586.00,0.0023
3583.00,0.0023
3580.00,0.0023
3577.00,0.0024
3574.00,0.0025
3571.00,0.0025
3568.00,0.0024
3565.00,0.0025
3562.00,0.0026
3559.00,0.0027
3556.00,0.0028
3553.00,0.0029
3550.00,0.0029
3547.00,0.0029
3544.00,0.0031
3541.00,0.0033
3538.00,0.0033
3535.00,0.0034
3532.00,0.0036
3529.00,0.0037
3526.00,0.0038
3523.00,0.0041
3520.00,0.0044
3517.00,0.0046
3514.00,0.0048
3511.00,0.0051
3508.00,0.0055
3505.00,0.0058
3502.00,0.0063
3499.00,0.0068
3496.00,0.0074
3493.00,0.0080
3490.00,0.0087
3487.00,0.0095
3484.00,0.0104
3481.00,0.0114
3478.00,0.0124
3475.00,0.0136
3472.00,0.0152
3469.00,0.0175
3466.00,0.0206
3463.00,0.0251
3460.00,0.0315
3457.00,0.0396
3454.00,0.0478
3451.00,0.0525
3448.00,0.0516
3445.00,0.0463
3442.00,0.0395
3439.00,0.0331
3436.00,0.0277
3433.00,0.0235
3430.00,0.0203
3427.00,0.0178
3424.00,0.0159
3421.00,0.0145
3418.00,0.0134
3415.00,0.0127
3412.00,0.0122
3409.00,0.0117
3406.00,0.0114
3403.00,0.0111
3400.00,0.0109
3397.00,0.0108
3394.00,0.0107
3391.00,0.0106
3388.00,0.0105
3385.00,0.0105
3382.00,0.0105
3379.00,0.0105
3376.00,0.0106
3373.00,0.0106
3370.00,0.0105
3367.00,0.0106
3364.00,0.0107
3361.00,0.0107
3358.00,0.0108
3355.00,0.0110
3352.00,0.0111
3349.00,0.0112
3346.00,0.0113
3343.00,0.0114
3340.00,0.0115
3337.00,0.0117
3334.00,0.0118
3331.00,0.0120
3328.00,0.0122
3325.00,0.0123
3322.00,0.0126
3319.00,0.0128
3316.00,0.0130
3313.00,0.0132
3310.00,0.0135
3307.00,0.0137
3304.00,0.0140
3301.00,0.0143
3298.00,0.0145
3295.00,0.0148
3292.00,0.0151
3289.00,0.0155
3286.00,0.0160
3283.00,0.0164
3280.00,0.0167
3277.00,0.0170
3274.00,0.0172
3271.00,0.0175
3268.00,0.0181
3265.00,0.0186
3262.00,0.0189
3259.00,0.0191
3256.00,0.0193
3253.00,0.0196
3250.00,0.0198
3247.00,0.0200
3244.00,0.0204
3241.00,0.0208
3238.00,0.0211
3235.00,0.0214
3232.00,0.0217
3229.00,0.0221
3226.00,0.0224
3223.00,0.0227
3220.00,0.0229
3217.00,0.0232
3214.00,0.0235
3211.00,0.0239
3208.00,0.0243
3205.00,0.0246
3202.00,0.0249
3199.00,0.0252
3196.00,0.0255
3193.00,0.0256
3190.00,0.0259
3187.00,0.0261
3184.00,0.0263
3181.00,0.0265
3178.00,0.0266
3175.00,0.0268
3172.00,0.0269
3169.00,0.0270
3166.00,0.0271
3163.00,0.0272
3160.00,0.0273
3157.00,0.0273
3154.00,0.0272
3151.00,0.0276
3148.00,0.0281
3145.00,0.0285
3142.00,0.0286
3139.00,0.0289
3136.00,0.0294
3133.00,0.0296
3130.00,0.0297
3127.00,0.0300
3124.00,0.0301
3121.00,0.0300
3118.00,0.0302
3115.00,0.0306
3112.00,0.0309
3109.00,0.0312
3106.00,0.0315
3103.00,0.0317
3100.00,0.0319
3097.00,0.0320
3094.00,0.0320
3091.00,0.0320
3088.00,0.0321
3085.00,0.0322
3082.00,0.0323
3079.00,0.0328
3076.00,0.0336
3073.00,0.0346
3070.00,0.0350
3067.00,0.0345
3064.00,0.0334
3061.00,0.0320
3058.00,0.0308
3055.00,0.0299
3052.00,0.0293
3049.00,0.0288
3046.00,0.0284
3043.00,0.0282
3040.00,0.0280
3037.00,0.0278
3034.00,0.0277
3031.00,0.0274
3028.00,0.0271
3025.00,0.0267
3022.00,0.0263
3019.00,0.0259
3016.00,0.0256
3013.00,0.0254
3010.00,0.0253
3007.00,0.0252
3004.00,0.0251
3001.00,0.0253
2998.00,0.0256
2995.00,0.0263
2992.00,0.0274
2989.00,0.0283
2986.00,0.0287
2983.00,0.0288
2980.00,0.0300
2977.00,0.0320
2974.00,0.0331
2971.00,0.0337
2968.00,0.0347
2965.00,0.0366
2962.00,0.0402
2959.00,0.0449
2956.00,0.0485
2953.00,0.0500
2950.00,0.0487
2947.00,0.0456
2944.00,0.0450
2941.00,0.0478
2938.00,0.0522
2935.00,0.0576
2932.00,0.0648
2929.00,0.0728
2926.00,0.0775
2923.00,0.0773
2920.00,0.0734
2917.00,0.0678
2914.00,0.0620
2911.00,0.0560
2908.00,0.0501
2905.00,0.0454
2902.00,0.0424
2899.00,0.0402
2896.00,0.0385
2893.00,0.0372
2890.00,0.0363
2887.00,0.0359
2884.00,0.0357
2881.00,0.0357
2878.00,0.0365
2875.00,0.0384
2872.00,0.0409
2869.00,0.0410
2866.00,0.0390
2863.00,0.0398
2860.00,0.0432
2857.00,0.0454
2854.00,0.0439
2851.00,0.0398
2848.00,0.0357
2845.00,0.0332
2842.00,0.0319
2839.00,0.0307
2836.00,0.0308
2833.00,0.0308
2830.00,0.0287
2827.00,0.0256
2824.00,0.0233
2821.00,0.0218
2818.00,0.0208
2815.00,0.0201
2812.00,0.0196
2809.00,0.0192
2806.00,0.0189
2803.00,0.0186
2800.00,0.0184
2797.00,0.0183
2794.00,0.0181
2791.00,0.0180
2788.00,0.0180
2785.00,0.0181
2782.00,0.0181
2779.00,0.0182
2776.00,0.0184
2773.00,0.0186
2770.00,0.0189
2767.00,0.0191
2764.00,0.0192
2761.00,0.0194
2758.00,0.0196
2755.00,0.0197
2752.00,0.0198
2749.00,0.0198
2746.00,0.0198
2743.00,0.0199
2740.00,0.0200
2737.00,0.0202
2734.00,0.0205
2731.00,0.0206
2728.00,0.0206
2725.00,0.0207
2722.00,0.0207
2719.00,0.0207
2716.00,0.0206
2713.00,0.0207
2710.00,0.0207
2707.00,0.0208
2704.00,0.0209
2701.00,0.0209
2698.00,0.0210
2695.00,0.0211
2692.00,0.0211
2689.00,0.0211
2686.00,0.0210
2683.00,0.0210
2680.00,0.0210
2677.00,0.0209
2674.00,0.0209
2671.00,0.0210
2668.00,0.0211
2665.00,0.0212
2662.00,0.0213
2659.00,0.0212
2656.00,0.0211
2653.00,0.0210
2650.00,0.0208
2647.00,0.0207
2644.00,0.0206
2641.00,0.0205
2638.00,0.0204
2635.00,0.0203
2632.00,0.0202
2629.00,0.0201
2626.00,0.0200
2623.00,0.0199
2620.00,0.0198
2617.00,0.0197
2614.00,0.0196
2611.00,0.0195
2608.00,0.0194
2605.00,0.0192
2602.00,0.0191
2599.00,0.0189
2596.00,0.0187
2593.00,0.0185
2590.00,0.0184
2587.00,0.0182
2584.00,0.0180
2581.00,0.0180
2578.00,0.0179
2575.00,0.0178
2572.00,0.0177
2569.00,0.0178
2566.00,0.0179
2563.00,0.0181
2560.00,0.0182
2557.00,0.0182
2554.00,0.0183
2551.00,0.0182
2548.00,0.0180
2545.00,0.0178
2542.00,0.0176
2539.00,0.0173
2536.00,0.0171
2533.00,0.0168
2530.00,0.0167
2527.00,0.0167
2524.00,0.0165
2521.00,0.0164
2518.00,0.0162
2515.00,0.0159
2512.00,0.0158
2509.00,0.0156
2506.00,0.0154
2503.00,0.0152
2500.00,0.0152
2497.00,0.0151
2494.00,0.0150
2491.00,0.0149
2488.00,0.0149
2485.00,0.0149
2482.00,0.0148
2479.00,0.0147
2476.00,0.0147
2473.00,0.0147
2470.00,0.0147
2467.00,0.0146
2464.00,0.0146
2461.00,0.0147
2458.00,0.0148
2455.00,0.0150
2452.00,0.0151
2449.00,0.0152
2446.00,0.0151
2443.00,0.0150
2440.00,0.0150
2437.00,0.0150
2434.00,0.0149
2431.00,0.0149
2428.00,0.0148
2425.00,0.0147
2422.00,0.0145
2419.00,0.0144
2416.00,0.0143
2413.00,0.0141
2410.00,0.0138
2407.00,0.0134
2404.00,0.0130
2401.00,0.0128
2398.00,0.0125
2395.00,0.0123
2392.00,0.0120
2389.00,0.0118
2386.00,0.0115
2383.00,0.0111
2380.00,0.0108
2377.00,0.0107
2374.00,0.0105
2371.00,0.0102
2368.00,0.0099
2365.00,0.0099
2362.00,0.0098
2359.00,0.0096
2356.00,0.0094
2353.00,0.0092
2350.00,0.0089
2347.00,0.0092
2344.00,0.0089
2341.00,0.0088
2338.00,0.0087
2335.00,0.0085
2332.00,0.0081
2329.00,0.0081
2326.00,0.0091
2323.00,0.0086
2320.00,0.0081
2317.00,0.0080
2314.00,0.0077
2311.00,0.0074
2308.00,0.0073
2305.00,0.0071
2302.00,0.0070
2299.00,0.0070
2296.00,0.0070
2293.00,0.0072
2290.00,0.0074
2287.00,0.0074
2284.00,0.0071
2281.00,0.0068
2278.00,0.0066
2275.00,0.0065
2272.00,0.0064
2269.00,0.0062
2266.00,0.0060
2263.00,0.0060
2260.00,0.0060
2257.00,0.0057
2254.00,0.0054
2251.00,0.0055
2248.00,0.0054
2245.00,0.0053
2242.00,0.0053
2239.00,0.0054
2236.00,0.0053
2233.00,0.0053
2230.00,0.0052
2227.00,0.0053
2224.00,0.0051
2221.00,0.0048
2218.00,0.0046
2215.00,0.0048
2212.00,0.0049
2209.00,0.0046
2206.00,0.0047
2203.00,0.0046
2200.00,0.0044
2197.00,0.0044
2194.00,0.0043
2191.00,0.0045
2188.00,0.0045
2185.00,0.0043
2182.00,0.0039
2179.00,0.0041
2176.00,0.0039
2173.00,0.0042
2170.00,0.0046
2167.00,0.0050
2164.00,0.0055
2161.00,0.0041
2158.00,0.0005
2155.00,0.0009
2152.00,0.0017
2149.00,0.0020
2146.00,0.0017
2143.00,0.0018
2140.00,0.0020
2137.00,0.0014
2134.00,0.0010
2131.00,0.0016
2128.00,0.0020
2125.00,0.0022
2122.00,0.0025
2119.00,0.0027
2116.00,0.0029
2113.00,0.0027
2110.00,0.0027
2107.00,0.0027
2104.00,0.0027
2101.00,0.0026
2098.00,0.0024
2095.00,0.0019
2092.00,0.0023
2089.00,0.0026
2086.00,0.0026
2083.00,0.0026
2080.00,0.0025
2077.00,0.0026
2074.00,0.0026
2071.00,0.0024
2068.00,0.0020
2065.00,0.0020
2062.00,0.0020
2059.00,0.0020
2056.00,0.0022
2053.00,0.0031
2050.00,0.0032
2047.00,0.0022
2044.00,0.0023
2041.00,0.0024
2038.00,0.0025
2035.00,0.0023
2032.00,0.0017
2029.00,0.0016
2026.00,0.0016
2023.00,0.0020
2020.00,0.0018
2017.00,0.0018
2014.00,0.0020
2011.00,0.0019
2008.00,0.0018
2005.00,0.0011
2002.00,0.0014
1999.00,0.0018
1996.00,0.0021
1993.00,0.0023
1990.00,0.0027
1987.00,0.0029
1984.00,0.0036
1981.00,0.0040
1978.00,0.0024
1975.00,0.0015
1972.00,0.0017
1969.00,0.0017
1966.00,0.0014
1963.00,0.0013
1960.00,0.0013
1957.00,0.0016
1954.00,0.0017
1951.00,0.0017
1948.00,0.0016
1945.00,0.0018
1942.00,0.0020
1939.00,0.0020
1936.00,0.0019
1933.00,0.0018
1930.00,0.0018
1927.00,0.0020
1924.00,0.0019
1921.00,0.0021
1918.00,0.0021
1915.00,0.0020
1912.00,0.0021
1909.00,0.0021
1906.00,0.0021
1903.00,0.0021
1900.00,0.0020
1897.00,0.0021
1894.00,0.0021
1891.00,0.0021
1888.00,0.0020
1885.00,0.0020
1882.00,0.0020
1879.00,0.0021
1876.00,0.0021
1873.00,0.0022
1870.00,0.0023
1867.00,0.0023
1864.00,0.0023
1861.00,0.0023
1858.00,0.0022
1855.00,0.0022
1852.00,0.0022
1849.00,0.0024
1846.00,0.0024
1843.00,0.0024
1840.00,0.0024
1837.00,0.0024
1834.00,0.0023
1831.00,0.0024
1828.00,0.0024
1825.00,0.0025
1822.00,0.0025
1819.00,0.0022
1816.00,0.0021
1813.00,0.0023
1810.00,0.0025
1807.00,0.0026
1804.00,0.0028
1801.00,0.0029
1798.00,0.0029
1795.00,0.0031
1792.00,0.0033
1789.00,0.0036
1786.00,0.0040
1783.00,0.0041
1780.00,0.0039
1777.00,0.0038
1774.00,0.0040
1771.00,0.0038
1768.00,0.0038
1765.00,0.0036
1762.00,0.0037
1759.00,0.0037
1756.00,0.0037
1753.00,0.0036
1750.00,0.0037
1747.00,0.0037
1744.00,0.0038
1741.00,0.0036
1738.00,0.0037
1735.00,0.0037
1732.00,0.0038
1729.00,0.0039
1726.00,0.0040
1723.00,0.0042
1720.00,0.0044
1717.00,0.0046
1714.00,0.0050
1711.00,0.0052
1708.00,0.0055
1705.00,0.0058
1702.00,0.0059
1699.00,0.0061
1696.00,0.0063
1693.00,0.0065
1690.00,0.0069
1687.00,0.0071
1684.00,0.0075
1681.00,0.0081
1678.00,0.0086
1675.00,0.0094
1672.00,0.0103
1669.00,0.0118
1666.00,0.0135
1663.00,0.0156
1660.00,0.0182
1657.00,0.0214
1654.00,0.0259
1651.00,0.0339
1648.00,0.0425
1645.00,0.0610
1642.00,0.0799
1639.00,0.0954
1636.00,0.1108
1633.00,0.1210
1630.00,0.1166
1627.00,0.1001
1624.00,0.0825
1621.00,0.0669
1618.00,0.0574
1615.00,0.0489
1612.00,0.0445
1609.00,0.0412
1606.00,0.0394
1603.00,0.0396
1600.00,0.0418
1597.00,0.0469
1594.00,0.0575
1591.00,0.0751
1588.00,0.0948
1585.00,0.1104
1582.00,0.1221
1579.00,0.1292
1576.00,0.1314
1573.00,0.1286
1570.00,0.1226
1567.00,0.1132
1564.00,0.1026
1561.00,0.0932
1558.00,0.0768
1555.00,0.0673
1552.00,0.0588
1549.00,0.0516
1546.00,0.0464
1543.00,0.0420
1540.00,0.0381
1537.00,0.0360
1534.00,0.0356
1531.00,0.0365
1528.00,0.0394
1525.00,0.0421
1522.00,0.0408
1519.00,0.0356
1516.00,0.0296
1513.00,0.0259
1510.00,0.0241
1507.00,0.0224
1504.00,0.0207
1501.00,0.0199
1498.00,0.0188
1495.00,0.0181
1492.00,0.0179
1489.00,0.0179
1486.00,0.0181
1483.00,0.0191
1480.00,0.0212
1477.00,0.0243
1474.00,0.0280
1471.00,0.0357
1468.00,0.0421
1465.00,0.0415
1462.00,0.0446
1459.00,0.0545
1456.00,0.0723
1453.00,0.0886
1450.00,0.1093
1447.00,0.1264
1444.00,0.1325
1441.00,0.1251
1438.00,0.1098
1435.00,0.0939
1432.00,0.0832
1429.00,0.0703
1426.00,0.0610
1423.00,0.0552
1420.00,0.0529
1417.00,0.0522
1414.00,0.0525
1411.00,0.0535
1408.00,0.0548
1405.00,0.0569
1402.00,0.0584
1399.00,0.0589
1396.00,0.0575
1393.00,0.0542
1390.00,0.0513
1387.00,0.0490
1384.00,0.0495
1381.00,0.0575
1378.00,0.0669
1375.00,0.0656
1372.00,0.0591
1369.00,0.0602
1366.00,0.0618
1363.00,0.0587
1360.00,0.0567
1357.00,0.0592
1354.00,0.0670
1351.00,0.0746
1348.00,0.0755
1345.00,0.0690
1342.00,0.0642
1339.00,0.0653
1336.00,0.0686
1333.00,0.0654
1330.00,0.0599
1327.00,0.0628
1324.00,0.0747
1321.00,0.0902
1318.00,0.0945
1315.00,0.0808
1312.00,0.0658
1309.00,0.0596
1306.00,0.0613
1303.00,0.0598
1300.00,0.0548
1297.00,0.0542
1294.00,0.0558
1291.00,0.0613
1288.00,0.0699
1285.00,0.0778
1282.00,0.0865
1279.00,0.0863
1276.00,0.0722
1273.00,0.0561
1270.00,0.0449
1267.00,0.0376
1264.00,0.0330
1261.00,0.0313
1258.00,0.0332
1255.00,0.0407
1252.00,0.0487
1249.00,0.0541
1246.00,0.0660
1243.00,0.0714
1240.00,0.0603
1237.00,0.0467
1234.00,0.0398
1231.00,0.0417
1228.00,0.0459
1225.00,0.0417
1222.00,0.0386
1219.00,0.0404
1216.00,0.0379
1213.00,0.0348
1210.00,0.0426
1207.00,0.0637
1204.00,0.0684
1201.00,0.0504
1198.00,0.0349
1195.00,0.0280
1192.00,0.0272
1189.00,0.0285
1186.00,0.0279
1183.00,0.0273
1180.00,0.0305
1177.00,0.0420
1174.00,0.0578
1171.00,0.0664
1168.00,0.0549
1165.00,0.0398
1162.00,0.0309
1159.00,0.0274
1156.00,0.0272
1153.00,0.0327
1150.00,0.0499
1147.00,0.0504
1144.00,0.0294
1141.00,0.0194
1138.00,0.0176
1135.00,0.0167
1132.00,0.0146
1129.00,0.0123
1126.00,0.0108
1123.00,0.0099
1120.00,0.0096
1117.00,0.0097
1114.00,0.0104
1111.00,0.0117
1108.00,0.0140
1105.00,0.0168
1102.00,0.0205
1099.00,0.0224
1096.00,0.0196
1093.00,0.0168
1090.00,0.0152
1087.00,0.0147
1084.00,0.0157
1081.00,0.0165
1078.00,0.0157
1075.00,0.0139
1072.00,0.0131
1069.00,0.0136
1066.00,0.0160
1063.00,0.0210
1060.00,0.0311
1057.00,0.0489
1054.00,0.0666
1051.00,0.0571
1048.00,0.0409
1045.00,0.0379
1042.00,0.0431
1039.00,0.0552
1036.00,0.0744
1033.00,0.0871
1030.00,0.0816
1027.00,0.0630
1024.00,0.0452
1021.00,0.0356
1018.00,0.0301
1015.00,0.0262
1012.00,0.0242
1009.00,0.0227
1006.00,0.0204
1003.00,0.0211
1000.00,0.0278
997.00,0.0275
994.00,0.0212
991.00,0.0193
988.00,0.0199
985.00,0.0205
982.00,0.0187
979.00,0.0162
976.00,0.0149
973.00,0.0152
970.00,0.0163
967.00,0.0173
964.00,0.0205
961.00,0.0257
958.00,0.0271
955.00,0.0253
952.00,0.0237
949.00,0.0231
946.00,0.0230
943.00,0.0239
940.00,0.0234
937.00,0.0211
934.00,0.0199
931.00,0.0209
928.00,0.0234
925.00,0.0257
922.00,0.0279
919.00,0.0322
916.00,0.0362
913.00,0.0368
910.00,0.0314
907.00,0.0299
904.00,0.0352
901.00,0.0390
898.00,0.0364
895.00,0.0385
892.00,0.0631
889.00,0.0872
886.00,0.0816
883.00,0.0755
880.00,0.0541
877.00,0.0443
874.00,0.0409
871.00,0.0406
868.00,0.0441
865.00,0.0561
862.00,0.0744
859.00,0.0790
856.00,0.0777
853.00,0.0700
850.00,0.0613
847.00,0.0601
844.00,0.0630
841.00,0.0645
838.00,0.0647
835.00,0.0542
832.00,0.0463
829.00,0.0468
826.00,0.0429
823.00,0.0337
820.00,0.0290
817.00,0.0267
814.00,0.0266
811.00,0.0288
808.00,0.0346
805.00,0.0470
802.00,0.0486
799.00,0.0465
796.00,0.0521
793.00,0.0505
790.00,0.0404
787.00,0.0344
784.00,0.0322
781.00,0.0309
778.00,0.0311
775.00,0.0330
772.00,0.0356
769.00,0.0364
766.00,0.0351
763.00,0.0330
760.00,0.0316
757.00,0.0314
754.00,0.0308
751.00,0.0269
748.00,0.0245
745.00,0.0251
742.00,0.0268
739.00,0.0301
736.00,0.0362
733.00,0.0418
730.00,0.0375
727.00,0.0314
724.00,0.0293
721.00,0.0284
718.00,0.0281
715.00,0.0282
712.00,0.0286
709.00,0.0281
706.00,0.0276
703.00,0.0276
700.00,0.0279
697.00,0.0284
694.00,0.0292
691.00,0.0304
688.00,0.0326
685.00,0.0357
682.00,0.0390
679.00,0.0412
676.00,0.0409
673.00,0.0398
670.00,0.0392
667.00,0.0342
664.00,0.0295
661.00,0.0273
658.00,0.0267
655.00,0.0261
652.00,0.0271
649.00,0.0281
646.00,0.0269
643.00,0.0262
640.00,0.0271
637.00,0.0289
634.00,0.0301
631.00,0.0298
628.00,0.0283
625.00,0.0264
622.00,0.0254
619.00,0.0262
616.00,0.0298
613.00,0.0308
610.00,0.0290
607.00,0.0282
604.00,0.0273
601.00,0.0262
598.00,0.0261
595.00,0.0273
592.00,0.0274
589.00,0.0265
586.00,0.0264
583.00,0.0308
580.00,0.0462
577.00,0.0494
574.00,0.0317
571.00,0.0225
568.00,0.0199
565.00,0.0198
562.00,0.0212
559.00,0.0246
556.00,0.0337
553.00,0.0502
550.00,0.0477
547.00,0.0344
544.00,0.0322
541.00,0.0335
538.00,0.0411
535.00,0.0515
532.00,0.0421
529.00,0.0348
526.00,0.0417
523.00,0.0403
520.00,0.0349
517.00,0.0262
514.00,0.0237
511.00,0.0242
508.00,0.0271
505.00,0.0313
502.00,0.0386
499.00,0.0482
496.00,0.0604
493.00,0.0723
490.00,0.0800
487.00,0.0825
484.00,0.0805
481.00,0.0794
478.00,0.0800
475.00,0.0794
472.00,0.0777
469.00,0.0760
466.00,0.0746
463.00,0.0692
460.00,0.0598
457.00,0.0557
454.00,0.0541
451.00,0.0521
448.00,0.0505
445.00,0.0489
442.00,0.0470
439.00,0.0457
436.00,0.0464
433.00,0.0437
430.00,0.0383
427.00,0.0348
424.00,0.0332
421.00,0.0333
418.00,0.0312
415.00,0.0297
412.00,0.0304
409.00,0.0293
406.00,0.0291
403.00,0.0295
400.00,0.0307