File: FTIR/Olivia/2025_08_06_1CBN_3PVP29_MP_Powder_Scan3.csv
Created as New Dataset,Sample 001 By YargerLab Date Wednesday, August 06 2025
cm-1,A
4000.00,0.0005
3997.00,0.0005
3994.00,0.0005
3991.00,0.0005
3988.00,0.0005
3985.00,0.0005
3982.00,0.0005
3979.00,0.0005
3976.00,0.0005
3973.00,0.0005
3970.00,0.0005
3967.00,0.0005
3964.00,0.0005
3961.00,0.0005
3958.00,0.0005
3955.00,0.0006
3952.00,0.0006
3949.00,0.0006
3946.00,0.0006
3943.00,0.0006
3940.00,0.0006
3937.00,0.0005
3934.00,0.0006
3931.00,0.0006
3928.00,0.0006
3925.00,0.0005
3922.00,0.0006
3919.00,0.0006
3916.00,0.0006
3913.00,0.0006
3910.00,0.0005
3907.00,0.0006
3904.00,0.0008
3901.00,0.0010
3898.00,0.0009
3895.00,0.0007
3892.00,0.0007
3889.00,0.0008
3886.00,0.0008
3883.00,0.0008
3880.00,0.0008
3877.00,0.0007
3874.00,0.0007
3871.00,0.0009
3868.00,0.0009
3865.00,0.0010
3862.00,0.0008
3859.00,0.0008
3856.00,0.0010
3853.00,0.0012
3850.00,0.0012
3847.00,0.0008
3844.00,0.0007
3841.00,0.0009
3838.00,0.0011
3835.00,0.0010
3832.00,0.0009
3829.00,0.0008
3826.00,0.0008
3823.00,0.0009
3820.00,0.0010
3817.00,0.0010
3814.00,0.0008
3811.00,0.0007
3808.00,0.0007
3805.00,0.0009
3802.00,0.0011
3799.00,0.0010
3796.00,0.0008
3793.00,0.0006
3790.00,0.0006
3787.00,0.0006
3784.00,0.0006
3781.00,0.0007
3778.00,0.0006
3775.00,0.0006
3772.00,0.0007
3769.00,0.0007
3766.00,0.0007
3763.00,0.0007
3760.00,0.0008
3757.00,0.0008
3754.00,0.0010
3751.00,0.0012
3748.00,0.0014
3745.00,0.0014
3742.00,0.0012
3739.00,0.0011
3736.00,0.0010
3733.00,0.0010
3730.00,0.0008
3727.00,0.0007
3724.00,0.0007
3721.00,0.0007
3718.00,0.0006
3715.00,0.0007
3712.00,0.0009
3709.00,0.0008
3706.00,0.0007
3703.00,0.0006
3700.00,0.0005
3697.00,0.0005
3694.00,0.0005
3691.00,0.0007
3688.00,0.0008
3685.00,0.0007
3682.00,0.0005
3679.00,0.0007
3676.00,0.0010
3673.00,0.0011
3670.00,0.0010
3667.00,0.0008
3664.00,0.0007
3661.00,0.0005
3658.00,0.0007
3655.00,0.0008
3652.00,0.0010
3649.00,0.0011
3646.00,0.0011
3643.00,0.0009
3640.00,0.0008
3637.00,0.0007
3634.00,0.0008
3631.00,0.0011
3628.00,0.0012
3625.00,0.0011
3622.00,0.0010
3619.00,0.0012
3616.00,0.0013
3613.00,0.0013
3610.00,0.0013
3607.00,0.0013
3604.00,0.0013
3601.00,0.0012
3598.00,0.0013
3595.00,0.0013
3592.00,0.0014
3589.00,0.0016
3586.00,0.0016
3583.00,0.0016
3580.00,0.0016
3577.00,0.0017
3574.00,0.0017
3571.00,0.0018
3568.00,0.0020
3565.00,0.0020
3562.00,0.0021
3559.00,0.0020
3556.00,0.0020
3553.00,0.0021
3550.00,0.0023
3547.00,0.0023
3544.00,0.0024
3541.00,0.0024
3538.00,0.0025
3535.00,0.0026
3532.00,0.0026
3529.00,0.0027
3526.00,0.0028
3523.00,0.0029
3520.00,0.0029
3517.00,0.0029
3514.00,0.0030
3511.00,0.0030
3508.00,0.0031
3505.00,0.0032
3502.00,0.0032
3499.00,0.0032
3496.00,0.0032
3493.00,0.0032
3490.00,0.0033
3487.00,0.0033
3484.00,0.0034
3481.00,0.0034
3478.00,0.0035
3475.00,0.0035
3472.00,0.0036
3469.00,0.0036
3466.00,0.0036
3463.00,0.0036
3460.00,0.0037
3457.00,0.0038
3454.00,0.0039
3451.00,0.0039
3448.00,0.0040
3445.00,0.0040
3442.00,0.0040
3439.00,0.0041
3436.00,0.0042
3433.00,0.0042
3430.00,0.0042
3427.00,0.0043
3424.00,0.0044
3421.00,0.0045
3418.00,0.0046
3415.00,0.0047
3412.00,0.0048
3409.00,0.0049
3406.00,0.0050
3403.00,0.0052
3400.00,0.0052
3397.00,0.0053
3394.00,0.0053
3391.00,0.0053
3388.00,0.0052
3385.00,0.0052
3382.00,0.0051
3379.00,0.0049
3376.00,0.0048
3373.00,0.0047
3370.00,0.0045
3367.00,0.0044
3364.00,0.0044
3361.00,0.0043
3358.00,0.0041
3355.00,0.0040
3352.00,0.0039
3349.00,0.0038
3346.00,0.0037
3343.00,0.0036
3340.00,0.0036
3337.00,0.0036
3334.00,0.0035
3331.00,0.0034
3328.00,0.0034
3325.00,0.0033
3322.00,0.0032
3319.00,0.0033
3316.00,0.0032
3313.00,0.0033
3310.00,0.0033
3307.00,0.0032
3304.00,0.0032
3301.00,0.0033
3298.00,0.0033
3295.00,0.0033
3292.00,0.0033
3289.00,0.0034
3286.00,0.0033
3283.00,0.0034
3280.00,0.0034
3277.00,0.0035
3274.00,0.0035
3271.00,0.0035
3268.00,0.0036
3265.00,0.0036
3262.00,0.0036
3259.00,0.0036
3256.00,0.0036
3253.00,0.0037
3250.00,0.0037
3247.00,0.0037
3244.00,0.0038
3241.00,0.0039
3238.00,0.0039
3235.00,0.0038
3232.00,0.0038
3229.00,0.0039
3226.00,0.0038
3223.00,0.0039
3220.00,0.0039
3217.00,0.0039
3214.00,0.0039
3211.00,0.0038
3208.00,0.0038
3205.00,0.0037
3202.00,0.0037
3199.00,0.0036
3196.00,0.0035
3193.00,0.0035
3190.00,0.0034
3187.00,0.0034
3184.00,0.0033
3181.00,0.0032
3178.00,0.0031
3175.00,0.0030
3172.00,0.0029
3169.00,0.0029
3166.00,0.0028
3163.00,0.0027
3160.00,0.0026
3157.00,0.0025
3154.00,0.0024
3151.00,0.0024
3148.00,0.0023
3145.00,0.0022
3142.00,0.0022
3139.00,0.0022
3136.00,0.0021
3133.00,0.0020
3130.00,0.0020
3127.00,0.0019
3124.00,0.0019
3121.00,0.0019
3118.00,0.0018
3115.00,0.0017
3112.00,0.0017
3109.00,0.0017
3106.00,0.0016
3103.00,0.0015
3100.00,0.0015
3097.00,0.0015
3094.00,0.0015
3091.00,0.0015
3088.00,0.0015
3085.00,0.0015
3082.00,0.0014
3079.00,0.0014
3076.00,0.0014
3073.00,0.0013
3070.00,0.0013
3067.00,0.0013
3064.00,0.0013
3061.00,0.0013
3058.00,0.0013
3055.00,0.0013
3052.00,0.0013
3049.00,0.0013
3046.00,0.0013
3043.00,0.0012
3040.00,0.0013
3037.00,0.0013
3034.00,0.0013
3031.00,0.0013
3028.00,0.0012
3025.00,0.0012
3022.00,0.0013
3019.00,0.0012
3016.00,0.0012
3013.00,0.0013
3010.00,0.0014
3007.00,0.0015
3004.00,0.0017
3001.00,0.0019
2998.00,0.0021
2995.00,0.0023
2992.00,0.0023
2989.00,0.0023
2986.00,0.0024
2983.00,0.0025
2980.00,0.0026
2977.00,0.0027
2974.00,0.0031
2971.00,0.0035
2968.00,0.0038
2965.00,0.0042
2962.00,0.0045
2959.00,0.0043
2956.00,0.0040
2953.00,0.0039
2950.00,0.0041
2947.00,0.0044
2944.00,0.0045
2941.00,0.0046
2938.00,0.0049
2935.00,0.0056
2932.00,0.0064
2929.00,0.0070
2926.00,0.0071
2923.00,0.0068
2920.00,0.0062
2917.00,0.0056
2914.00,0.0052
2911.00,0.0049
2908.00,0.0047
2905.00,0.0044
2902.00,0.0042
2899.00,0.0041
2896.00,0.0040
2893.00,0.0039
2890.00,0.0038
2887.00,0.0037
2884.00,0.0036
2881.00,0.0036
2878.00,0.0037
2875.00,0.0039
2872.00,0.0039
2869.00,0.0038
2866.00,0.0039
2863.00,0.0043
2860.00,0.0048
2857.00,0.0051
2854.00,0.0050
2851.00,0.0048
2848.00,0.0043
2845.00,0.0036
2842.00,0.0031
2839.00,0.0027
2836.00,0.0025
2833.00,0.0022
2830.00,0.0021
2827.00,0.0020
2824.00,0.0018
2821.00,0.0018
2818.00,0.0017
2815.00,0.0016
2812.00,0.0015
2809.00,0.0015
2806.00,0.0015
2803.00,0.0014
2800.00,0.0014
2797.00,0.0013
2794.00,0.0013
2791.00,0.0013
2788.00,0.0012
2785.00,0.0012
2782.00,0.0013
2779.00,0.0013
2776.00,0.0012
2773.00,0.0012
2770.00,0.0012
2767.00,0.0012
2764.00,0.0011
2761.00,0.0011
2758.00,0.0012
2755.00,0.0012
2752.00,0.0012
2749.00,0.0012
2746.00,0.0012
2743.00,0.0012
2740.00,0.0012
2737.00,0.0012
2734.00,0.0012
2731.00,0.0012
2728.00,0.0012
2725.00,0.0012
2722.00,0.0012
2719.00,0.0012
2716.00,0.0012
2713.00,0.0012
2710.00,0.0012
2707.00,0.0012
2704.00,0.0012
2701.00,0.0012
2698.00,0.0012
2695.00,0.0011
2692.00,0.0011
2689.00,0.0011
2686.00,0.0011
2683.00,0.0011
2680.00,0.0011
2677.00,0.0011
2674.00,0.0011
2671.00,0.0011
2668.00,0.0012
2665.00,0.0012
2662.00,0.0014
2659.00,0.0015
2656.00,0.0015
2653.00,0.0016
2650.00,0.0016
2647.00,0.0016
2644.00,0.0016
2641.00,0.0016
2638.00,0.0016
2635.00,0.0016
2632.00,0.0015
2629.00,0.0015
2626.00,0.0015
2623.00,0.0014
2620.00,0.0015
2617.00,0.0014
2614.00,0.0014
2611.00,0.0013
2608.00,0.0013
2605.00,0.0013
2602.00,0.0014
2599.00,0.0013
2596.00,0.0012
2593.00,0.0012
2590.00,0.0012
2587.00,0.0012
2584.00,0.0012
2581.00,0.0012
2578.00,0.0012
2575.00,0.0011
2572.00,0.0010
2569.00,0.0010
2566.00,0.0010
2563.00,0.0010
2560.00,0.0010
2557.00,0.0010
2554.00,0.0010
2551.00,0.0010
2548.00,0.0010
2545.00,0.0010
2542.00,0.0009
2539.00,0.0009
2536.00,0.0009
2533.00,0.0009
2530.00,0.0009
2527.00,0.0009
2524.00,0.0009
2521.00,0.0009
2518.00,0.0009
2515.00,0.0009
2512.00,0.0008
2509.00,0.0008
2506.00,0.0008
2503.00,0.0008
2500.00,0.0008
2497.00,0.0009
2494.00,0.0009
2491.00,0.0008
2488.00,0.0008
2485.00,0.0008
2482.00,0.0007
2479.00,0.0007
2476.00,0.0007
2473.00,0.0007
2470.00,0.0008
2467.00,0.0007
2464.00,0.0008
2461.00,0.0008
2458.00,0.0008
2455.00,0.0009
2452.00,0.0009
2449.00,0.0008
2446.00,0.0008
2443.00,0.0007
2440.00,0.0007
2437.00,0.0007
2434.00,0.0007
2431.00,0.0006
2428.00,0.0006
2425.00,0.0006
2422.00,0.0005
2419.00,0.0006
2416.00,0.0006
2413.00,0.0005
2410.00,0.0006
2407.00,0.0005
2404.00,0.0004
2401.00,0.0004
2398.00,0.0004
2395.00,0.0004
2392.00,0.0004
2389.00,0.0004
2386.00,0.0003
2383.00,0.0001
2380.00,-0.0000
2377.00,-0.0001
2374.00,-0.0001
2371.00,-0.0001
2368.00,-0.0002
2365.00,-0.0000
2362.00,-0.0001
2359.00,-0.0001
2356.00,0.0000
2353.00,0.0001
2350.00,0.0001
2347.00,0.0002
2344.00,0.0002
2341.00,0.0003
2338.00,0.0005
2335.00,0.0005
2332.00,0.0005
2329.00,0.0007
2326.00,0.0017
2323.00,0.0015
2320.00,0.0010
2317.00,0.0010
2314.00,0.0009
2311.00,0.0007
2308.00,0.0007
2305.00,0.0008
2302.00,0.0010
2299.00,0.0010
2296.00,0.0011
2293.00,0.0015
2290.00,0.0017
2287.00,0.0018
2284.00,0.0017
2281.00,0.0016
2278.00,0.0015
2275.00,0.0014
2272.00,0.0015
2269.00,0.0014
2266.00,0.0012
2263.00,0.0011
2260.00,0.0012
2257.00,0.0011
2254.00,0.0008
2251.00,0.0008
2248.00,0.0009
2245.00,0.0010
2242.00,0.0011
2239.00,0.0011
2236.00,0.0013
2233.00,0.0011
2230.00,0.0010
2227.00,0.0011
2224.00,0.0012
2221.00,0.0011
2218.00,0.0011
2215.00,0.0011
2212.00,0.0012
2209.00,0.0012
2206.00,0.0011
2203.00,0.0011
2200.00,0.0011
2197.00,0.0009
2194.00,0.0010
2191.00,0.0013
2188.00,0.0015
2185.00,0.0013
2182.00,0.0008
2179.00,0.0011
2176.00,0.0007
2173.00,0.0009
2170.00,0.0018
2167.00,0.0020
2164.00,0.0021
2161.00,0.0006
2158.00,-0.0021
2155.00,-0.0013
2152.00,-0.0008
2149.00,-0.0006
2146.00,-0.0006
2143.00,-0.0008
2140.00,-0.0006
2137.00,-0.0009
2134.00,-0.0014
2131.00,-0.0008
2128.00,-0.0004
2125.00,-0.0001
2122.00,0.0003
2119.00,0.0005
2116.00,0.0007
2113.00,0.0009
2110.00,0.0007
2107.00,0.0006
2104.00,0.0007
2101.00,0.0006
2098.00,0.0005
2095.00,0.0002
2092.00,0.0004
2089.00,0.0006
2086.00,0.0007
2083.00,0.0008
2080.00,0.0009
2077.00,0.0010
2074.00,0.0008
2071.00,0.0007
2068.00,0.0007
2065.00,0.0006
2062.00,0.0006
2059.00,0.0006
2056.00,0.0006
2053.00,0.0013
2050.00,0.0014
2047.00,0.0008
2044.00,0.0007
2041.00,0.0009
2038.00,0.0013
2035.00,0.0008
2032.00,0.0004
2029.00,0.0002
2026.00,-0.0000
2023.00,-0.0000
2020.00,0.0001
2017.00,-0.0000
2014.00,-0.0002
2011.00,-0.0001
2008.00,-0.0003
2005.00,-0.0006
2002.00,-0.0001
1999.00,0.0003
1996.00,0.0004
1993.00,0.0004
1990.00,0.0007
1987.00,0.0008
1984.00,0.0015
1981.00,0.0022
1978.00,0.0010
1975.00,-0.0001
1972.00,-0.0003
1969.00,-0.0004
1966.00,-0.0003
1963.00,-0.0005
1960.00,-0.0008
1957.00,-0.0005
1954.00,-0.0002
1951.00,-0.0002
1948.00,-0.0001
1945.00,-0.0002
1942.00,-0.0005
1939.00,-0.0004
1936.00,-0.0003
1933.00,-0.0002
1930.00,-0.0002
1927.00,-0.0002
1924.00,-0.0002
1921.00,0.0001
1918.00,0.0001
1915.00,0.0001
1912.00,0.0002
1909.00,0.0002
1906.00,0.0004
1903.00,0.0003
1900.00,0.0002
1897.00,0.0003
1894.00,0.0002
1891.00,0.0001
1888.00,0.0001
1885.00,0.0002
1882.00,0.0002
1879.00,0.0001
1876.00,0.0003
1873.00,0.0003
1870.00,0.0002
1867.00,0.0002
1864.00,0.0003
1861.00,0.0002
1858.00,0.0003
1855.00,0.0002
1852.00,0.0003
1849.00,0.0004
1846.00,0.0003
1843.00,0.0003
1840.00,0.0003
1837.00,0.0003
1834.00,0.0004
1831.00,0.0003
1828.00,0.0004
1825.00,0.0004
1822.00,0.0004
1819.00,0.0002
1816.00,0.0002
1813.00,0.0003
1810.00,0.0005
1807.00,0.0005
1804.00,0.0005
1801.00,0.0005
1798.00,0.0005
1795.00,0.0005
1792.00,0.0005
1789.00,0.0005
1786.00,0.0005
1783.00,0.0005
1780.00,0.0005
1777.00,0.0005
1774.00,0.0006
1771.00,0.0007
1768.00,0.0007
1765.00,0.0007
1762.00,0.0007
1759.00,0.0007
1756.00,0.0007
1753.00,0.0007
1750.00,0.0007
1747.00,0.0008
1744.00,0.0008
1741.00,0.0008
1738.00,0.0010
1735.00,0.0011
1732.00,0.0011
1729.00,0.0012
1726.00,0.0013
1723.00,0.0014
1720.00,0.0015
1717.00,0.0016
1714.00,0.0017
1711.00,0.0021
1708.00,0.0025
1705.00,0.0028
1702.00,0.0034
1699.00,0.0044
1696.00,0.0057
1693.00,0.0073
1690.00,0.0092
1687.00,0.0110
1684.00,0.0131
1681.00,0.0147
1678.00,0.0163
1675.00,0.0174
1672.00,0.0181
1669.00,0.0187
1666.00,0.0197
1663.00,0.0213
1660.00,0.0225
1657.00,0.0243
1654.00,0.0261
1651.00,0.0257
1648.00,0.0269
1645.00,0.0260
1642.00,0.0254
1639.00,0.0243
1636.00,0.0222
1633.00,0.0197
1630.00,0.0195
1627.00,0.0192
1624.00,0.0186
1621.00,0.0172
1618.00,0.0163
1615.00,0.0138
1612.00,0.0133
1609.00,0.0125
1606.00,0.0110
1603.00,0.0093
1600.00,0.0079
1597.00,0.0070
1594.00,0.0065
1591.00,0.0069
1588.00,0.0074
1585.00,0.0078
1582.00,0.0079
1579.00,0.0078
1576.00,0.0069
1573.00,0.0061
1570.00,0.0057
1567.00,0.0053
1564.00,0.0047
1561.00,0.0042
1558.00,0.0032
1555.00,0.0030
1552.00,0.0030
1549.00,0.0030
1546.00,0.0029
1543.00,0.0026
1540.00,0.0023
1537.00,0.0023
1534.00,0.0023
1531.00,0.0023
1528.00,0.0023
1525.00,0.0023
1522.00,0.0023
1519.00,0.0024
1516.00,0.0026
1513.00,0.0028
1510.00,0.0031
1507.00,0.0035
1504.00,0.0041
1501.00,0.0054
1498.00,0.0071
1495.00,0.0081
1492.00,0.0077
1489.00,0.0063
1486.00,0.0050
1483.00,0.0042
1480.00,0.0038
1477.00,0.0039
1474.00,0.0044
1471.00,0.0059
1468.00,0.0084
1465.00,0.0108
1462.00,0.0117
1459.00,0.0121
1456.00,0.0101
1453.00,0.0091
1450.00,0.0092
1447.00,0.0100
1444.00,0.0118
1441.00,0.0139
1438.00,0.0154
1435.00,0.0159
1432.00,0.0166
1429.00,0.0170
1426.00,0.0180
1423.00,0.0190
1420.00,0.0187
1417.00,0.0154
1414.00,0.0124
1411.00,0.0101
1408.00,0.0090
1405.00,0.0090
1402.00,0.0093
1399.00,0.0092
1396.00,0.0085
1393.00,0.0074
1390.00,0.0072
1387.00,0.0075
1384.00,0.0069
1381.00,0.0066
1378.00,0.0072
1375.00,0.0079
1372.00,0.0074
1369.00,0.0075
1366.00,0.0080
1363.00,0.0079
1360.00,0.0085
1357.00,0.0082
1354.00,0.0071
1351.00,0.0068
1348.00,0.0069
1345.00,0.0066
1342.00,0.0059
1339.00,0.0053
1336.00,0.0053
1333.00,0.0058
1330.00,0.0064
1327.00,0.0067
1324.00,0.0071
1321.00,0.0077
1318.00,0.0080
1315.00,0.0078
1312.00,0.0074
1309.00,0.0075
1306.00,0.0083
1303.00,0.0100
1300.00,0.0116
1297.00,0.0132
1294.00,0.0158
1291.00,0.0185
1288.00,0.0206
1285.00,0.0218
1282.00,0.0212
1279.00,0.0198
1276.00,0.0191
1273.00,0.0191
1270.00,0.0185
1267.00,0.0171
1264.00,0.0152
1261.00,0.0132
1258.00,0.0115
1255.00,0.0103
1252.00,0.0096
1249.00,0.0097
1246.00,0.0103
1243.00,0.0107
1240.00,0.0110
1237.00,0.0121
1234.00,0.0128
1231.00,0.0124
1228.00,0.0116
1225.00,0.0112
1222.00,0.0109
1219.00,0.0111
1216.00,0.0115
1213.00,0.0115
1210.00,0.0105
1207.00,0.0095
1204.00,0.0092
1201.00,0.0096
1198.00,0.0105
1195.00,0.0112
1192.00,0.0105
1189.00,0.0091
1186.00,0.0080
1183.00,0.0074
1180.00,0.0071
1177.00,0.0071
1174.00,0.0071
1171.00,0.0071
1168.00,0.0066
1165.00,0.0061
1162.00,0.0056
1159.00,0.0061
1156.00,0.0079
1153.00,0.0084
1150.00,0.0065
1147.00,0.0053
1144.00,0.0048
1141.00,0.0046
1138.00,0.0046
1135.00,0.0051
1132.00,0.0070
1129.00,0.0088
1126.00,0.0084
1123.00,0.0072
1120.00,0.0062
1117.00,0.0060
1114.00,0.0060
1111.00,0.0056
1108.00,0.0052
1105.00,0.0056
1102.00,0.0071
1099.00,0.0079
1096.00,0.0070
1093.00,0.0056
1090.00,0.0051
1087.00,0.0049
1084.00,0.0049
1081.00,0.0050
1078.00,0.0050
1075.00,0.0052
1072.00,0.0053
1069.00,0.0053
1066.00,0.0053
1063.00,0.0056
1060.00,0.0068
1057.00,0.0092
1054.00,0.0115
1051.00,0.0129
1048.00,0.0131
1045.00,0.0113
1042.00,0.0094
1039.00,0.0085
1036.00,0.0087
1033.00,0.0087
1030.00,0.0102
1027.00,0.0134
1024.00,0.0135
1021.00,0.0113
1018.00,0.0096
1015.00,0.0083
1012.00,0.0075
1009.00,0.0079
1006.00,0.0089
1003.00,0.0093
1000.00,0.0087
997.00,0.0079
994.00,0.0075
991.00,0.0068
988.00,0.0061
985.00,0.0055
982.00,0.0053
979.00,0.0051
976.00,0.0048
973.00,0.0047
970.00,0.0046
967.00,0.0046
964.00,0.0047
961.00,0.0046
958.00,0.0034
955.00,0.0020
952.00,0.0011
949.00,0.0009
946.00,0.0014
943.00,0.0024
940.00,0.0035
937.00,0.0042
934.00,0.0047
931.00,0.0050
928.00,0.0049
925.00,0.0050
922.00,0.0053
919.00,0.0049
916.00,0.0044
913.00,0.0043
910.00,0.0043
907.00,0.0045
904.00,0.0049
901.00,0.0059
898.00,0.0058
895.00,0.0051
892.00,0.0053
889.00,0.0059
886.00,0.0049
883.00,0.0044
880.00,0.0043
877.00,0.0050
874.00,0.0070
871.00,0.0091
868.00,0.0086
865.00,0.0072
862.00,0.0063
859.00,0.0060
856.00,0.0068
853.00,0.0082
850.00,0.0101
847.00,0.0100
844.00,0.0085
841.00,0.0080
838.00,0.0089
835.00,0.0103
832.00,0.0098
829.00,0.0077
826.00,0.0061
823.00,0.0065
820.00,0.0092
817.00,0.0106
814.00,0.0084
811.00,0.0046
808.00,0.0043
805.00,0.0047
802.00,0.0051
799.00,0.0052
796.00,0.0052
793.00,0.0051
790.00,0.0051
787.00,0.0052
784.00,0.0051
781.00,0.0052
778.00,0.0055
775.00,0.0063
772.00,0.0064
769.00,0.0060
766.00,0.0061
763.00,0.0067
760.00,0.0074
757.00,0.0074
754.00,0.0073
751.00,0.0075
748.00,0.0077
745.00,0.0081
742.00,0.0086
739.00,0.0095
736.00,0.0110
733.00,0.0113
730.00,0.0121
727.00,0.0119
724.00,0.0100
721.00,0.0092
718.00,0.0095
715.00,0.0101
712.00,0.0100
709.00,0.0095
706.00,0.0095
703.00,0.0099
700.00,0.0103
697.00,0.0104
694.00,0.0100
691.00,0.0102
688.00,0.0110
685.00,0.0109
682.00,0.0112
679.00,0.0117
676.00,0.0125
673.00,0.0134
670.00,0.0138
667.00,0.0138
664.00,0.0140
661.00,0.0148
658.00,0.0149
655.00,0.0149
652.00,0.0154
649.00,0.0156
646.00,0.0156
643.00,0.0154
640.00,0.0150
637.00,0.0148
634.00,0.0145
631.00,0.0142
628.00,0.0142
625.00,0.0143
622.00,0.0148
619.00,0.0150
616.00,0.0147
613.00,0.0141
610.00,0.0139
607.00,0.0151
604.00,0.0163
601.00,0.0173
598.00,0.0175
595.00,0.0173
592.00,0.0173
589.00,0.0171
586.00,0.0170
583.00,0.0170
580.00,0.0180
577.00,0.0203
574.00,0.0201
571.00,0.0190
568.00,0.0185
565.00,0.0189
562.00,0.0196
559.00,0.0199
556.00,0.0191
553.00,0.0188
550.00,0.0188
547.00,0.0199
544.00,0.0203
541.00,0.0190
538.00,0.0180
535.00,0.0182
532.00,0.0193
529.00,0.0188
526.00,0.0184
523.00,0.0181
520.00,0.0173
517.00,0.0172
514.00,0.0170
511.00,0.0170
508.00,0.0172
505.00,0.0172
502.00,0.0173
499.00,0.0170
496.00,0.0170
493.00,0.0173
490.00,0.0170
487.00,0.0177
484.00,0.0171
481.00,0.0169
478.00,0.0170
475.00,0.0172
472.00,0.0181
469.00,0.0180
466.00,0.0172
463.00,0.0170
460.00,0.0166
457.00,0.0166
454.00,0.0166
451.00,0.0175
448.00,0.0170
445.00,0.0153
442.00,0.0159
439.00,0.0159
436.00,0.0145
433.00,0.0145
430.00,0.0150
427.00,0.0148
424.00,0.0143
421.00,0.0136
418.00,0.0133
415.00,0.0147
412.00,0.0149
409.00,0.0147
406.00,0.0125
403.00,0.0116
400.00,0.0129