File: FTIR/Olivia/2025_08_01_1CBN_3PVP10kDa_MC_glass_scan2.csv
Created as New Dataset,Sample 1018 By YargerLab Date Friday, August 01 2025
cm-1,A
4000.00,0.0033
3997.00,0.0033
3994.00,0.0033
3991.00,0.0033
3988.00,0.0033
3985.00,0.0033
3982.00,0.0033
3979.00,0.0033
3976.00,0.0033
3973.00,0.0032
3970.00,0.0033
3967.00,0.0033
3964.00,0.0033
3961.00,0.0033
3958.00,0.0033
3955.00,0.0032
3952.00,0.0032
3949.00,0.0032
3946.00,0.0032
3943.00,0.0032
3940.00,0.0032
3937.00,0.0033
3934.00,0.0033
3931.00,0.0033
3928.00,0.0032
3925.00,0.0032
3922.00,0.0032
3919.00,0.0032
3916.00,0.0032
3913.00,0.0032
3910.00,0.0032
3907.00,0.0032
3904.00,0.0032
3901.00,0.0031
3898.00,0.0031
3895.00,0.0031
3892.00,0.0031
3889.00,0.0031
3886.00,0.0031
3883.00,0.0031
3880.00,0.0031
3877.00,0.0031
3874.00,0.0032
3871.00,0.0031
3868.00,0.0030
3865.00,0.0030
3862.00,0.0031
3859.00,0.0031
3856.00,0.0030
3853.00,0.0030
3850.00,0.0030
3847.00,0.0032
3844.00,0.0032
3841.00,0.0031
3838.00,0.0031
3835.00,0.0031
3832.00,0.0030
3829.00,0.0031
3826.00,0.0031
3823.00,0.0031
3820.00,0.0030
3817.00,0.0030
3814.00,0.0031
3811.00,0.0032
3808.00,0.0032
3805.00,0.0031
3802.00,0.0030
3799.00,0.0030
3796.00,0.0031
3793.00,0.0032
3790.00,0.0032
3787.00,0.0032
3784.00,0.0032
3781.00,0.0032
3778.00,0.0032
3775.00,0.0032
3772.00,0.0031
3769.00,0.0031
3766.00,0.0031
3763.00,0.0031
3760.00,0.0031
3757.00,0.0031
3754.00,0.0031
3751.00,0.0030
3748.00,0.0029
3745.00,0.0028
3742.00,0.0029
3739.00,0.0030
3736.00,0.0029
3733.00,0.0029
3730.00,0.0029
3727.00,0.0030
3724.00,0.0031
3721.00,0.0030
3718.00,0.0031
3715.00,0.0030
3712.00,0.0030
3709.00,0.0029
3706.00,0.0030
3703.00,0.0030
3700.00,0.0030
3697.00,0.0031
3694.00,0.0031
3691.00,0.0031
3688.00,0.0030
3685.00,0.0031
3682.00,0.0032
3679.00,0.0032
3676.00,0.0032
3673.00,0.0031
3670.00,0.0032
3667.00,0.0033
3664.00,0.0033
3661.00,0.0034
3658.00,0.0035
3655.00,0.0035
3652.00,0.0034
3649.00,0.0034
3646.00,0.0035
3643.00,0.0037
3640.00,0.0038
3637.00,0.0039
3634.00,0.0039
3631.00,0.0039
3628.00,0.0039
3625.00,0.0041
3622.00,0.0042
3619.00,0.0042
3616.00,0.0043
3613.00,0.0045
3610.00,0.0046
3607.00,0.0048
3604.00,0.0049
3601.00,0.0050
3598.00,0.0051
3595.00,0.0053
3592.00,0.0054
3589.00,0.0056
3586.00,0.0057
3583.00,0.0059
3580.00,0.0061
3577.00,0.0063
3574.00,0.0065
3571.00,0.0065
3568.00,0.0066
3565.00,0.0068
3562.00,0.0070
3559.00,0.0072
3556.00,0.0073
3553.00,0.0075
3550.00,0.0077
3547.00,0.0078
3544.00,0.0079
3541.00,0.0081
3538.00,0.0081
3535.00,0.0083
3532.00,0.0084
3529.00,0.0085
3526.00,0.0086
3523.00,0.0087
3520.00,0.0088
3517.00,0.0089
3514.00,0.0090
3511.00,0.0091
3508.00,0.0092
3505.00,0.0093
3502.00,0.0093
3499.00,0.0095
3496.00,0.0096
3493.00,0.0097
3490.00,0.0097
3487.00,0.0098
3484.00,0.0099
3481.00,0.0099
3478.00,0.0100
3475.00,0.0101
3472.00,0.0101
3469.00,0.0102
3466.00,0.0103
3463.00,0.0103
3460.00,0.0104
3457.00,0.0104
3454.00,0.0105
3451.00,0.0105
3448.00,0.0105
3445.00,0.0105
3442.00,0.0106
3439.00,0.0106
3436.00,0.0107
3433.00,0.0107
3430.00,0.0107
3427.00,0.0107
3424.00,0.0106
3421.00,0.0106
3418.00,0.0106
3415.00,0.0106
3412.00,0.0106
3409.00,0.0106
3406.00,0.0105
3403.00,0.0105
3400.00,0.0105
3397.00,0.0105
3394.00,0.0105
3391.00,0.0104
3388.00,0.0104
3385.00,0.0103
3382.00,0.0103
3379.00,0.0103
3376.00,0.0103
3373.00,0.0102
3370.00,0.0101
3367.00,0.0100
3364.00,0.0100
3361.00,0.0100
3358.00,0.0100
3355.00,0.0099
3352.00,0.0098
3349.00,0.0098
3346.00,0.0098
3343.00,0.0098
3340.00,0.0097
3337.00,0.0097
3334.00,0.0097
3331.00,0.0097
3328.00,0.0096
3325.00,0.0096
3322.00,0.0096
3319.00,0.0095
3316.00,0.0095
3313.00,0.0094
3310.00,0.0094
3307.00,0.0093
3304.00,0.0094
3301.00,0.0094
3298.00,0.0093
3295.00,0.0093
3292.00,0.0093
3289.00,0.0093
3286.00,0.0094
3283.00,0.0093
3280.00,0.0093
3277.00,0.0092
3274.00,0.0092
3271.00,0.0092
3268.00,0.0092
3265.00,0.0091
3262.00,0.0090
3259.00,0.0090
3256.00,0.0090
3253.00,0.0089
3250.00,0.0089
3247.00,0.0089
3244.00,0.0089
3241.00,0.0088
3238.00,0.0088
3235.00,0.0087
3232.00,0.0087
3229.00,0.0087
3226.00,0.0087
3223.00,0.0086
3220.00,0.0085
3217.00,0.0085
3214.00,0.0085
3211.00,0.0084
3208.00,0.0084
3205.00,0.0083
3202.00,0.0082
3199.00,0.0082
3196.00,0.0082
3193.00,0.0081
3190.00,0.0081
3187.00,0.0080
3184.00,0.0080
3181.00,0.0080
3178.00,0.0080
3175.00,0.0079
3172.00,0.0079
3169.00,0.0079
3166.00,0.0078
3163.00,0.0078
3160.00,0.0077
3157.00,0.0077
3154.00,0.0077
3151.00,0.0077
3148.00,0.0076
3145.00,0.0076
3142.00,0.0075
3139.00,0.0075
3136.00,0.0074
3133.00,0.0074
3130.00,0.0074
3127.00,0.0074
3124.00,0.0074
3121.00,0.0073
3118.00,0.0073
3115.00,0.0072
3112.00,0.0072
3109.00,0.0072
3106.00,0.0072
3103.00,0.0071
3100.00,0.0071
3097.00,0.0071
3094.00,0.0070
3091.00,0.0070
3088.00,0.0070
3085.00,0.0070
3082.00,0.0070
3079.00,0.0070
3076.00,0.0070
3073.00,0.0070
3070.00,0.0069
3067.00,0.0069
3064.00,0.0068
3061.00,0.0068
3058.00,0.0068
3055.00,0.0068
3052.00,0.0067
3049.00,0.0067
3046.00,0.0067
3043.00,0.0067
3040.00,0.0067
3037.00,0.0067
3034.00,0.0066
3031.00,0.0066
3028.00,0.0066
3025.00,0.0066
3022.00,0.0065
3019.00,0.0065
3016.00,0.0066
3013.00,0.0067
3010.00,0.0069
3007.00,0.0071
3004.00,0.0073
3001.00,0.0078
2998.00,0.0083
2995.00,0.0089
2992.00,0.0097
2989.00,0.0104
2986.00,0.0111
2983.00,0.0117
2980.00,0.0122
2977.00,0.0128
2974.00,0.0133
2971.00,0.0137
2968.00,0.0141
2965.00,0.0146
2962.00,0.0151
2959.00,0.0155
2956.00,0.0158
2953.00,0.0159
2950.00,0.0159
2947.00,0.0159
2944.00,0.0158
2941.00,0.0157
2938.00,0.0158
2935.00,0.0160
2932.00,0.0163
2929.00,0.0166
2926.00,0.0167
2923.00,0.0167
2920.00,0.0164
2917.00,0.0160
2914.00,0.0154
2911.00,0.0148
2908.00,0.0142
2905.00,0.0137
2902.00,0.0134
2899.00,0.0133
2896.00,0.0133
2893.00,0.0132
2890.00,0.0132
2887.00,0.0132
2884.00,0.0131
2881.00,0.0132
2878.00,0.0133
2875.00,0.0135
2872.00,0.0136
2869.00,0.0136
2866.00,0.0134
2863.00,0.0133
2860.00,0.0132
2857.00,0.0130
2854.00,0.0125
2851.00,0.0118
2848.00,0.0111
2845.00,0.0104
2842.00,0.0097
2839.00,0.0092
2836.00,0.0088
2833.00,0.0084
2830.00,0.0081
2827.00,0.0078
2824.00,0.0075
2821.00,0.0072
2818.00,0.0070
2815.00,0.0068
2812.00,0.0067
2809.00,0.0066
2806.00,0.0064
2803.00,0.0063
2800.00,0.0062
2797.00,0.0061
2794.00,0.0060
2791.00,0.0060
2788.00,0.0059
2785.00,0.0059
2782.00,0.0058
2779.00,0.0057
2776.00,0.0057
2773.00,0.0057
2770.00,0.0056
2767.00,0.0056
2764.00,0.0055
2761.00,0.0056
2758.00,0.0055
2755.00,0.0055
2752.00,0.0055
2749.00,0.0056
2746.00,0.0056
2743.00,0.0056
2740.00,0.0056
2737.00,0.0056
2734.00,0.0056
2731.00,0.0055
2728.00,0.0055
2725.00,0.0055
2722.00,0.0055
2719.00,0.0055
2716.00,0.0055
2713.00,0.0054
2710.00,0.0054
2707.00,0.0054
2704.00,0.0053
2701.00,0.0053
2698.00,0.0053
2695.00,0.0053
2692.00,0.0053
2689.00,0.0052
2686.00,0.0052
2683.00,0.0052
2680.00,0.0051
2677.00,0.0051
2674.00,0.0051
2671.00,0.0051
2668.00,0.0051
2665.00,0.0052
2662.00,0.0053
2659.00,0.0054
2656.00,0.0054
2653.00,0.0054
2650.00,0.0054
2647.00,0.0054
2644.00,0.0053
2641.00,0.0053
2638.00,0.0053
2635.00,0.0052
2632.00,0.0051
2629.00,0.0051
2626.00,0.0052
2623.00,0.0051
2620.00,0.0050
2617.00,0.0050
2614.00,0.0050
2611.00,0.0050
2608.00,0.0049
2605.00,0.0049
2602.00,0.0048
2599.00,0.0048
2596.00,0.0048
2593.00,0.0048
2590.00,0.0048
2587.00,0.0047
2584.00,0.0047
2581.00,0.0047
2578.00,0.0046
2575.00,0.0046
2572.00,0.0046
2569.00,0.0045
2566.00,0.0045
2563.00,0.0045
2560.00,0.0045
2557.00,0.0045
2554.00,0.0044
2551.00,0.0044
2548.00,0.0044
2545.00,0.0044
2542.00,0.0044
2539.00,0.0042
2536.00,0.0042
2533.00,0.0042
2530.00,0.0042
2527.00,0.0042
2524.00,0.0041
2521.00,0.0041
2518.00,0.0040
2515.00,0.0039
2512.00,0.0039
2509.00,0.0039
2506.00,0.0039
2503.00,0.0039
2500.00,0.0039
2497.00,0.0039
2494.00,0.0039
2491.00,0.0039
2488.00,0.0039
2485.00,0.0038
2482.00,0.0039
2479.00,0.0039
2476.00,0.0038
2473.00,0.0038
2470.00,0.0039
2467.00,0.0039
2464.00,0.0039
2461.00,0.0039
2458.00,0.0039
2455.00,0.0039
2452.00,0.0040
2449.00,0.0039
2446.00,0.0039
2443.00,0.0038
2440.00,0.0039
2437.00,0.0038
2434.00,0.0038
2431.00,0.0037
2428.00,0.0037
2425.00,0.0037
2422.00,0.0037
2419.00,0.0037
2416.00,0.0037
2413.00,0.0037
2410.00,0.0037
2407.00,0.0036
2404.00,0.0036
2401.00,0.0035
2398.00,0.0035
2395.00,0.0035
2392.00,0.0035
2389.00,0.0034
2386.00,0.0033
2383.00,0.0032
2380.00,0.0032
2377.00,0.0033
2374.00,0.0033
2371.00,0.0032
2368.00,0.0031
2365.00,0.0033
2362.00,0.0034
2359.00,0.0034
2356.00,0.0035
2353.00,0.0034
2350.00,0.0035
2347.00,0.0036
2344.00,0.0037
2341.00,0.0038
2338.00,0.0037
2335.00,0.0038
2332.00,0.0037
2329.00,0.0039
2326.00,0.0050
2323.00,0.0049
2320.00,0.0044
2317.00,0.0042
2314.00,0.0040
2311.00,0.0039
2308.00,0.0040
2305.00,0.0040
2302.00,0.0040
2299.00,0.0041
2296.00,0.0042
2293.00,0.0045
2290.00,0.0047
2287.00,0.0048
2284.00,0.0046
2281.00,0.0044
2278.00,0.0044
2275.00,0.0043
2272.00,0.0043
2269.00,0.0041
2266.00,0.0039
2263.00,0.0040
2260.00,0.0041
2257.00,0.0039
2254.00,0.0038
2251.00,0.0037
2248.00,0.0037
2245.00,0.0039
2242.00,0.0040
2239.00,0.0040
2236.00,0.0041
2233.00,0.0040
2230.00,0.0040
2227.00,0.0041
2224.00,0.0040
2221.00,0.0040
2218.00,0.0040
2215.00,0.0039
2212.00,0.0038
2209.00,0.0040
2206.00,0.0039
2203.00,0.0037
2200.00,0.0037
2197.00,0.0037
2194.00,0.0040
2191.00,0.0044
2188.00,0.0041
2185.00,0.0040
2182.00,0.0037
2179.00,0.0039
2176.00,0.0035
2173.00,0.0039
2170.00,0.0044
2167.00,0.0047
2164.00,0.0050
2161.00,0.0035
2158.00,0.0007
2155.00,0.0016
2152.00,0.0021
2149.00,0.0019
2146.00,0.0023
2143.00,0.0024
2140.00,0.0024
2137.00,0.0020
2134.00,0.0017
2131.00,0.0021
2128.00,0.0024
2125.00,0.0028
2122.00,0.0031
2119.00,0.0033
2116.00,0.0036
2113.00,0.0037
2110.00,0.0035
2107.00,0.0035
2104.00,0.0036
2101.00,0.0036
2098.00,0.0035
2095.00,0.0031
2092.00,0.0032
2089.00,0.0034
2086.00,0.0035
2083.00,0.0037
2080.00,0.0039
2077.00,0.0037
2074.00,0.0036
2071.00,0.0036
2068.00,0.0035
2065.00,0.0034
2062.00,0.0035
2059.00,0.0037
2056.00,0.0035
2053.00,0.0041
2050.00,0.0043
2047.00,0.0036
2044.00,0.0033
2041.00,0.0036
2038.00,0.0038
2035.00,0.0037
2032.00,0.0032
2029.00,0.0036
2026.00,0.0031
2023.00,0.0030
2020.00,0.0028
2017.00,0.0029
2014.00,0.0028
2011.00,0.0032
2008.00,0.0027
2005.00,0.0023
2002.00,0.0026
1999.00,0.0029
1996.00,0.0030
1993.00,0.0031
1990.00,0.0035
1987.00,0.0037
1984.00,0.0040
1981.00,0.0044
1978.00,0.0033
1975.00,0.0021
1972.00,0.0023
1969.00,0.0023
1966.00,0.0026
1963.00,0.0025
1960.00,0.0020
1957.00,0.0020
1954.00,0.0024
1951.00,0.0024
1948.00,0.0025
1945.00,0.0025
1942.00,0.0025
1939.00,0.0026
1936.00,0.0025
1933.00,0.0026
1930.00,0.0026
1927.00,0.0024
1924.00,0.0024
1921.00,0.0025
1918.00,0.0027
1915.00,0.0026
1912.00,0.0028
1909.00,0.0029
1906.00,0.0027
1903.00,0.0028
1900.00,0.0028
1897.00,0.0028
1894.00,0.0028
1891.00,0.0028
1888.00,0.0029
1885.00,0.0028
1882.00,0.0028
1879.00,0.0029
1876.00,0.0028
1873.00,0.0027
1870.00,0.0028
1867.00,0.0028
1864.00,0.0028
1861.00,0.0028
1858.00,0.0028
1855.00,0.0029
1852.00,0.0029
1849.00,0.0028
1846.00,0.0028
1843.00,0.0029
1840.00,0.0029
1837.00,0.0028
1834.00,0.0027
1831.00,0.0028
1828.00,0.0028
1825.00,0.0029
1822.00,0.0029
1819.00,0.0027
1816.00,0.0025
1813.00,0.0027
1810.00,0.0028
1807.00,0.0029
1804.00,0.0029
1801.00,0.0029
1798.00,0.0029
1795.00,0.0029
1792.00,0.0028
1789.00,0.0029
1786.00,0.0030
1783.00,0.0030
1780.00,0.0030
1777.00,0.0029
1774.00,0.0029
1771.00,0.0030
1768.00,0.0031
1765.00,0.0031
1762.00,0.0031
1759.00,0.0031
1756.00,0.0031
1753.00,0.0031
1750.00,0.0031
1747.00,0.0031
1744.00,0.0031
1741.00,0.0031
1738.00,0.0031
1735.00,0.0032
1732.00,0.0034
1729.00,0.0037
1726.00,0.0040
1723.00,0.0042
1720.00,0.0044
1717.00,0.0048
1714.00,0.0054
1711.00,0.0062
1708.00,0.0073
1705.00,0.0090
1702.00,0.0110
1699.00,0.0155
1696.00,0.0205
1693.00,0.0269
1690.00,0.0332
1687.00,0.0392
1684.00,0.0458
1681.00,0.0519
1678.00,0.0560
1675.00,0.0594
1672.00,0.0623
1669.00,0.0646
1666.00,0.0671
1663.00,0.0690
1660.00,0.0709
1657.00,0.0719
1654.00,0.0711
1651.00,0.0697
1648.00,0.0675
1645.00,0.0622
1642.00,0.0578
1639.00,0.0522
1636.00,0.0458
1633.00,0.0402
1630.00,0.0364
1627.00,0.0332
1624.00,0.0323
1621.00,0.0328
1618.00,0.0324
1615.00,0.0303
1612.00,0.0286
1609.00,0.0267
1606.00,0.0239
1603.00,0.0206
1600.00,0.0178
1597.00,0.0162
1594.00,0.0159
1591.00,0.0173
1588.00,0.0197
1585.00,0.0207
1582.00,0.0193
1579.00,0.0170
1576.00,0.0149
1573.00,0.0137
1570.00,0.0128
1567.00,0.0120
1564.00,0.0112
1561.00,0.0103
1558.00,0.0097
1555.00,0.0097
1552.00,0.0095
1549.00,0.0092
1546.00,0.0089
1543.00,0.0085
1540.00,0.0085
1537.00,0.0084
1534.00,0.0084
1531.00,0.0085
1528.00,0.0085
1525.00,0.0086
1522.00,0.0088
1519.00,0.0092
1516.00,0.0097
1513.00,0.0100
1510.00,0.0101
1507.00,0.0108
1504.00,0.0125
1501.00,0.0148
1498.00,0.0179
1495.00,0.0203
1492.00,0.0201
1489.00,0.0177
1486.00,0.0150
1483.00,0.0131
1480.00,0.0119
1477.00,0.0119
1474.00,0.0132
1471.00,0.0169
1468.00,0.0215
1465.00,0.0273
1462.00,0.0320
1459.00,0.0326
1456.00,0.0286
1453.00,0.0259
1450.00,0.0250
1447.00,0.0271
1444.00,0.0309
1441.00,0.0349
1438.00,0.0380
1435.00,0.0409
1432.00,0.0422
1429.00,0.0436
1426.00,0.0465
1423.00,0.0496
1420.00,0.0486
1417.00,0.0419
1414.00,0.0351
1411.00,0.0298
1408.00,0.0273
1405.00,0.0265
1402.00,0.0261
1399.00,0.0243
1396.00,0.0214
1393.00,0.0188
1390.00,0.0176
1387.00,0.0178
1384.00,0.0191
1381.00,0.0207
1378.00,0.0218
1375.00,0.0220
1372.00,0.0216
1369.00,0.0210
1366.00,0.0205
1363.00,0.0205
1360.00,0.0201
1357.00,0.0183
1354.00,0.0162
1351.00,0.0149
1348.00,0.0143
1345.00,0.0141
1342.00,0.0140
1339.00,0.0142
1336.00,0.0147
1333.00,0.0153
1330.00,0.0162
1327.00,0.0174
1324.00,0.0192
1321.00,0.0209
1318.00,0.0221
1315.00,0.0220
1312.00,0.0210
1309.00,0.0202
1306.00,0.0203
1303.00,0.0216
1300.00,0.0248
1297.00,0.0309
1294.00,0.0395
1291.00,0.0482
1288.00,0.0542
1285.00,0.0559
1282.00,0.0535
1279.00,0.0505
1276.00,0.0496
1273.00,0.0500
1270.00,0.0491
1267.00,0.0457
1264.00,0.0405
1261.00,0.0352
1258.00,0.0306
1255.00,0.0271
1252.00,0.0248
1249.00,0.0237
1246.00,0.0240
1243.00,0.0251
1240.00,0.0262
1237.00,0.0273
1234.00,0.0281
1231.00,0.0285
1228.00,0.0286
1225.00,0.0285
1222.00,0.0286
1219.00,0.0286
1216.00,0.0279
1213.00,0.0261
1210.00,0.0239
1207.00,0.0223
1204.00,0.0215
1201.00,0.0217
1198.00,0.0227
1195.00,0.0237
1192.00,0.0234
1189.00,0.0216
1186.00,0.0197
1183.00,0.0186
1180.00,0.0181
1177.00,0.0183
1174.00,0.0189
1171.00,0.0195
1168.00,0.0199
1165.00,0.0200
1162.00,0.0206
1159.00,0.0219
1156.00,0.0224
1153.00,0.0213
1150.00,0.0191
1147.00,0.0171
1144.00,0.0156
1141.00,0.0148
1138.00,0.0149
1135.00,0.0163
1132.00,0.0191
1129.00,0.0206
1126.00,0.0187
1123.00,0.0161
1120.00,0.0147
1117.00,0.0141
1114.00,0.0142
1111.00,0.0144
1108.00,0.0147
1105.00,0.0154
1102.00,0.0164
1099.00,0.0166
1096.00,0.0159
1093.00,0.0149
1090.00,0.0142
1087.00,0.0138
1084.00,0.0137
1081.00,0.0140
1078.00,0.0145
1075.00,0.0153
1072.00,0.0162
1069.00,0.0176
1066.00,0.0203
1063.00,0.0240
1060.00,0.0276
1057.00,0.0287
1054.00,0.0261
1051.00,0.0219
1048.00,0.0189
1045.00,0.0177
1042.00,0.0174
1039.00,0.0176
1036.00,0.0178
1033.00,0.0184
1030.00,0.0189
1027.00,0.0184
1024.00,0.0175
1021.00,0.0173
1018.00,0.0172
1015.00,0.0165
1012.00,0.0154
1009.00,0.0151
1006.00,0.0158
1003.00,0.0168
1000.00,0.0164
997.00,0.0154
994.00,0.0145
991.00,0.0138
988.00,0.0131
985.00,0.0124
982.00,0.0121
979.00,0.0120
976.00,0.0120
973.00,0.0117
970.00,0.0114
967.00,0.0111
964.00,0.0109
961.00,0.0108
958.00,0.0106
955.00,0.0104
952.00,0.0102
949.00,0.0101
946.00,0.0103
943.00,0.0107
940.00,0.0115
937.00,0.0128
934.00,0.0140
931.00,0.0141
928.00,0.0137
925.00,0.0134
922.00,0.0130
919.00,0.0127
916.00,0.0123
913.00,0.0119
910.00,0.0118
907.00,0.0121
904.00,0.0129
901.00,0.0139
898.00,0.0145
895.00,0.0145
892.00,0.0138
889.00,0.0132
886.00,0.0128
883.00,0.0128
880.00,0.0134
877.00,0.0142
874.00,0.0154
871.00,0.0163
868.00,0.0166
865.00,0.0166
862.00,0.0169
859.00,0.0174
856.00,0.0181
853.00,0.0192
850.00,0.0203
847.00,0.0209
844.00,0.0212
841.00,0.0211
838.00,0.0209
835.00,0.0207
832.00,0.0205
829.00,0.0202
826.00,0.0199
823.00,0.0196
820.00,0.0196
817.00,0.0195
814.00,0.0190
811.00,0.0178
808.00,0.0161
805.00,0.0144
802.00,0.0134
799.00,0.0132
796.00,0.0131
793.00,0.0130
790.00,0.0132
787.00,0.0133
784.00,0.0133
781.00,0.0136
778.00,0.0141
775.00,0.0143
772.00,0.0141
769.00,0.0143
766.00,0.0147
763.00,0.0152
760.00,0.0159
757.00,0.0167
754.00,0.0175
751.00,0.0183
748.00,0.0192
745.00,0.0202
742.00,0.0214
739.00,0.0230
736.00,0.0238
733.00,0.0231
730.00,0.0219
727.00,0.0206
724.00,0.0193
721.00,0.0183
718.00,0.0179
715.00,0.0178
712.00,0.0176
709.00,0.0175
706.00,0.0173
703.00,0.0174
700.00,0.0176
697.00,0.0181
694.00,0.0191
691.00,0.0200
688.00,0.0206
685.00,0.0207
682.00,0.0209
679.00,0.0213
676.00,0.0218
673.00,0.0225
670.00,0.0238
667.00,0.0255
664.00,0.0261
661.00,0.0275
658.00,0.0292
655.00,0.0308
652.00,0.0323
649.00,0.0329
646.00,0.0328
643.00,0.0320
640.00,0.0306
637.00,0.0292
634.00,0.0283
631.00,0.0276
628.00,0.0270
625.00,0.0269
622.00,0.0266
619.00,0.0259
616.00,0.0257
613.00,0.0259
610.00,0.0260
607.00,0.0265
604.00,0.0271
601.00,0.0272
598.00,0.0275
595.00,0.0277
592.00,0.0280
589.00,0.0290
586.00,0.0313
583.00,0.0336
580.00,0.0348
577.00,0.0352
574.00,0.0357
571.00,0.0357
568.00,0.0352
565.00,0.0347
562.00,0.0339
559.00,0.0330
556.00,0.0322
553.00,0.0316
550.00,0.0312
547.00,0.0306
544.00,0.0298
541.00,0.0294
538.00,0.0295
535.00,0.0304
532.00,0.0309
529.00,0.0307
526.00,0.0301
523.00,0.0295
520.00,0.0293
517.00,0.0293
514.00,0.0290
511.00,0.0290
508.00,0.0293
505.00,0.0297
502.00,0.0296
499.00,0.0293
496.00,0.0292
493.00,0.0296
490.00,0.0298
487.00,0.0299
484.00,0.0301
481.00,0.0303
478.00,0.0303
475.00,0.0306
472.00,0.0302
469.00,0.0300
466.00,0.0301
463.00,0.0300
460.00,0.0292
457.00,0.0292
454.00,0.0297
451.00,0.0287
448.00,0.0287
445.00,0.0278
442.00,0.0273
439.00,0.0265
436.00,0.0262
433.00,0.0268
430.00,0.0261
427.00,0.0257
424.00,0.0254
421.00,0.0257
418.00,0.0261
415.00,0.0257
412.00,0.0261
409.00,0.0252
406.00,0.0257
403.00,0.0246
400.00,0.0253