File: FTIR/Olivia/2025_07_30_Polystyrene_Std_scan1.csv
Created as New Dataset,Sample 957 By YargerLab Date Tuesday, July 29 2025
cm-1,A
4000.00,0.0014
3997.00,0.0013
3994.00,0.0013
3991.00,0.0013
3988.00,0.0013
3985.00,0.0013
3982.00,0.0013
3979.00,0.0013
3976.00,0.0013
3973.00,0.0012
3970.00,0.0012
3967.00,0.0012
3964.00,0.0012
3961.00,0.0012
3958.00,0.0013
3955.00,0.0013
3952.00,0.0012
3949.00,0.0012
3946.00,0.0013
3943.00,0.0013
3940.00,0.0012
3937.00,0.0012
3934.00,0.0013
3931.00,0.0012
3928.00,0.0012
3925.00,0.0012
3922.00,0.0012
3919.00,0.0012
3916.00,0.0012
3913.00,0.0012
3910.00,0.0013
3907.00,0.0012
3904.00,0.0011
3901.00,0.0010
3898.00,0.0011
3895.00,0.0011
3892.00,0.0012
3889.00,0.0012
3886.00,0.0012
3883.00,0.0011
3880.00,0.0012
3877.00,0.0011
3874.00,0.0011
3871.00,0.0010
3868.00,0.0010
3865.00,0.0011
3862.00,0.0011
3859.00,0.0011
3856.00,0.0011
3853.00,0.0010
3850.00,0.0010
3847.00,0.0011
3844.00,0.0011
3841.00,0.0011
3838.00,0.0010
3835.00,0.0011
3832.00,0.0011
3829.00,0.0011
3826.00,0.0012
3823.00,0.0012
3820.00,0.0011
3817.00,0.0010
3814.00,0.0011
3811.00,0.0012
3808.00,0.0013
3805.00,0.0012
3802.00,0.0012
3799.00,0.0011
3796.00,0.0012
3793.00,0.0013
3790.00,0.0013
3787.00,0.0013
3784.00,0.0013
3781.00,0.0012
3778.00,0.0012
3775.00,0.0013
3772.00,0.0012
3769.00,0.0012
3766.00,0.0012
3763.00,0.0012
3760.00,0.0012
3757.00,0.0012
3754.00,0.0012
3751.00,0.0011
3748.00,0.0010
3745.00,0.0010
3742.00,0.0010
3739.00,0.0011
3736.00,0.0011
3733.00,0.0010
3730.00,0.0011
3727.00,0.0011
3724.00,0.0011
3721.00,0.0011
3718.00,0.0012
3715.00,0.0011
3712.00,0.0010
3709.00,0.0010
3706.00,0.0012
3703.00,0.0012
3700.00,0.0012
3697.00,0.0012
3694.00,0.0012
3691.00,0.0012
3688.00,0.0011
3685.00,0.0012
3682.00,0.0013
3679.00,0.0013
3676.00,0.0012
3673.00,0.0010
3670.00,0.0011
3667.00,0.0012
3664.00,0.0014
3661.00,0.0014
3658.00,0.0014
3655.00,0.0014
3652.00,0.0013
3649.00,0.0013
3646.00,0.0013
3643.00,0.0015
3640.00,0.0015
3637.00,0.0014
3634.00,0.0014
3631.00,0.0013
3628.00,0.0013
3625.00,0.0014
3622.00,0.0015
3619.00,0.0016
3616.00,0.0016
3613.00,0.0015
3610.00,0.0017
3607.00,0.0018
3604.00,0.0018
3601.00,0.0019
3598.00,0.0020
3595.00,0.0020
3592.00,0.0021
3589.00,0.0021
3586.00,0.0022
3583.00,0.0023
3580.00,0.0023
3577.00,0.0022
3574.00,0.0023
3571.00,0.0022
3568.00,0.0022
3565.00,0.0022
3562.00,0.0022
3559.00,0.0022
3556.00,0.0023
3553.00,0.0024
3550.00,0.0023
3547.00,0.0023
3544.00,0.0024
3541.00,0.0025
3538.00,0.0025
3535.00,0.0026
3532.00,0.0026
3529.00,0.0026
3526.00,0.0026
3523.00,0.0026
3520.00,0.0028
3517.00,0.0028
3514.00,0.0028
3511.00,0.0029
3508.00,0.0029
3505.00,0.0030
3502.00,0.0031
3499.00,0.0031
3496.00,0.0031
3493.00,0.0031
3490.00,0.0032
3487.00,0.0033
3484.00,0.0033
3481.00,0.0033
3478.00,0.0034
3475.00,0.0035
3472.00,0.0035
3469.00,0.0035
3466.00,0.0035
3463.00,0.0035
3460.00,0.0036
3457.00,0.0036
3454.00,0.0036
3451.00,0.0036
3448.00,0.0036
3445.00,0.0037
3442.00,0.0038
3439.00,0.0038
3436.00,0.0037
3433.00,0.0038
3430.00,0.0038
3427.00,0.0037
3424.00,0.0037
3421.00,0.0037
3418.00,0.0038
3415.00,0.0038
3412.00,0.0038
3409.00,0.0038
3406.00,0.0038
3403.00,0.0039
3400.00,0.0039
3397.00,0.0039
3394.00,0.0038
3391.00,0.0039
3388.00,0.0039
3385.00,0.0039
3382.00,0.0039
3379.00,0.0039
3376.00,0.0039
3373.00,0.0039
3370.00,0.0039
3367.00,0.0038
3364.00,0.0038
3361.00,0.0039
3358.00,0.0038
3355.00,0.0038
3352.00,0.0039
3349.00,0.0038
3346.00,0.0038
3343.00,0.0038
3340.00,0.0038
3337.00,0.0038
3334.00,0.0037
3331.00,0.0037
3328.00,0.0037
3325.00,0.0037
3322.00,0.0037
3319.00,0.0037
3316.00,0.0037
3313.00,0.0037
3310.00,0.0036
3307.00,0.0036
3304.00,0.0037
3301.00,0.0036
3298.00,0.0036
3295.00,0.0036
3292.00,0.0036
3289.00,0.0036
3286.00,0.0036
3283.00,0.0035
3280.00,0.0035
3277.00,0.0034
3274.00,0.0035
3271.00,0.0034
3268.00,0.0034
3265.00,0.0035
3262.00,0.0034
3259.00,0.0034
3256.00,0.0034
3253.00,0.0033
3250.00,0.0033
3247.00,0.0033
3244.00,0.0032
3241.00,0.0032
3238.00,0.0032
3235.00,0.0031
3232.00,0.0031
3229.00,0.0032
3226.00,0.0031
3223.00,0.0031
3220.00,0.0031
3217.00,0.0031
3214.00,0.0031
3211.00,0.0031
3208.00,0.0032
3205.00,0.0032
3202.00,0.0032
3199.00,0.0031
3196.00,0.0030
3193.00,0.0030
3190.00,0.0030
3187.00,0.0029
3184.00,0.0029
3181.00,0.0029
3178.00,0.0028
3175.00,0.0028
3172.00,0.0029
3169.00,0.0029
3166.00,0.0029
3163.00,0.0029
3160.00,0.0029
3157.00,0.0028
3154.00,0.0027
3151.00,0.0026
3148.00,0.0026
3145.00,0.0026
3142.00,0.0026
3139.00,0.0026
3136.00,0.0026
3133.00,0.0025
3130.00,0.0026
3127.00,0.0026
3124.00,0.0026
3121.00,0.0027
3118.00,0.0029
3115.00,0.0032
3112.00,0.0037
3109.00,0.0044
3106.00,0.0051
3103.00,0.0054
3100.00,0.0053
3097.00,0.0051
3094.00,0.0055
3091.00,0.0068
3088.00,0.0091
3085.00,0.0116
3082.00,0.0125
3079.00,0.0111
3076.00,0.0097
3073.00,0.0093
3070.00,0.0101
3067.00,0.0121
3064.00,0.0149
3061.00,0.0168
3058.00,0.0163
3055.00,0.0138
3052.00,0.0113
3049.00,0.0096
3046.00,0.0089
3043.00,0.0092
3040.00,0.0105
3037.00,0.0130
3034.00,0.0174
3031.00,0.0238
3028.00,0.0301
3025.00,0.0319
3022.00,0.0268
3019.00,0.0189
3016.00,0.0130
3013.00,0.0098
3010.00,0.0086
3007.00,0.0087
3004.00,0.0095
3001.00,0.0098
2998.00,0.0086
2995.00,0.0071
2992.00,0.0063
2989.00,0.0062
2986.00,0.0064
2983.00,0.0067
2980.00,0.0074
2977.00,0.0082
2974.00,0.0089
2971.00,0.0095
2968.00,0.0100
2965.00,0.0102
2962.00,0.0105
2959.00,0.0108
2956.00,0.0114
2953.00,0.0123
2950.00,0.0137
2947.00,0.0156
2944.00,0.0182
2941.00,0.0214
2938.00,0.0252
2935.00,0.0293
2932.00,0.0337
2929.00,0.0375
2926.00,0.0402
2923.00,0.0413
2920.00,0.0409
2917.00,0.0393
2914.00,0.0368
2911.00,0.0340
2908.00,0.0310
2905.00,0.0280
2902.00,0.0249
2899.00,0.0220
2896.00,0.0196
2893.00,0.0179
2890.00,0.0164
2887.00,0.0153
2884.00,0.0144
2881.00,0.0135
2878.00,0.0128
2875.00,0.0121
2872.00,0.0116
2869.00,0.0114
2866.00,0.0118
2863.00,0.0127
2860.00,0.0142
2857.00,0.0159
2854.00,0.0175
2851.00,0.0183
2848.00,0.0180
2845.00,0.0162
2842.00,0.0134
2839.00,0.0104
2836.00,0.0079
2833.00,0.0064
2830.00,0.0055
2827.00,0.0049
2824.00,0.0046
2821.00,0.0044
2818.00,0.0042
2815.00,0.0041
2812.00,0.0040
2809.00,0.0039
2806.00,0.0038
2803.00,0.0037
2800.00,0.0036
2797.00,0.0034
2794.00,0.0033
2791.00,0.0033
2788.00,0.0032
2785.00,0.0032
2782.00,0.0031
2779.00,0.0031
2776.00,0.0031
2773.00,0.0030
2770.00,0.0029
2767.00,0.0028
2764.00,0.0028
2761.00,0.0027
2758.00,0.0027
2755.00,0.0027
2752.00,0.0026
2749.00,0.0026
2746.00,0.0026
2743.00,0.0027
2740.00,0.0027
2737.00,0.0027
2734.00,0.0027
2731.00,0.0027
2728.00,0.0027
2725.00,0.0027
2722.00,0.0027
2719.00,0.0027
2716.00,0.0027
2713.00,0.0026
2710.00,0.0026
2707.00,0.0026
2704.00,0.0026
2701.00,0.0026
2698.00,0.0026
2695.00,0.0026
2692.00,0.0025
2689.00,0.0025
2686.00,0.0025
2683.00,0.0026
2680.00,0.0025
2677.00,0.0025
2674.00,0.0025
2671.00,0.0025
2668.00,0.0026
2665.00,0.0027
2662.00,0.0029
2659.00,0.0030
2656.00,0.0030
2653.00,0.0031
2650.00,0.0031
2647.00,0.0031
2644.00,0.0030
2641.00,0.0031
2638.00,0.0031
2635.00,0.0031
2632.00,0.0032
2629.00,0.0031
2626.00,0.0029
2623.00,0.0029
2620.00,0.0028
2617.00,0.0027
2614.00,0.0027
2611.00,0.0028
2608.00,0.0027
2605.00,0.0028
2602.00,0.0028
2599.00,0.0027
2596.00,0.0026
2593.00,0.0025
2590.00,0.0024
2587.00,0.0024
2584.00,0.0025
2581.00,0.0025
2578.00,0.0024
2575.00,0.0023
2572.00,0.0022
2569.00,0.0022
2566.00,0.0022
2563.00,0.0021
2560.00,0.0021
2557.00,0.0021
2554.00,0.0021
2551.00,0.0021
2548.00,0.0020
2545.00,0.0021
2542.00,0.0020
2539.00,0.0020
2536.00,0.0020
2533.00,0.0020
2530.00,0.0019
2527.00,0.0019
2524.00,0.0019
2521.00,0.0019
2518.00,0.0019
2515.00,0.0019
2512.00,0.0019
2509.00,0.0019
2506.00,0.0019
2503.00,0.0018
2500.00,0.0018
2497.00,0.0018
2494.00,0.0018
2491.00,0.0018
2488.00,0.0018
2485.00,0.0018
2482.00,0.0017
2479.00,0.0017
2476.00,0.0017
2473.00,0.0016
2470.00,0.0016
2467.00,0.0016
2464.00,0.0015
2461.00,0.0016
2458.00,0.0017
2455.00,0.0017
2452.00,0.0016
2449.00,0.0016
2446.00,0.0016
2443.00,0.0014
2440.00,0.0014
2437.00,0.0014
2434.00,0.0014
2431.00,0.0014
2428.00,0.0013
2425.00,0.0013
2422.00,0.0013
2419.00,0.0012
2416.00,0.0012
2413.00,0.0012
2410.00,0.0012
2407.00,0.0011
2404.00,0.0011
2401.00,0.0012
2398.00,0.0011
2395.00,0.0012
2392.00,0.0011
2389.00,0.0011
2386.00,0.0011
2383.00,0.0012
2380.00,0.0011
2377.00,0.0012
2374.00,0.0012
2371.00,0.0012
2368.00,0.0011
2365.00,0.0012
2362.00,0.0014
2359.00,0.0015
2356.00,0.0015
2353.00,0.0016
2350.00,0.0017
2347.00,0.0018
2344.00,0.0019
2341.00,0.0021
2338.00,0.0021
2335.00,0.0021
2332.00,0.0019
2329.00,0.0021
2326.00,0.0032
2323.00,0.0031
2320.00,0.0027
2317.00,0.0025
2314.00,0.0025
2311.00,0.0025
2308.00,0.0023
2305.00,0.0022
2302.00,0.0022
2299.00,0.0022
2296.00,0.0023
2293.00,0.0024
2290.00,0.0026
2287.00,0.0027
2284.00,0.0024
2281.00,0.0022
2278.00,0.0021
2275.00,0.0019
2272.00,0.0018
2269.00,0.0019
2266.00,0.0017
2263.00,0.0017
2260.00,0.0018
2257.00,0.0016
2254.00,0.0014
2251.00,0.0014
2248.00,0.0015
2245.00,0.0016
2242.00,0.0015
2239.00,0.0013
2236.00,0.0013
2233.00,0.0013
2230.00,0.0013
2227.00,0.0015
2224.00,0.0014
2221.00,0.0012
2218.00,0.0012
2215.00,0.0014
2212.00,0.0013
2209.00,0.0011
2206.00,0.0013
2203.00,0.0013
2200.00,0.0012
2197.00,0.0011
2194.00,0.0011
2191.00,0.0013
2188.00,0.0015
2185.00,0.0013
2182.00,0.0010
2179.00,0.0010
2176.00,0.0003
2173.00,0.0009
2170.00,0.0018
2167.00,0.0019
2164.00,0.0021
2161.00,0.0005
2158.00,-0.0027
2155.00,-0.0019
2152.00,-0.0012
2149.00,-0.0013
2146.00,-0.0012
2143.00,-0.0010
2140.00,-0.0011
2137.00,-0.0012
2134.00,-0.0016
2131.00,-0.0010
2128.00,-0.0006
2125.00,-0.0003
2122.00,0.0002
2119.00,0.0005
2116.00,0.0009
2113.00,0.0010
2110.00,0.0007
2107.00,0.0007
2104.00,0.0008
2101.00,0.0007
2098.00,0.0004
2095.00,0.0001
2092.00,0.0003
2089.00,0.0006
2086.00,0.0010
2083.00,0.0010
2080.00,0.0010
2077.00,0.0010
2074.00,0.0010
2071.00,0.0009
2068.00,0.0006
2065.00,0.0004
2062.00,0.0004
2059.00,0.0003
2056.00,0.0004
2053.00,0.0012
2050.00,0.0013
2047.00,0.0005
2044.00,0.0005
2041.00,0.0008
2038.00,0.0009
2035.00,0.0004
2032.00,-0.0003
2029.00,-0.0003
2026.00,-0.0005
2023.00,0.0000
2020.00,-0.0003
2017.00,-0.0002
2014.00,-0.0002
2011.00,-0.0000
2008.00,-0.0004
2005.00,-0.0008
2002.00,-0.0003
1999.00,0.0004
1996.00,0.0009
1993.00,0.0010
1990.00,0.0010
1987.00,0.0014
1984.00,0.0018
1981.00,0.0023
1978.00,0.0010
1975.00,0.0004
1972.00,0.0006
1969.00,0.0005
1966.00,0.0012
1963.00,0.0016
1960.00,0.0016
1957.00,0.0022
1954.00,0.0025
1951.00,0.0031
1948.00,0.0038
1945.00,0.0042
1942.00,0.0042
1939.00,0.0039
1936.00,0.0030
1933.00,0.0022
1930.00,0.0017
1927.00,0.0014
1924.00,0.0013
1921.00,0.0012
1918.00,0.0011
1915.00,0.0010
1912.00,0.0010
1909.00,0.0009
1906.00,0.0010
1903.00,0.0011
1900.00,0.0013
1897.00,0.0016
1894.00,0.0020
1891.00,0.0023
1888.00,0.0028
1885.00,0.0031
1882.00,0.0033
1879.00,0.0036
1876.00,0.0037
1873.00,0.0040
1870.00,0.0042
1867.00,0.0040
1864.00,0.0035
1861.00,0.0029
1858.00,0.0023
1855.00,0.0019
1852.00,0.0016
1849.00,0.0014
1846.00,0.0013
1843.00,0.0011
1840.00,0.0012
1837.00,0.0012
1834.00,0.0014
1831.00,0.0017
1828.00,0.0019
1825.00,0.0022
1822.00,0.0025
1819.00,0.0026
1816.00,0.0029
1813.00,0.0035
1810.00,0.0040
1807.00,0.0045
1804.00,0.0047
1801.00,0.0048
1798.00,0.0045
1795.00,0.0040
1792.00,0.0034
1789.00,0.0028
1786.00,0.0027
1783.00,0.0027
1780.00,0.0028
1777.00,0.0028
1774.00,0.0029
1771.00,0.0031
1768.00,0.0032
1765.00,0.0034
1762.00,0.0037
1759.00,0.0041
1756.00,0.0047
1753.00,0.0053
1750.00,0.0059
1747.00,0.0064
1744.00,0.0066
1741.00,0.0067
1738.00,0.0067
1735.00,0.0065
1732.00,0.0062
1729.00,0.0059
1726.00,0.0056
1723.00,0.0055
1720.00,0.0054
1717.00,0.0051
1714.00,0.0049
1711.00,0.0048
1708.00,0.0047
1705.00,0.0048
1702.00,0.0049
1699.00,0.0051
1696.00,0.0053
1693.00,0.0059
1690.00,0.0066
1687.00,0.0072
1684.00,0.0082
1681.00,0.0088
1678.00,0.0094
1675.00,0.0101
1672.00,0.0107
1669.00,0.0112
1666.00,0.0112
1663.00,0.0108
1660.00,0.0100
1657.00,0.0092
1654.00,0.0082
1651.00,0.0071
1648.00,0.0064
1645.00,0.0055
1642.00,0.0051
1639.00,0.0048
1636.00,0.0045
1633.00,0.0043
1630.00,0.0044
1627.00,0.0046
1624.00,0.0050
1621.00,0.0053
1618.00,0.0054
1615.00,0.0059
1612.00,0.0072
1609.00,0.0108
1606.00,0.0187
1603.00,0.0284
1600.00,0.0294
1597.00,0.0206
1594.00,0.0135
1591.00,0.0103
1588.00,0.0098
1585.00,0.0125
1582.00,0.0124
1579.00,0.0083
1576.00,0.0056
1573.00,0.0045
1570.00,0.0039
1567.00,0.0035
1564.00,0.0034
1561.00,0.0034
1558.00,0.0034
1555.00,0.0036
1552.00,0.0039
1549.00,0.0044
1546.00,0.0047
1543.00,0.0049
1540.00,0.0046
1537.00,0.0044
1534.00,0.0041
1531.00,0.0036
1528.00,0.0034
1525.00,0.0033
1522.00,0.0033
1519.00,0.0034
1516.00,0.0036
1513.00,0.0039
1510.00,0.0043
1507.00,0.0050
1504.00,0.0069
1501.00,0.0108
1498.00,0.0242
1495.00,0.0597
1492.00,0.0721
1489.00,0.0428
1486.00,0.0228
1483.00,0.0142
1480.00,0.0101
1477.00,0.0087
1474.00,0.0083
1471.00,0.0089
1468.00,0.0099
1465.00,0.0113
1462.00,0.0134
1459.00,0.0185
1456.00,0.0469
1453.00,0.0733
1450.00,0.0700
1447.00,0.0538
1444.00,0.0427
1441.00,0.0335
1438.00,0.0267
1435.00,0.0198
1432.00,0.0154
1429.00,0.0123
1426.00,0.0108
1423.00,0.0099
1420.00,0.0091
1417.00,0.0083
1414.00,0.0078
1411.00,0.0076
1408.00,0.0076
1405.00,0.0077
1402.00,0.0077
1399.00,0.0078
1396.00,0.0080
1393.00,0.0089
1390.00,0.0101
1387.00,0.0119
1384.00,0.0137
1381.00,0.0155
1378.00,0.0171
1375.00,0.0180
1372.00,0.0181
1369.00,0.0177
1366.00,0.0172
1363.00,0.0167
1360.00,0.0159
1357.00,0.0149
1354.00,0.0143
1351.00,0.0141
1348.00,0.0140
1345.00,0.0135
1342.00,0.0130
1339.00,0.0125
1336.00,0.0127
1333.00,0.0135
1330.00,0.0143
1327.00,0.0144
1324.00,0.0139
1321.00,0.0136
1318.00,0.0138
1315.00,0.0142
1312.00,0.0144
1309.00,0.0142
1306.00,0.0137
1303.00,0.0132
1300.00,0.0129
1297.00,0.0130
1294.00,0.0133
1291.00,0.0133
1288.00,0.0128
1285.00,0.0122
1282.00,0.0118
1279.00,0.0113
1276.00,0.0106
1273.00,0.0099
1270.00,0.0092
1267.00,0.0087
1264.00,0.0084
1261.00,0.0083
1258.00,0.0082
1255.00,0.0082
1252.00,0.0082
1249.00,0.0082
1246.00,0.0083
1243.00,0.0083
1240.00,0.0082
1237.00,0.0080
1234.00,0.0079
1231.00,0.0080
1228.00,0.0081
1225.00,0.0081
1222.00,0.0080
1219.00,0.0081
1216.00,0.0082
1213.00,0.0084
1210.00,0.0086
1207.00,0.0091
1204.00,0.0099
1201.00,0.0109
1198.00,0.0117
1195.00,0.0120
1192.00,0.0121
1189.00,0.0124
1186.00,0.0135
1183.00,0.0155
1180.00,0.0157
1177.00,0.0130
1174.00,0.0109
1171.00,0.0104
1168.00,0.0105
1165.00,0.0112
1162.00,0.0124
1159.00,0.0147
1156.00,0.0173
1153.00,0.0167
1150.00,0.0130
1147.00,0.0103
1144.00,0.0091
1141.00,0.0084
1138.00,0.0082
1135.00,0.0085
1132.00,0.0089
1129.00,0.0090
1126.00,0.0087
1123.00,0.0083
1120.00,0.0085
1117.00,0.0091
1114.00,0.0097
1111.00,0.0098
1108.00,0.0097
1105.00,0.0097
1102.00,0.0099
1099.00,0.0101
1096.00,0.0104
1093.00,0.0106
1090.00,0.0111
1087.00,0.0118
1084.00,0.0129
1081.00,0.0143
1078.00,0.0158
1075.00,0.0178
1072.00,0.0203
1069.00,0.0214
1066.00,0.0206
1063.00,0.0185
1060.00,0.0164
1057.00,0.0147
1054.00,0.0133
1051.00,0.0122
1048.00,0.0113
1045.00,0.0107
1042.00,0.0106
1039.00,0.0117
1036.00,0.0158
1033.00,0.0247
1030.00,0.0336
1027.00,0.0349
1024.00,0.0284
1021.00,0.0223
1018.00,0.0187
1015.00,0.0163
1012.00,0.0147
1009.00,0.0140
1006.00,0.0147
1003.00,0.0154
1000.00,0.0134
997.00,0.0113
994.00,0.0108
991.00,0.0110
988.00,0.0116
985.00,0.0125
982.00,0.0134
979.00,0.0136
976.00,0.0128
973.00,0.0123
970.00,0.0130
967.00,0.0144
964.00,0.0151
961.00,0.0145
958.00,0.0134
955.00,0.0133
952.00,0.0137
949.00,0.0140
946.00,0.0138
943.00,0.0132
940.00,0.0122
937.00,0.0109
934.00,0.0097
931.00,0.0088
928.00,0.0085
925.00,0.0087
922.00,0.0092
919.00,0.0103
916.00,0.0124
913.00,0.0162
910.00,0.0208
907.00,0.0235
904.00,0.0222
901.00,0.0175
898.00,0.0127
895.00,0.0099
892.00,0.0085
889.00,0.0077
886.00,0.0072
883.00,0.0069
880.00,0.0066
877.00,0.0065
874.00,0.0064
871.00,0.0061
868.00,0.0059
865.00,0.0059
862.00,0.0059
859.00,0.0059
856.00,0.0062
853.00,0.0069
850.00,0.0083
847.00,0.0102
844.00,0.0119
841.00,0.0124
838.00,0.0112
835.00,0.0089
832.00,0.0069
829.00,0.0061
826.00,0.0058
823.00,0.0058
820.00,0.0063
817.00,0.0067
814.00,0.0068
811.00,0.0065
808.00,0.0063
805.00,0.0061
802.00,0.0064
799.00,0.0070
796.00,0.0079
793.00,0.0092
790.00,0.0111
787.00,0.0136
784.00,0.0164
781.00,0.0200
778.00,0.0255
775.00,0.0333
772.00,0.0434
769.00,0.0555
766.00,0.0676
763.00,0.0792
760.00,0.0910
757.00,0.0999
754.00,0.1022
751.00,0.1010
748.00,0.0995
745.00,0.0907
742.00,0.0717
739.00,0.0531
736.00,0.0383
733.00,0.0257
730.00,0.0173
727.00,0.0135
724.00,0.0120
721.00,0.0117
718.00,0.0125
715.00,0.0153
712.00,0.0229
709.00,0.0422
706.00,0.0789
703.00,0.1335
700.00,0.2016
697.00,0.2712
694.00,0.2837
691.00,0.2026
688.00,0.1270
685.00,0.0879
682.00,0.0675
679.00,0.0553
676.00,0.0475
673.00,0.0423
670.00,0.0386
667.00,0.0347
664.00,0.0310
661.00,0.0275
658.00,0.0243
655.00,0.0219
652.00,0.0199
649.00,0.0184
646.00,0.0173
643.00,0.0164
640.00,0.0164
637.00,0.0170
634.00,0.0182
631.00,0.0192
628.00,0.0200
625.00,0.0208
622.00,0.0219
619.00,0.0214
616.00,0.0198
613.00,0.0186
610.00,0.0178
607.00,0.0173
604.00,0.0173
601.00,0.0175
598.00,0.0180
595.00,0.0189
592.00,0.0195
589.00,0.0203
586.00,0.0214
583.00,0.0230
580.00,0.0250
577.00,0.0282
574.00,0.0319
571.00,0.0364
568.00,0.0402
565.00,0.0438
562.00,0.0476
559.00,0.0516
556.00,0.0552
553.00,0.0594
550.00,0.0649
547.00,0.0726
544.00,0.0812
541.00,0.0896
538.00,0.0936
535.00,0.0873
532.00,0.0744
529.00,0.0608
526.00,0.0493
523.00,0.0412
520.00,0.0358
517.00,0.0318
514.00,0.0291
511.00,0.0266
508.00,0.0238
505.00,0.0221
502.00,0.0205
499.00,0.0193
496.00,0.0180
493.00,0.0172
490.00,0.0165
487.00,0.0156
484.00,0.0151
481.00,0.0150
478.00,0.0146
475.00,0.0142
472.00,0.0145
469.00,0.0140
466.00,0.0135
463.00,0.0129
460.00,0.0123
457.00,0.0125
454.00,0.0125
451.00,0.0127
448.00,0.0127
445.00,0.0118
442.00,0.0116
439.00,0.0121
436.00,0.0121
433.00,0.0120
430.00,0.0113
427.00,0.0106
424.00,0.0104
421.00,0.0108
418.00,0.0114
415.00,0.0104
412.00,0.0101
409.00,0.0110
406.00,0.0135
403.00,0.0121
400.00,0.0136