File: FTIR/Mary/Jul1/2025_07_01_Polystyrene_Std_MEL_scan1.csv
Created as New Dataset,Sample 752 By YargerLab Date Sunday, June 29 2025
cm-1,A
4000.00,0.0010
3997.00,0.0010
3994.00,0.0010
3991.00,0.0010
3988.00,0.0010
3985.00,0.0010
3982.00,0.0010
3979.00,0.0011
3976.00,0.0011
3973.00,0.0011
3970.00,0.0010
3967.00,0.0010
3964.00,0.0011
3961.00,0.0010
3958.00,0.0010
3955.00,0.0010
3952.00,0.0010
3949.00,0.0012
3946.00,0.0013
3943.00,0.0011
3940.00,0.0011
3937.00,0.0011
3934.00,0.0013
3931.00,0.0013
3928.00,0.0011
3925.00,0.0009
3922.00,0.0012
3919.00,0.0013
3916.00,0.0013
3913.00,0.0011
3910.00,0.0009
3907.00,0.0010
3904.00,0.0015
3901.00,0.0018
3898.00,0.0014
3895.00,0.0013
3892.00,0.0011
3889.00,0.0014
3886.00,0.0016
3883.00,0.0014
3880.00,0.0014
3877.00,0.0014
3874.00,0.0012
3871.00,0.0015
3868.00,0.0015
3865.00,0.0016
3862.00,0.0015
3859.00,0.0014
3856.00,0.0010
3853.00,0.0013
3850.00,0.0014
3847.00,0.0014
3844.00,0.0013
3841.00,0.0014
3838.00,0.0015
3835.00,0.0015
3832.00,0.0015
3829.00,0.0013
3826.00,0.0013
3823.00,0.0016
3820.00,0.0014
3817.00,0.0015
3814.00,0.0012
3811.00,0.0012
3808.00,0.0013
3805.00,0.0012
3802.00,0.0013
3799.00,0.0013
3796.00,0.0015
3793.00,0.0012
3790.00,0.0010
3787.00,0.0010
3784.00,0.0011
3781.00,0.0012
3778.00,0.0012
3775.00,0.0012
3772.00,0.0012
3769.00,0.0014
3766.00,0.0015
3763.00,0.0014
3760.00,0.0014
3757.00,0.0015
3754.00,0.0017
3751.00,0.0022
3748.00,0.0024
3745.00,0.0023
3742.00,0.0020
3739.00,0.0022
3736.00,0.0022
3733.00,0.0022
3730.00,0.0019
3727.00,0.0019
3724.00,0.0016
3721.00,0.0015
3718.00,0.0013
3715.00,0.0015
3712.00,0.0016
3709.00,0.0017
3706.00,0.0015
3703.00,0.0012
3700.00,0.0012
3697.00,0.0011
3694.00,0.0012
3691.00,0.0010
3688.00,0.0013
3685.00,0.0010
3682.00,0.0008
3679.00,0.0005
3676.00,0.0006
3673.00,0.0004
3670.00,0.0002
3667.00,-0.0002
3664.00,-0.0005
3661.00,-0.0006
3658.00,-0.0005
3655.00,-0.0002
3652.00,0.0002
3649.00,0.0005
3646.00,0.0005
3643.00,0.0002
3640.00,-0.0000
3637.00,0.0000
3634.00,0.0006
3631.00,0.0013
3628.00,0.0016
3625.00,0.0015
3622.00,0.0013
3619.00,0.0013
3616.00,0.0017
3613.00,0.0019
3610.00,0.0021
3607.00,0.0017
3604.00,0.0016
3601.00,0.0014
3598.00,0.0015
3595.00,0.0016
3592.00,0.0017
3589.00,0.0019
3586.00,0.0017
3583.00,0.0017
3580.00,0.0015
3577.00,0.0014
3574.00,0.0013
3571.00,0.0016
3568.00,0.0018
3565.00,0.0018
3562.00,0.0017
3559.00,0.0015
3556.00,0.0014
3553.00,0.0014
3550.00,0.0016
3547.00,0.0018
3544.00,0.0017
3541.00,0.0016
3538.00,0.0015
3535.00,0.0015
3532.00,0.0015
3529.00,0.0016
3526.00,0.0018
3523.00,0.0018
3520.00,0.0017
3517.00,0.0016
3514.00,0.0016
3511.00,0.0017
3508.00,0.0018
3505.00,0.0018
3502.00,0.0018
3499.00,0.0017
3496.00,0.0017
3493.00,0.0017
3490.00,0.0016
3487.00,0.0017
3484.00,0.0017
3481.00,0.0017
3478.00,0.0017
3475.00,0.0017
3472.00,0.0017
3469.00,0.0017
3466.00,0.0016
3463.00,0.0017
3460.00,0.0018
3457.00,0.0017
3454.00,0.0018
3451.00,0.0017
3448.00,0.0017
3445.00,0.0018
3442.00,0.0018
3439.00,0.0017
3436.00,0.0018
3433.00,0.0018
3430.00,0.0018
3427.00,0.0018
3424.00,0.0017
3421.00,0.0017
3418.00,0.0017
3415.00,0.0018
3412.00,0.0018
3409.00,0.0017
3406.00,0.0017
3403.00,0.0018
3400.00,0.0018
3397.00,0.0019
3394.00,0.0020
3391.00,0.0020
3388.00,0.0019
3385.00,0.0018
3382.00,0.0019
3379.00,0.0019
3376.00,0.0019
3373.00,0.0019
3370.00,0.0019
3367.00,0.0020
3364.00,0.0020
3361.00,0.0018
3358.00,0.0018
3355.00,0.0018
3352.00,0.0020
3349.00,0.0020
3346.00,0.0018
3343.00,0.0018
3340.00,0.0018
3337.00,0.0018
3334.00,0.0018
3331.00,0.0018
3328.00,0.0019
3325.00,0.0019
3322.00,0.0019
3319.00,0.0019
3316.00,0.0019
3313.00,0.0020
3310.00,0.0019
3307.00,0.0019
3304.00,0.0020
3301.00,0.0019
3298.00,0.0020
3295.00,0.0021
3292.00,0.0020
3289.00,0.0020
3286.00,0.0020
3283.00,0.0019
3280.00,0.0019
3277.00,0.0019
3274.00,0.0020
3271.00,0.0019
3268.00,0.0018
3265.00,0.0019
3262.00,0.0019
3259.00,0.0018
3256.00,0.0018
3253.00,0.0018
3250.00,0.0018
3247.00,0.0018
3244.00,0.0017
3241.00,0.0018
3238.00,0.0018
3235.00,0.0018
3232.00,0.0017
3229.00,0.0016
3226.00,0.0016
3223.00,0.0016
3220.00,0.0016
3217.00,0.0016
3214.00,0.0017
3211.00,0.0017
3208.00,0.0017
3205.00,0.0016
3202.00,0.0015
3199.00,0.0015
3196.00,0.0015
3193.00,0.0015
3190.00,0.0016
3187.00,0.0016
3184.00,0.0016
3181.00,0.0016
3178.00,0.0016
3175.00,0.0015
3172.00,0.0016
3169.00,0.0016
3166.00,0.0016
3163.00,0.0017
3160.00,0.0017
3157.00,0.0017
3154.00,0.0017
3151.00,0.0016
3148.00,0.0016
3145.00,0.0015
3142.00,0.0017
3139.00,0.0017
3136.00,0.0015
3133.00,0.0015
3130.00,0.0016
3127.00,0.0016
3124.00,0.0017
3121.00,0.0018
3118.00,0.0019
3115.00,0.0020
3112.00,0.0022
3109.00,0.0026
3106.00,0.0030
3103.00,0.0033
3100.00,0.0033
3097.00,0.0031
3094.00,0.0032
3091.00,0.0039
3088.00,0.0051
3085.00,0.0065
3082.00,0.0073
3079.00,0.0068
3076.00,0.0058
3073.00,0.0054
3070.00,0.0058
3067.00,0.0069
3064.00,0.0084
3061.00,0.0096
3058.00,0.0096
3055.00,0.0083
3052.00,0.0069
3049.00,0.0058
3046.00,0.0053
3043.00,0.0054
3040.00,0.0060
3037.00,0.0072
3034.00,0.0095
3031.00,0.0129
3028.00,0.0165
3025.00,0.0182
3022.00,0.0158
3019.00,0.0111
3016.00,0.0070
3013.00,0.0043
3010.00,0.0025
3007.00,0.0012
3004.00,0.0000
3001.00,-0.0013
2998.00,-0.0031
2995.00,-0.0051
2992.00,-0.0065
2989.00,-0.0076
2986.00,-0.0091
2983.00,-0.0133
2980.00,-0.0144
2977.00,-0.0120
2974.00,-0.0111
2971.00,-0.0111
2968.00,-0.0091
2965.00,-0.0073
2962.00,-0.0059
2959.00,-0.0046
2956.00,-0.0033
2953.00,-0.0018
2950.00,-0.0001
2947.00,0.0018
2944.00,0.0038
2941.00,0.0057
2938.00,0.0077
2935.00,0.0098
2932.00,0.0119
2929.00,0.0141
2926.00,0.0158
2923.00,0.0168
2920.00,0.0168
2917.00,0.0161
2914.00,0.0150
2911.00,0.0135
2908.00,0.0118
2905.00,0.0101
2902.00,0.0083
2899.00,0.0067
2896.00,0.0052
2893.00,0.0038
2890.00,0.0027
2887.00,0.0021
2884.00,0.0016
2881.00,0.0018
2878.00,0.0022
2875.00,0.0022
2872.00,0.0022
2869.00,0.0023
2866.00,0.0028
2863.00,0.0035
2860.00,0.0045
2857.00,0.0057
2854.00,0.0068
2851.00,0.0076
2848.00,0.0080
2845.00,0.0077
2842.00,0.0065
2839.00,0.0050
2836.00,0.0037
2833.00,0.0027
2830.00,0.0023
2827.00,0.0021
2824.00,0.0019
2821.00,0.0018
2818.00,0.0018
2815.00,0.0017
2812.00,0.0017
2809.00,0.0017
2806.00,0.0017
2803.00,0.0016
2800.00,0.0015
2797.00,0.0015
2794.00,0.0015
2791.00,0.0015
2788.00,0.0015
2785.00,0.0015
2782.00,0.0015
2779.00,0.0015
2776.00,0.0015
2773.00,0.0014
2770.00,0.0014
2767.00,0.0014
2764.00,0.0014
2761.00,0.0014
2758.00,0.0014
2755.00,0.0014
2752.00,0.0014
2749.00,0.0014
2746.00,0.0014
2743.00,0.0015
2740.00,0.0015
2737.00,0.0014
2734.00,0.0014
2731.00,0.0014
2728.00,0.0015
2725.00,0.0015
2722.00,0.0015
2719.00,0.0015
2716.00,0.0015
2713.00,0.0015
2710.00,0.0015
2707.00,0.0015
2704.00,0.0015
2701.00,0.0016
2698.00,0.0016
2695.00,0.0015
2692.00,0.0015
2689.00,0.0015
2686.00,0.0015
2683.00,0.0015
2680.00,0.0014
2677.00,0.0014
2674.00,0.0015
2671.00,0.0015
2668.00,0.0014
2665.00,0.0014
2662.00,0.0015
2659.00,0.0017
2656.00,0.0018
2653.00,0.0018
2650.00,0.0018
2647.00,0.0017
2644.00,0.0017
2641.00,0.0018
2638.00,0.0019
2635.00,0.0019
2632.00,0.0018
2629.00,0.0018
2626.00,0.0018
2623.00,0.0018
2620.00,0.0017
2617.00,0.0017
2614.00,0.0018
2611.00,0.0017
2608.00,0.0017
2605.00,0.0018
2602.00,0.0018
2599.00,0.0018
2596.00,0.0017
2593.00,0.0016
2590.00,0.0016
2587.00,0.0016
2584.00,0.0017
2581.00,0.0017
2578.00,0.0017
2575.00,0.0018
2572.00,0.0016
2569.00,0.0015
2566.00,0.0015
2563.00,0.0016
2560.00,0.0016
2557.00,0.0015
2554.00,0.0015
2551.00,0.0015
2548.00,0.0015
2545.00,0.0015
2542.00,0.0014
2539.00,0.0014
2536.00,0.0014
2533.00,0.0014
2530.00,0.0013
2527.00,0.0013
2524.00,0.0013
2521.00,0.0014
2518.00,0.0013
2515.00,0.0013
2512.00,0.0013
2509.00,0.0013
2506.00,0.0013
2503.00,0.0014
2500.00,0.0013
2497.00,0.0014
2494.00,0.0012
2491.00,0.0012
2488.00,0.0012
2485.00,0.0012
2482.00,0.0013
2479.00,0.0013
2476.00,0.0012
2473.00,0.0012
2470.00,0.0013
2467.00,0.0013
2464.00,0.0013
2461.00,0.0013
2458.00,0.0014
2455.00,0.0013
2452.00,0.0013
2449.00,0.0013
2446.00,0.0011
2443.00,0.0011
2440.00,0.0012
2437.00,0.0012
2434.00,0.0012
2431.00,0.0011
2428.00,0.0011
2425.00,0.0011
2422.00,0.0011
2419.00,0.0010
2416.00,0.0011
2413.00,0.0011
2410.00,0.0011
2407.00,0.0010
2404.00,0.0009
2401.00,0.0010
2398.00,0.0012
2395.00,0.0011
2392.00,0.0011
2389.00,0.0010
2386.00,0.0010
2383.00,0.0010
2380.00,0.0009
2377.00,0.0010
2374.00,0.0010
2371.00,0.0009
2368.00,0.0007
2365.00,0.0010
2362.00,0.0011
2359.00,0.0011
2356.00,0.0012
2353.00,0.0012
2350.00,0.0013
2347.00,0.0014
2344.00,0.0015
2341.00,0.0016
2338.00,0.0016
2335.00,0.0015
2332.00,0.0014
2329.00,0.0016
2326.00,0.0023
2323.00,0.0021
2320.00,0.0018
2317.00,0.0020
2314.00,0.0019
2311.00,0.0018
2308.00,0.0018
2305.00,0.0017
2302.00,0.0018
2299.00,0.0018
2296.00,0.0019
2293.00,0.0021
2290.00,0.0022
2287.00,0.0022
2284.00,0.0021
2281.00,0.0019
2278.00,0.0017
2275.00,0.0018
2272.00,0.0018
2269.00,0.0016
2266.00,0.0017
2263.00,0.0017
2260.00,0.0018
2257.00,0.0015
2254.00,0.0012
2251.00,0.0013
2248.00,0.0015
2245.00,0.0014
2242.00,0.0011
2239.00,0.0013
2236.00,0.0014
2233.00,0.0016
2230.00,0.0014
2227.00,0.0012
2224.00,0.0012
2221.00,0.0014
2218.00,0.0013
2215.00,0.0013
2212.00,0.0011
2209.00,0.0012
2206.00,0.0011
2203.00,0.0008
2200.00,0.0014
2197.00,0.0016
2194.00,0.0013
2191.00,0.0013
2188.00,0.0012
2185.00,0.0014
2182.00,0.0007
2179.00,0.0009
2176.00,0.0006
2173.00,0.0008
2170.00,0.0017
2167.00,0.0018
2164.00,0.0019
2161.00,0.0005
2158.00,-0.0014
2155.00,-0.0009
2152.00,-0.0004
2149.00,0.0000
2146.00,-0.0005
2143.00,-0.0003
2140.00,0.0000
2137.00,-0.0001
2134.00,-0.0006
2131.00,-0.0004
2128.00,0.0001
2125.00,0.0003
2122.00,0.0005
2119.00,0.0007
2116.00,0.0008
2113.00,0.0010
2110.00,0.0008
2107.00,0.0007
2104.00,0.0008
2101.00,0.0008
2098.00,0.0006
2095.00,0.0003
2092.00,0.0005
2089.00,0.0008
2086.00,0.0009
2083.00,0.0010
2080.00,0.0009
2077.00,0.0011
2074.00,0.0010
2071.00,0.0011
2068.00,0.0008
2065.00,0.0005
2062.00,0.0008
2059.00,0.0010
2056.00,0.0010
2053.00,0.0014
2050.00,0.0014
2047.00,0.0007
2044.00,0.0009
2041.00,0.0007
2038.00,0.0010
2035.00,0.0006
2032.00,0.0003
2029.00,0.0005
2026.00,0.0006
2023.00,0.0005
2020.00,-0.0000
2017.00,0.0002
2014.00,0.0006
2011.00,0.0005
2008.00,0.0002
2005.00,0.0003
2002.00,0.0006
1999.00,0.0005
1996.00,0.0003
1993.00,0.0008
1990.00,0.0017
1987.00,0.0016
1984.00,0.0015
1981.00,0.0021
1978.00,0.0012
1975.00,0.0003
1972.00,0.0004
1969.00,0.0012
1966.00,0.0016
1963.00,0.0013
1960.00,0.0013
1957.00,0.0017
1954.00,0.0019
1951.00,0.0017
1948.00,0.0020
1945.00,0.0027
1942.00,0.0030
1939.00,0.0026
1936.00,0.0021
1933.00,0.0015
1930.00,0.0011
1927.00,0.0010
1924.00,0.0010
1921.00,0.0011
1918.00,0.0010
1915.00,0.0007
1912.00,0.0006
1909.00,0.0006
1906.00,0.0006
1903.00,0.0007
1900.00,0.0010
1897.00,0.0010
1894.00,0.0013
1891.00,0.0016
1888.00,0.0018
1885.00,0.0021
1882.00,0.0023
1879.00,0.0024
1876.00,0.0026
1873.00,0.0028
1870.00,0.0027
1867.00,0.0025
1864.00,0.0024
1861.00,0.0021
1858.00,0.0016
1855.00,0.0012
1852.00,0.0012
1849.00,0.0012
1846.00,0.0012
1843.00,0.0012
1840.00,0.0012
1837.00,0.0010
1834.00,0.0010
1831.00,0.0010
1828.00,0.0013
1825.00,0.0016
1822.00,0.0017
1819.00,0.0018
1816.00,0.0020
1813.00,0.0023
1810.00,0.0026
1807.00,0.0028
1804.00,0.0030
1801.00,0.0033
1798.00,0.0032
1795.00,0.0029
1792.00,0.0025
1789.00,0.0021
1786.00,0.0019
1783.00,0.0017
1780.00,0.0017
1777.00,0.0017
1774.00,0.0017
1771.00,0.0018
1768.00,0.0020
1765.00,0.0018
1762.00,0.0018
1759.00,0.0022
1756.00,0.0026
1753.00,0.0032
1750.00,0.0038
1747.00,0.0038
1744.00,0.0039
1741.00,0.0039
1738.00,0.0039
1735.00,0.0042
1732.00,0.0039
1729.00,0.0034
1726.00,0.0031
1723.00,0.0029
1720.00,0.0028
1717.00,0.0029
1714.00,0.0029
1711.00,0.0026
1708.00,0.0025
1705.00,0.0023
1702.00,0.0028
1699.00,0.0031
1696.00,0.0029
1693.00,0.0029
1690.00,0.0030
1687.00,0.0031
1684.00,0.0031
1681.00,0.0034
1678.00,0.0035
1675.00,0.0037
1672.00,0.0039
1669.00,0.0038
1666.00,0.0038
1663.00,0.0039
1660.00,0.0039
1657.00,0.0038
1654.00,0.0037
1651.00,0.0037
1648.00,0.0037
1645.00,0.0038
1642.00,0.0037
1639.00,0.0036
1636.00,0.0036
1633.00,0.0035
1630.00,0.0035
1627.00,0.0034
1624.00,0.0035
1621.00,0.0036
1618.00,0.0037
1615.00,0.0042
1612.00,0.0050
1609.00,0.0071
1606.00,0.0118
1603.00,0.0177
1600.00,0.0189
1597.00,0.0140
1594.00,0.0093
1591.00,0.0071
1588.00,0.0065
1585.00,0.0080
1582.00,0.0084
1579.00,0.0059
1576.00,0.0042
1573.00,0.0036
1570.00,0.0033
1567.00,0.0033
1564.00,0.0031
1561.00,0.0031
1558.00,0.0037
1555.00,0.0038
1552.00,0.0041
1549.00,0.0043
1546.00,0.0048
1543.00,0.0048
1540.00,0.0046
1537.00,0.0045
1534.00,0.0042
1531.00,0.0039
1528.00,0.0037
1525.00,0.0037
1522.00,0.0036
1519.00,0.0037
1516.00,0.0038
1513.00,0.0040
1510.00,0.0041
1507.00,0.0044
1504.00,0.0053
1501.00,0.0072
1498.00,0.0146
1495.00,0.0357
1492.00,0.0471
1489.00,0.0284
1486.00,0.0145
1483.00,0.0088
1480.00,0.0060
1477.00,0.0048
1474.00,0.0040
1471.00,0.0041
1468.00,0.0045
1465.00,0.0046
1462.00,0.0056
1459.00,0.0090
1456.00,0.0261
1453.00,0.0443
1450.00,0.0442
1447.00,0.0333
1444.00,0.0260
1441.00,0.0201
1438.00,0.0159
1435.00,0.0113
1432.00,0.0085
1429.00,0.0063
1426.00,0.0053
1423.00,0.0047
1420.00,0.0044
1417.00,0.0039
1414.00,0.0033
1411.00,0.0027
1408.00,0.0022
1405.00,0.0015
1402.00,0.0008
1399.00,0.0001
1396.00,-0.0005
1393.00,-0.0007
1390.00,-0.0000
1387.00,0.0008
1384.00,0.0015
1381.00,0.0022
1378.00,0.0037
1375.00,0.0051
1372.00,0.0060
1369.00,0.0067
1366.00,0.0071
1363.00,0.0072
1360.00,0.0072
1357.00,0.0069
1354.00,0.0069
1351.00,0.0072
1348.00,0.0071
1345.00,0.0069
1342.00,0.0067
1339.00,0.0065
1336.00,0.0067
1333.00,0.0073
1330.00,0.0081
1327.00,0.0083
1324.00,0.0081
1321.00,0.0079
1318.00,0.0080
1315.00,0.0085
1312.00,0.0086
1309.00,0.0084
1306.00,0.0079
1303.00,0.0075
1300.00,0.0071
1297.00,0.0068
1294.00,0.0067
1291.00,0.0065
1288.00,0.0062
1285.00,0.0060
1282.00,0.0058
1279.00,0.0055
1276.00,0.0049
1273.00,0.0041
1270.00,0.0033
1267.00,0.0027
1264.00,0.0023
1261.00,0.0021
1258.00,0.0018
1255.00,0.0015
1252.00,0.0014
1249.00,0.0017
1246.00,0.0021
1243.00,0.0023
1240.00,0.0023
1237.00,0.0024
1234.00,0.0028
1231.00,0.0031
1228.00,0.0036
1225.00,0.0040
1222.00,0.0043
1219.00,0.0045
1216.00,0.0047
1213.00,0.0051
1210.00,0.0053
1207.00,0.0057
1204.00,0.0063
1201.00,0.0068
1198.00,0.0071
1195.00,0.0072
1192.00,0.0071
1189.00,0.0070
1186.00,0.0075
1183.00,0.0084
1180.00,0.0082
1177.00,0.0058
1174.00,0.0037
1171.00,0.0026
1168.00,0.0020
1165.00,0.0015
1162.00,0.0018
1159.00,0.0031
1156.00,0.0050
1153.00,0.0047
1150.00,0.0024
1147.00,0.0009
1144.00,0.0004
1141.00,0.0002
1138.00,0.0001
1135.00,0.0003
1132.00,0.0006
1129.00,0.0010
1126.00,0.0014
1123.00,0.0020
1120.00,0.0026
1117.00,0.0034
1114.00,0.0043
1111.00,0.0046
1108.00,0.0045
1105.00,0.0046
1102.00,0.0044
1099.00,0.0044
1096.00,0.0045
1093.00,0.0043
1090.00,0.0043
1087.00,0.0046
1084.00,0.0053
1081.00,0.0062
1078.00,0.0071
1075.00,0.0085
1072.00,0.0104
1069.00,0.0116
1066.00,0.0114
1063.00,0.0101
1060.00,0.0087
1057.00,0.0080
1054.00,0.0077
1051.00,0.0075
1048.00,0.0074
1045.00,0.0076
1042.00,0.0079
1039.00,0.0088
1036.00,0.0119
1033.00,0.0181
1030.00,0.0248
1027.00,0.0263
1024.00,0.0217
1021.00,0.0174
1018.00,0.0146
1015.00,0.0127
1012.00,0.0114
1009.00,0.0110
1006.00,0.0115
1003.00,0.0119
1000.00,0.0104
997.00,0.0089
994.00,0.0085
991.00,0.0084
988.00,0.0088
985.00,0.0094
982.00,0.0098
979.00,0.0095
976.00,0.0080
973.00,0.0066
970.00,0.0061
967.00,0.0064
964.00,0.0068
961.00,0.0059
958.00,0.0039
955.00,0.0028
952.00,0.0026
949.00,0.0032
946.00,0.0039
943.00,0.0044
940.00,0.0046
937.00,0.0045
934.00,0.0045
931.00,0.0046
928.00,0.0050
925.00,0.0055
922.00,0.0064
919.00,0.0075
916.00,0.0094
913.00,0.0123
910.00,0.0159
907.00,0.0182
904.00,0.0172
901.00,0.0136
898.00,0.0099
895.00,0.0078
892.00,0.0067
889.00,0.0059
886.00,0.0055
883.00,0.0052
880.00,0.0050
877.00,0.0048
874.00,0.0048
871.00,0.0047
868.00,0.0047
865.00,0.0046
862.00,0.0045
859.00,0.0047
856.00,0.0049
853.00,0.0054
850.00,0.0064
847.00,0.0078
844.00,0.0091
841.00,0.0092
838.00,0.0082
835.00,0.0064
832.00,0.0047
829.00,0.0039
826.00,0.0037
823.00,0.0036
820.00,0.0035
817.00,0.0035
814.00,0.0037
811.00,0.0037
808.00,0.0040
805.00,0.0044
802.00,0.0049
799.00,0.0054
796.00,0.0062
793.00,0.0074
790.00,0.0089
787.00,0.0107
784.00,0.0129
781.00,0.0156
778.00,0.0197
775.00,0.0254
772.00,0.0328
769.00,0.0419
766.00,0.0509
763.00,0.0601
760.00,0.0696
757.00,0.0770
754.00,0.0788
751.00,0.0780
748.00,0.0770
745.00,0.0705
742.00,0.0558
739.00,0.0413
736.00,0.0298
733.00,0.0202
730.00,0.0138
727.00,0.0108
724.00,0.0096
721.00,0.0094
718.00,0.0101
715.00,0.0120
712.00,0.0176
709.00,0.0318
706.00,0.0611
703.00,0.1079
700.00,0.1680
697.00,0.2271
694.00,0.2405
691.00,0.1756
688.00,0.1113
685.00,0.0773
682.00,0.0589
679.00,0.0477
676.00,0.0406
673.00,0.0359
670.00,0.0324
667.00,0.0283
664.00,0.0259
661.00,0.0228
658.00,0.0201
655.00,0.0176
652.00,0.0158
649.00,0.0143
646.00,0.0128
643.00,0.0125
640.00,0.0127
637.00,0.0130
634.00,0.0138
631.00,0.0150
628.00,0.0157
625.00,0.0163
622.00,0.0172
619.00,0.0171
616.00,0.0154
613.00,0.0144
610.00,0.0113
607.00,0.0128
604.00,0.0135
601.00,0.0139
598.00,0.0142
595.00,0.0148
592.00,0.0153
589.00,0.0159
586.00,0.0167
583.00,0.0177
580.00,0.0197
577.00,0.0222
574.00,0.0252
571.00,0.0287
568.00,0.0320
565.00,0.0356
562.00,0.0388
559.00,0.0418
556.00,0.0459
553.00,0.0496
550.00,0.0537
547.00,0.0597
544.00,0.0674
541.00,0.0755
538.00,0.0803
535.00,0.0766
532.00,0.0648
529.00,0.0530
526.00,0.0435
523.00,0.0357
520.00,0.0306
517.00,0.0280
514.00,0.0257
511.00,0.0233
508.00,0.0212
505.00,0.0194
502.00,0.0177
499.00,0.0164
496.00,0.0157
493.00,0.0143
490.00,0.0138
487.00,0.0132
484.00,0.0127
481.00,0.0122
478.00,0.0119
475.00,0.0118
472.00,0.0124
469.00,0.0120
466.00,0.0116
463.00,0.0104
460.00,0.0118
457.00,0.0124
454.00,0.0099
451.00,0.0103
448.00,0.0109
445.00,0.0107
442.00,0.0107
439.00,0.0107
436.00,0.0107
433.00,0.0092
430.00,0.0083
427.00,0.0075
424.00,0.0071
421.00,0.0070
418.00,0.0109
415.00,0.0061
412.00,0.0081
409.00,0.0101
406.00,0.0108
403.00,0.0112
400.00,0.0183