File: FTIR/Mary/Jul1/2025_07_01_Polystyrene_Std_MEL_scan2_After.csv
Created as New Dataset,Sample 758 By YargerLab Date Tuesday, July 01 2025
cm-1,A
4000.00,0.0004
3997.00,0.0005
3994.00,0.0005
3991.00,0.0005
3988.00,0.0005
3985.00,0.0005
3982.00,0.0005
3979.00,0.0005
3976.00,0.0005
3973.00,0.0005
3970.00,0.0005
3967.00,0.0005
3964.00,0.0006
3961.00,0.0005
3958.00,0.0005
3955.00,0.0005
3952.00,0.0005
3949.00,0.0007
3946.00,0.0008
3943.00,0.0006
3940.00,0.0006
3937.00,0.0006
3934.00,0.0008
3931.00,0.0007
3928.00,0.0006
3925.00,0.0005
3922.00,0.0007
3919.00,0.0009
3916.00,0.0007
3913.00,0.0006
3910.00,0.0005
3907.00,0.0005
3904.00,0.0009
3901.00,0.0012
3898.00,0.0008
3895.00,0.0007
3892.00,0.0006
3889.00,0.0008
3886.00,0.0010
3883.00,0.0008
3880.00,0.0008
3877.00,0.0009
3874.00,0.0007
3871.00,0.0010
3868.00,0.0009
3865.00,0.0010
3862.00,0.0009
3859.00,0.0009
3856.00,0.0005
3853.00,0.0006
3850.00,0.0008
3847.00,0.0009
3844.00,0.0009
3841.00,0.0009
3838.00,0.0008
3835.00,0.0008
3832.00,0.0009
3829.00,0.0008
3826.00,0.0008
3823.00,0.0010
3820.00,0.0008
3817.00,0.0010
3814.00,0.0006
3811.00,0.0006
3808.00,0.0007
3805.00,0.0007
3802.00,0.0008
3799.00,0.0007
3796.00,0.0008
3793.00,0.0006
3790.00,0.0005
3787.00,0.0005
3784.00,0.0005
3781.00,0.0006
3778.00,0.0006
3775.00,0.0006
3772.00,0.0007
3769.00,0.0008
3766.00,0.0009
3763.00,0.0008
3760.00,0.0009
3757.00,0.0010
3754.00,0.0011
3751.00,0.0014
3748.00,0.0015
3745.00,0.0015
3742.00,0.0013
3739.00,0.0016
3736.00,0.0016
3733.00,0.0016
3730.00,0.0013
3727.00,0.0012
3724.00,0.0012
3721.00,0.0011
3718.00,0.0009
3715.00,0.0009
3712.00,0.0010
3709.00,0.0010
3706.00,0.0009
3703.00,0.0007
3700.00,0.0007
3697.00,0.0007
3694.00,0.0007
3691.00,0.0005
3688.00,0.0006
3685.00,0.0004
3682.00,0.0003
3679.00,0.0000
3676.00,0.0000
3673.00,-0.0001
3670.00,-0.0003
3667.00,-0.0006
3664.00,-0.0008
3661.00,-0.0009
3658.00,-0.0008
3655.00,-0.0007
3652.00,-0.0003
3649.00,-0.0000
3646.00,0.0000
3643.00,-0.0002
3640.00,-0.0003
3637.00,-0.0002
3634.00,0.0003
3631.00,0.0009
3628.00,0.0011
3625.00,0.0011
3622.00,0.0011
3619.00,0.0011
3616.00,0.0014
3613.00,0.0015
3610.00,0.0017
3607.00,0.0014
3604.00,0.0013
3601.00,0.0012
3598.00,0.0013
3595.00,0.0013
3592.00,0.0014
3589.00,0.0017
3586.00,0.0015
3583.00,0.0014
3580.00,0.0013
3577.00,0.0012
3574.00,0.0012
3571.00,0.0015
3568.00,0.0018
3565.00,0.0017
3562.00,0.0016
3559.00,0.0015
3556.00,0.0014
3553.00,0.0015
3550.00,0.0016
3547.00,0.0019
3544.00,0.0018
3541.00,0.0017
3538.00,0.0017
3535.00,0.0017
3532.00,0.0018
3529.00,0.0018
3526.00,0.0020
3523.00,0.0020
3520.00,0.0019
3517.00,0.0018
3514.00,0.0019
3511.00,0.0020
3508.00,0.0021
3505.00,0.0022
3502.00,0.0022
3499.00,0.0022
3496.00,0.0021
3493.00,0.0022
3490.00,0.0022
3487.00,0.0022
3484.00,0.0023
3481.00,0.0023
3478.00,0.0024
3475.00,0.0024
3472.00,0.0024
3469.00,0.0025
3466.00,0.0025
3463.00,0.0025
3460.00,0.0026
3457.00,0.0026
3454.00,0.0026
3451.00,0.0026
3448.00,0.0027
3445.00,0.0028
3442.00,0.0028
3439.00,0.0028
3436.00,0.0029
3433.00,0.0029
3430.00,0.0029
3427.00,0.0030
3424.00,0.0030
3421.00,0.0030
3418.00,0.0031
3415.00,0.0031
3412.00,0.0032
3409.00,0.0032
3406.00,0.0032
3403.00,0.0032
3400.00,0.0033
3397.00,0.0034
3394.00,0.0033
3391.00,0.0034
3388.00,0.0034
3385.00,0.0034
3382.00,0.0034
3379.00,0.0034
3376.00,0.0035
3373.00,0.0036
3370.00,0.0036
3367.00,0.0036
3364.00,0.0036
3361.00,0.0037
3358.00,0.0036
3355.00,0.0037
3352.00,0.0038
3349.00,0.0038
3346.00,0.0038
3343.00,0.0038
3340.00,0.0038
3337.00,0.0038
3334.00,0.0038
3331.00,0.0038
3328.00,0.0038
3325.00,0.0038
3322.00,0.0037
3319.00,0.0037
3316.00,0.0037
3313.00,0.0038
3310.00,0.0038
3307.00,0.0038
3304.00,0.0038
3301.00,0.0037
3298.00,0.0037
3295.00,0.0038
3292.00,0.0038
3289.00,0.0037
3286.00,0.0037
3283.00,0.0037
3280.00,0.0037
3277.00,0.0037
3274.00,0.0037
3271.00,0.0036
3268.00,0.0035
3265.00,0.0034
3262.00,0.0034
3259.00,0.0033
3256.00,0.0033
3253.00,0.0032
3250.00,0.0032
3247.00,0.0032
3244.00,0.0031
3241.00,0.0030
3238.00,0.0029
3235.00,0.0030
3232.00,0.0029
3229.00,0.0028
3226.00,0.0028
3223.00,0.0028
3220.00,0.0027
3217.00,0.0027
3214.00,0.0026
3211.00,0.0026
3208.00,0.0025
3205.00,0.0025
3202.00,0.0024
3199.00,0.0024
3196.00,0.0024
3193.00,0.0023
3190.00,0.0023
3187.00,0.0023
3184.00,0.0022
3181.00,0.0022
3178.00,0.0022
3175.00,0.0022
3172.00,0.0021
3169.00,0.0021
3166.00,0.0021
3163.00,0.0021
3160.00,0.0021
3157.00,0.0021
3154.00,0.0021
3151.00,0.0021
3148.00,0.0020
3145.00,0.0020
3142.00,0.0020
3139.00,0.0020
3136.00,0.0019
3133.00,0.0019
3130.00,0.0019
3127.00,0.0019
3124.00,0.0020
3121.00,0.0020
3118.00,0.0020
3115.00,0.0020
3112.00,0.0021
3109.00,0.0024
3106.00,0.0025
3103.00,0.0027
3100.00,0.0027
3097.00,0.0026
3094.00,0.0026
3091.00,0.0030
3088.00,0.0036
3085.00,0.0044
3082.00,0.0049
3079.00,0.0046
3076.00,0.0040
3073.00,0.0037
3070.00,0.0039
3067.00,0.0044
3064.00,0.0053
3061.00,0.0060
3058.00,0.0060
3055.00,0.0053
3052.00,0.0045
3049.00,0.0038
3046.00,0.0035
3043.00,0.0035
3040.00,0.0038
3037.00,0.0045
3034.00,0.0057
3031.00,0.0076
3028.00,0.0096
3025.00,0.0107
3022.00,0.0095
3019.00,0.0068
3016.00,0.0042
3013.00,0.0024
3010.00,0.0009
3007.00,-0.0003
3004.00,-0.0015
3001.00,-0.0027
2998.00,-0.0042
2995.00,-0.0056
2992.00,-0.0067
2989.00,-0.0076
2986.00,-0.0090
2983.00,-0.0128
2980.00,-0.0139
2977.00,-0.0116
2974.00,-0.0107
2971.00,-0.0109
2968.00,-0.0091
2965.00,-0.0075
2962.00,-0.0063
2959.00,-0.0052
2956.00,-0.0042
2953.00,-0.0030
2950.00,-0.0017
2947.00,-0.0004
2944.00,0.0010
2941.00,0.0021
2938.00,0.0033
2935.00,0.0044
2932.00,0.0055
2929.00,0.0068
2926.00,0.0079
2923.00,0.0084
2920.00,0.0084
2917.00,0.0081
2914.00,0.0076
2911.00,0.0069
2908.00,0.0059
2905.00,0.0049
2902.00,0.0039
2899.00,0.0030
2896.00,0.0021
2893.00,0.0011
2890.00,0.0004
2887.00,0.0001
2884.00,-0.0001
2881.00,0.0002
2878.00,0.0006
2875.00,0.0008
2872.00,0.0009
2869.00,0.0010
2866.00,0.0014
2863.00,0.0019
2860.00,0.0024
2857.00,0.0031
2854.00,0.0037
2851.00,0.0042
2848.00,0.0045
2845.00,0.0045
2842.00,0.0039
2839.00,0.0032
2836.00,0.0024
2833.00,0.0019
2830.00,0.0016
2827.00,0.0014
2824.00,0.0013
2821.00,0.0013
2818.00,0.0013
2815.00,0.0013
2812.00,0.0013
2809.00,0.0012
2806.00,0.0012
2803.00,0.0012
2800.00,0.0012
2797.00,0.0012
2794.00,0.0011
2791.00,0.0011
2788.00,0.0011
2785.00,0.0011
2782.00,0.0011
2779.00,0.0011
2776.00,0.0011
2773.00,0.0011
2770.00,0.0010
2767.00,0.0010
2764.00,0.0010
2761.00,0.0010
2758.00,0.0011
2755.00,0.0010
2752.00,0.0010
2749.00,0.0010
2746.00,0.0010
2743.00,0.0011
2740.00,0.0011
2737.00,0.0011
2734.00,0.0011
2731.00,0.0010
2728.00,0.0011
2725.00,0.0011
2722.00,0.0011
2719.00,0.0011
2716.00,0.0011
2713.00,0.0011
2710.00,0.0011
2707.00,0.0011
2704.00,0.0011
2701.00,0.0011
2698.00,0.0011
2695.00,0.0011
2692.00,0.0011
2689.00,0.0011
2686.00,0.0011
2683.00,0.0011
2680.00,0.0010
2677.00,0.0010
2674.00,0.0010
2671.00,0.0010
2668.00,0.0009
2665.00,0.0010
2662.00,0.0011
2659.00,0.0012
2656.00,0.0012
2653.00,0.0012
2650.00,0.0012
2647.00,0.0012
2644.00,0.0012
2641.00,0.0013
2638.00,0.0013
2635.00,0.0013
2632.00,0.0013
2629.00,0.0013
2626.00,0.0013
2623.00,0.0012
2620.00,0.0012
2617.00,0.0012
2614.00,0.0012
2611.00,0.0011
2608.00,0.0012
2605.00,0.0013
2602.00,0.0012
2599.00,0.0012
2596.00,0.0011
2593.00,0.0011
2590.00,0.0011
2587.00,0.0011
2584.00,0.0011
2581.00,0.0012
2578.00,0.0012
2575.00,0.0012
2572.00,0.0011
2569.00,0.0010
2566.00,0.0010
2563.00,0.0010
2560.00,0.0011
2557.00,0.0011
2554.00,0.0011
2551.00,0.0010
2548.00,0.0010
2545.00,0.0010
2542.00,0.0010
2539.00,0.0010
2536.00,0.0010
2533.00,0.0010
2530.00,0.0010
2527.00,0.0009
2524.00,0.0009
2521.00,0.0009
2518.00,0.0009
2515.00,0.0009
2512.00,0.0009
2509.00,0.0009
2506.00,0.0009
2503.00,0.0009
2500.00,0.0009
2497.00,0.0009
2494.00,0.0010
2491.00,0.0009
2488.00,0.0009
2485.00,0.0009
2482.00,0.0009
2479.00,0.0008
2476.00,0.0008
2473.00,0.0008
2470.00,0.0008
2467.00,0.0009
2464.00,0.0008
2461.00,0.0009
2458.00,0.0010
2455.00,0.0009
2452.00,0.0009
2449.00,0.0009
2446.00,0.0009
2443.00,0.0008
2440.00,0.0008
2437.00,0.0008
2434.00,0.0008
2431.00,0.0008
2428.00,0.0007
2425.00,0.0008
2422.00,0.0006
2419.00,0.0006
2416.00,0.0007
2413.00,0.0007
2410.00,0.0007
2407.00,0.0006
2404.00,0.0007
2401.00,0.0007
2398.00,0.0006
2395.00,0.0006
2392.00,0.0006
2389.00,0.0007
2386.00,0.0007
2383.00,0.0007
2380.00,0.0007
2377.00,0.0007
2374.00,0.0007
2371.00,0.0008
2368.00,0.0007
2365.00,0.0008
2362.00,0.0010
2359.00,0.0009
2356.00,0.0009
2353.00,0.0009
2350.00,0.0009
2347.00,0.0011
2344.00,0.0011
2341.00,0.0011
2338.00,0.0010
2335.00,0.0010
2332.00,0.0010
2329.00,0.0012
2326.00,0.0019
2323.00,0.0018
2320.00,0.0015
2317.00,0.0015
2314.00,0.0015
2311.00,0.0014
2308.00,0.0014
2305.00,0.0014
2302.00,0.0014
2299.00,0.0014
2296.00,0.0014
2293.00,0.0015
2290.00,0.0016
2287.00,0.0016
2284.00,0.0015
2281.00,0.0014
2278.00,0.0014
2275.00,0.0013
2272.00,0.0011
2269.00,0.0012
2266.00,0.0012
2263.00,0.0012
2260.00,0.0014
2257.00,0.0012
2254.00,0.0009
2251.00,0.0010
2248.00,0.0010
2245.00,0.0011
2242.00,0.0011
2239.00,0.0010
2236.00,0.0011
2233.00,0.0009
2230.00,0.0009
2227.00,0.0008
2224.00,0.0008
2221.00,0.0009
2218.00,0.0008
2215.00,0.0009
2212.00,0.0007
2209.00,0.0006
2206.00,0.0007
2203.00,0.0008
2200.00,0.0009
2197.00,0.0010
2194.00,0.0008
2191.00,0.0009
2188.00,0.0011
2185.00,0.0008
2182.00,0.0004
2179.00,0.0007
2176.00,0.0006
2173.00,0.0007
2170.00,0.0014
2167.00,0.0017
2164.00,0.0016
2161.00,0.0005
2158.00,-0.0015
2155.00,-0.0007
2152.00,-0.0001
2149.00,0.0000
2146.00,-0.0003
2143.00,-0.0002
2140.00,-0.0003
2137.00,-0.0003
2134.00,-0.0005
2131.00,-0.0004
2128.00,-0.0001
2125.00,0.0002
2122.00,0.0002
2119.00,0.0004
2116.00,0.0006
2113.00,0.0008
2110.00,0.0008
2107.00,0.0006
2104.00,0.0006
2101.00,0.0006
2098.00,0.0005
2095.00,0.0004
2092.00,0.0004
2089.00,0.0005
2086.00,0.0006
2083.00,0.0007
2080.00,0.0007
2077.00,0.0007
2074.00,0.0008
2071.00,0.0009
2068.00,0.0007
2065.00,0.0006
2062.00,0.0005
2059.00,0.0007
2056.00,0.0008
2053.00,0.0011
2050.00,0.0014
2047.00,0.0007
2044.00,0.0007
2041.00,0.0008
2038.00,0.0010
2035.00,0.0007
2032.00,0.0005
2029.00,-0.0000
2026.00,-0.0000
2023.00,-0.0000
2020.00,-0.0003
2017.00,-0.0001
2014.00,-0.0000
2011.00,0.0002
2008.00,0.0001
2005.00,-0.0001
2002.00,0.0001
1999.00,0.0001
1996.00,0.0003
1993.00,0.0007
1990.00,0.0010
1987.00,0.0010
1984.00,0.0011
1981.00,0.0016
1978.00,0.0004
1975.00,-0.0001
1972.00,0.0001
1969.00,0.0003
1966.00,0.0007
1963.00,0.0007
1960.00,0.0005
1957.00,0.0006
1954.00,0.0008
1951.00,0.0009
1948.00,0.0011
1945.00,0.0016
1942.00,0.0018
1939.00,0.0016
1936.00,0.0014
1933.00,0.0010
1930.00,0.0008
1927.00,0.0006
1924.00,0.0005
1921.00,0.0008
1918.00,0.0008
1915.00,0.0006
1912.00,0.0006
1909.00,0.0006
1906.00,0.0005
1903.00,0.0005
1900.00,0.0006
1897.00,0.0008
1894.00,0.0008
1891.00,0.0009
1888.00,0.0010
1885.00,0.0012
1882.00,0.0014
1879.00,0.0013
1876.00,0.0015
1873.00,0.0016
1870.00,0.0017
1867.00,0.0016
1864.00,0.0014
1861.00,0.0012
1858.00,0.0010
1855.00,0.0008
1852.00,0.0006
1849.00,0.0006
1846.00,0.0008
1843.00,0.0008
1840.00,0.0007
1837.00,0.0007
1834.00,0.0007
1831.00,0.0007
1828.00,0.0009
1825.00,0.0010
1822.00,0.0011
1819.00,0.0010
1816.00,0.0011
1813.00,0.0014
1810.00,0.0015
1807.00,0.0017
1804.00,0.0018
1801.00,0.0020
1798.00,0.0020
1795.00,0.0018
1792.00,0.0016
1789.00,0.0014
1786.00,0.0012
1783.00,0.0011
1780.00,0.0011
1777.00,0.0011
1774.00,0.0011
1771.00,0.0012
1768.00,0.0013
1765.00,0.0012
1762.00,0.0011
1759.00,0.0014
1756.00,0.0017
1753.00,0.0021
1750.00,0.0025
1747.00,0.0025
1744.00,0.0024
1741.00,0.0024
1738.00,0.0024
1735.00,0.0028
1732.00,0.0026
1729.00,0.0023
1726.00,0.0021
1723.00,0.0022
1720.00,0.0022
1717.00,0.0023
1714.00,0.0023
1711.00,0.0021
1708.00,0.0021
1705.00,0.0020
1702.00,0.0024
1699.00,0.0026
1696.00,0.0025
1693.00,0.0024
1690.00,0.0026
1687.00,0.0027
1684.00,0.0028
1681.00,0.0030
1678.00,0.0031
1675.00,0.0034
1672.00,0.0036
1669.00,0.0037
1666.00,0.0037
1663.00,0.0038
1660.00,0.0039
1657.00,0.0038
1654.00,0.0038
1651.00,0.0038
1648.00,0.0038
1645.00,0.0037
1642.00,0.0035
1639.00,0.0034
1636.00,0.0035
1633.00,0.0033
1630.00,0.0032
1627.00,0.0031
1624.00,0.0031
1621.00,0.0031
1618.00,0.0031
1615.00,0.0033
1612.00,0.0037
1609.00,0.0049
1606.00,0.0074
1603.00,0.0108
1600.00,0.0116
1597.00,0.0088
1594.00,0.0061
1591.00,0.0047
1588.00,0.0043
1585.00,0.0051
1582.00,0.0054
1579.00,0.0039
1576.00,0.0028
1573.00,0.0024
1570.00,0.0023
1567.00,0.0024
1564.00,0.0022
1561.00,0.0021
1558.00,0.0027
1555.00,0.0026
1552.00,0.0027
1549.00,0.0029
1546.00,0.0032
1543.00,0.0033
1540.00,0.0033
1537.00,0.0031
1534.00,0.0030
1531.00,0.0027
1528.00,0.0027
1525.00,0.0028
1522.00,0.0029
1519.00,0.0029
1516.00,0.0032
1513.00,0.0033
1510.00,0.0034
1507.00,0.0038
1504.00,0.0039
1501.00,0.0049
1498.00,0.0088
1495.00,0.0203
1492.00,0.0275
1489.00,0.0172
1486.00,0.0088
1483.00,0.0055
1480.00,0.0039
1477.00,0.0032
1474.00,0.0027
1471.00,0.0029
1468.00,0.0033
1465.00,0.0033
1462.00,0.0038
1459.00,0.0059
1456.00,0.0153
1453.00,0.0258
1450.00,0.0265
1447.00,0.0203
1444.00,0.0161
1441.00,0.0128
1438.00,0.0107
1435.00,0.0080
1432.00,0.0065
1429.00,0.0053
1426.00,0.0046
1423.00,0.0043
1420.00,0.0039
1417.00,0.0034
1414.00,0.0027
1411.00,0.0021
1408.00,0.0016
1405.00,0.0011
1402.00,0.0003
1399.00,-0.0004
1396.00,-0.0010
1393.00,-0.0014
1390.00,-0.0010
1387.00,-0.0004
1384.00,-0.0001
1381.00,0.0004
1378.00,0.0016
1375.00,0.0028
1372.00,0.0036
1369.00,0.0043
1366.00,0.0047
1363.00,0.0049
1360.00,0.0050
1357.00,0.0048
1354.00,0.0049
1351.00,0.0050
1348.00,0.0051
1345.00,0.0051
1342.00,0.0051
1339.00,0.0052
1336.00,0.0054
1333.00,0.0058
1330.00,0.0062
1327.00,0.0064
1324.00,0.0064
1321.00,0.0065
1318.00,0.0068
1315.00,0.0070
1312.00,0.0071
1309.00,0.0069
1306.00,0.0065
1303.00,0.0062
1300.00,0.0059
1297.00,0.0057
1294.00,0.0058
1291.00,0.0057
1288.00,0.0054
1285.00,0.0052
1282.00,0.0051
1279.00,0.0048
1276.00,0.0044
1273.00,0.0037
1270.00,0.0030
1267.00,0.0025
1264.00,0.0020
1261.00,0.0019
1258.00,0.0016
1255.00,0.0013
1252.00,0.0011
1249.00,0.0014
1246.00,0.0018
1243.00,0.0020
1240.00,0.0019
1237.00,0.0020
1234.00,0.0023
1231.00,0.0027
1228.00,0.0030
1225.00,0.0034
1222.00,0.0036
1219.00,0.0038
1216.00,0.0040
1213.00,0.0042
1210.00,0.0045
1207.00,0.0048
1204.00,0.0052
1201.00,0.0055
1198.00,0.0055
1195.00,0.0054
1192.00,0.0051
1189.00,0.0049
1186.00,0.0050
1183.00,0.0054
1180.00,0.0051
1177.00,0.0037
1174.00,0.0026
1171.00,0.0020
1168.00,0.0018
1165.00,0.0017
1162.00,0.0020
1159.00,0.0026
1156.00,0.0035
1153.00,0.0034
1150.00,0.0019
1147.00,0.0011
1144.00,0.0009
1141.00,0.0009
1138.00,0.0009
1135.00,0.0013
1132.00,0.0016
1129.00,0.0021
1126.00,0.0027
1123.00,0.0033
1120.00,0.0039
1117.00,0.0048
1114.00,0.0057
1111.00,0.0063
1108.00,0.0064
1105.00,0.0064
1102.00,0.0064
1099.00,0.0062
1096.00,0.0060
1093.00,0.0057
1090.00,0.0056
1087.00,0.0056
1084.00,0.0061
1081.00,0.0067
1078.00,0.0075
1075.00,0.0084
1072.00,0.0096
1069.00,0.0106
1066.00,0.0110
1063.00,0.0109
1060.00,0.0106
1057.00,0.0106
1054.00,0.0107
1051.00,0.0107
1048.00,0.0107
1045.00,0.0108
1042.00,0.0109
1039.00,0.0116
1036.00,0.0137
1033.00,0.0176
1030.00,0.0218
1027.00,0.0227
1024.00,0.0199
1021.00,0.0172
1018.00,0.0153
1015.00,0.0141
1012.00,0.0133
1009.00,0.0130
1006.00,0.0132
1003.00,0.0134
1000.00,0.0125
997.00,0.0115
994.00,0.0111
991.00,0.0110
988.00,0.0111
985.00,0.0114
982.00,0.0115
979.00,0.0107
976.00,0.0092
973.00,0.0076
970.00,0.0068
967.00,0.0065
964.00,0.0066
961.00,0.0059
958.00,0.0042
955.00,0.0033
952.00,0.0030
949.00,0.0035
946.00,0.0039
943.00,0.0042
940.00,0.0043
937.00,0.0043
934.00,0.0046
931.00,0.0047
928.00,0.0051
925.00,0.0055
922.00,0.0061
919.00,0.0068
916.00,0.0079
913.00,0.0097
910.00,0.0120
907.00,0.0134
904.00,0.0129
901.00,0.0108
898.00,0.0087
895.00,0.0073
892.00,0.0067
889.00,0.0062
886.00,0.0058
883.00,0.0055
880.00,0.0054
877.00,0.0054
874.00,0.0053
871.00,0.0050
868.00,0.0050
865.00,0.0049
862.00,0.0048
859.00,0.0048
856.00,0.0050
853.00,0.0051
850.00,0.0057
847.00,0.0066
844.00,0.0073
841.00,0.0074
838.00,0.0068
835.00,0.0056
832.00,0.0045
829.00,0.0040
826.00,0.0039
823.00,0.0040
820.00,0.0039
817.00,0.0038
814.00,0.0039
811.00,0.0040
808.00,0.0043
805.00,0.0044
802.00,0.0047
799.00,0.0051
796.00,0.0056
793.00,0.0062
790.00,0.0073
787.00,0.0084
784.00,0.0097
781.00,0.0112
778.00,0.0137
775.00,0.0171
772.00,0.0214
769.00,0.0266
766.00,0.0316
763.00,0.0369
760.00,0.0423
757.00,0.0464
754.00,0.0476
751.00,0.0472
748.00,0.0467
745.00,0.0432
742.00,0.0350
739.00,0.0267
736.00,0.0201
733.00,0.0145
730.00,0.0108
727.00,0.0091
724.00,0.0086
721.00,0.0087
718.00,0.0092
715.00,0.0104
712.00,0.0137
709.00,0.0218
706.00,0.0384
703.00,0.0642
700.00,0.0959
697.00,0.1259
694.00,0.1343
691.00,0.1035
688.00,0.0689
685.00,0.0493
682.00,0.0388
679.00,0.0321
676.00,0.0277
673.00,0.0252
670.00,0.0235
667.00,0.0210
664.00,0.0197
661.00,0.0179
658.00,0.0162
655.00,0.0146
652.00,0.0136
649.00,0.0128
646.00,0.0120
643.00,0.0117
640.00,0.0117
637.00,0.0120
634.00,0.0127
631.00,0.0133
628.00,0.0137
625.00,0.0143
622.00,0.0149
619.00,0.0152
616.00,0.0144
613.00,0.0138
610.00,0.0133
607.00,0.0131
604.00,0.0132
601.00,0.0134
598.00,0.0137
595.00,0.0140
592.00,0.0145
589.00,0.0148
586.00,0.0154
583.00,0.0160
580.00,0.0172
577.00,0.0188
574.00,0.0206
571.00,0.0228
568.00,0.0248
565.00,0.0268
562.00,0.0289
559.00,0.0311
556.00,0.0330
553.00,0.0352
550.00,0.0379
547.00,0.0415
544.00,0.0460
541.00,0.0507
538.00,0.0535
535.00,0.0509
532.00,0.0448
529.00,0.0377
526.00,0.0321
523.00,0.0275
520.00,0.0245
517.00,0.0226
514.00,0.0208
511.00,0.0193
508.00,0.0181
505.00,0.0170
502.00,0.0163
499.00,0.0151
496.00,0.0143
493.00,0.0137
490.00,0.0136
487.00,0.0132
484.00,0.0129
481.00,0.0128
478.00,0.0119
475.00,0.0119
472.00,0.0126
469.00,0.0120
466.00,0.0119
463.00,0.0111
460.00,0.0113
457.00,0.0115
454.00,0.0112
451.00,0.0107
448.00,0.0112
445.00,0.0114
442.00,0.0112
439.00,0.0114
436.00,0.0109
433.00,0.0101
430.00,0.0095
427.00,0.0092
424.00,0.0091
421.00,0.0101
418.00,0.0110
415.00,0.0086
412.00,0.0074
409.00,0.0084
406.00,0.0083
403.00,0.0098
400.00,0.0091