File: FTIR/Mary/Jul1/2025_07_01_Polystyrene_Std_MEL_scan3.csv
Created as New Dataset,Sample 753 By YargerLab Date Tuesday, July 01 2025
cm-1,A
4000.00,0.0008
3997.00,0.0008
3994.00,0.0008
3991.00,0.0009
3988.00,0.0008
3985.00,0.0008
3982.00,0.0008
3979.00,0.0008
3976.00,0.0009
3973.00,0.0009
3970.00,0.0009
3967.00,0.0009
3964.00,0.0009
3961.00,0.0009
3958.00,0.0009
3955.00,0.0008
3952.00,0.0008
3949.00,0.0011
3946.00,0.0011
3943.00,0.0009
3940.00,0.0009
3937.00,0.0009
3934.00,0.0011
3931.00,0.0011
3928.00,0.0009
3925.00,0.0008
3922.00,0.0010
3919.00,0.0012
3916.00,0.0011
3913.00,0.0009
3910.00,0.0008
3907.00,0.0008
3904.00,0.0013
3901.00,0.0016
3898.00,0.0012
3895.00,0.0011
3892.00,0.0009
3889.00,0.0011
3886.00,0.0013
3883.00,0.0012
3880.00,0.0012
3877.00,0.0012
3874.00,0.0010
3871.00,0.0013
3868.00,0.0013
3865.00,0.0013
3862.00,0.0013
3859.00,0.0012
3856.00,0.0008
3853.00,0.0010
3850.00,0.0012
3847.00,0.0012
3844.00,0.0012
3841.00,0.0012
3838.00,0.0011
3835.00,0.0011
3832.00,0.0012
3829.00,0.0012
3826.00,0.0011
3823.00,0.0013
3820.00,0.0011
3817.00,0.0012
3814.00,0.0009
3811.00,0.0009
3808.00,0.0011
3805.00,0.0011
3802.00,0.0011
3799.00,0.0010
3796.00,0.0011
3793.00,0.0009
3790.00,0.0008
3787.00,0.0009
3784.00,0.0009
3781.00,0.0009
3778.00,0.0009
3775.00,0.0010
3772.00,0.0010
3769.00,0.0011
3766.00,0.0012
3763.00,0.0012
3760.00,0.0012
3757.00,0.0013
3754.00,0.0015
3751.00,0.0018
3748.00,0.0019
3745.00,0.0020
3742.00,0.0017
3739.00,0.0020
3736.00,0.0020
3733.00,0.0019
3730.00,0.0016
3727.00,0.0016
3724.00,0.0015
3721.00,0.0014
3718.00,0.0012
3715.00,0.0012
3712.00,0.0013
3709.00,0.0014
3706.00,0.0012
3703.00,0.0010
3700.00,0.0009
3697.00,0.0009
3694.00,0.0009
3691.00,0.0007
3688.00,0.0009
3685.00,0.0007
3682.00,0.0005
3679.00,0.0002
3676.00,0.0003
3673.00,0.0002
3670.00,-0.0000
3667.00,-0.0004
3664.00,-0.0007
3661.00,-0.0008
3658.00,-0.0007
3655.00,-0.0005
3652.00,-0.0000
3649.00,0.0001
3646.00,0.0002
3643.00,0.0000
3640.00,-0.0001
3637.00,-0.0001
3634.00,0.0004
3631.00,0.0010
3628.00,0.0013
3625.00,0.0013
3622.00,0.0012
3619.00,0.0013
3616.00,0.0016
3613.00,0.0016
3610.00,0.0018
3607.00,0.0016
3604.00,0.0014
3601.00,0.0012
3598.00,0.0013
3595.00,0.0013
3592.00,0.0015
3589.00,0.0017
3586.00,0.0015
3583.00,0.0014
3580.00,0.0012
3577.00,0.0012
3574.00,0.0012
3571.00,0.0015
3568.00,0.0018
3565.00,0.0016
3562.00,0.0015
3559.00,0.0013
3556.00,0.0013
3553.00,0.0013
3550.00,0.0015
3547.00,0.0017
3544.00,0.0016
3541.00,0.0014
3538.00,0.0014
3535.00,0.0014
3532.00,0.0014
3529.00,0.0015
3526.00,0.0017
3523.00,0.0017
3520.00,0.0016
3517.00,0.0015
3514.00,0.0015
3511.00,0.0016
3508.00,0.0016
3505.00,0.0016
3502.00,0.0017
3499.00,0.0016
3496.00,0.0016
3493.00,0.0016
3490.00,0.0016
3487.00,0.0016
3484.00,0.0016
3481.00,0.0017
3478.00,0.0017
3475.00,0.0016
3472.00,0.0017
3469.00,0.0017
3466.00,0.0017
3463.00,0.0017
3460.00,0.0017
3457.00,0.0017
3454.00,0.0017
3451.00,0.0017
3448.00,0.0017
3445.00,0.0018
3442.00,0.0018
3439.00,0.0018
3436.00,0.0018
3433.00,0.0018
3430.00,0.0018
3427.00,0.0018
3424.00,0.0019
3421.00,0.0019
3418.00,0.0019
3415.00,0.0019
3412.00,0.0020
3409.00,0.0019
3406.00,0.0019
3403.00,0.0019
3400.00,0.0020
3397.00,0.0020
3394.00,0.0021
3391.00,0.0021
3388.00,0.0020
3385.00,0.0020
3382.00,0.0020
3379.00,0.0020
3376.00,0.0021
3373.00,0.0021
3370.00,0.0021
3367.00,0.0021
3364.00,0.0021
3361.00,0.0022
3358.00,0.0021
3355.00,0.0022
3352.00,0.0023
3349.00,0.0022
3346.00,0.0022
3343.00,0.0022
3340.00,0.0022
3337.00,0.0023
3334.00,0.0022
3331.00,0.0022
3328.00,0.0023
3325.00,0.0022
3322.00,0.0022
3319.00,0.0022
3316.00,0.0022
3313.00,0.0023
3310.00,0.0023
3307.00,0.0023
3304.00,0.0023
3301.00,0.0022
3298.00,0.0022
3295.00,0.0023
3292.00,0.0023
3289.00,0.0023
3286.00,0.0023
3283.00,0.0022
3280.00,0.0022
3277.00,0.0022
3274.00,0.0022
3271.00,0.0022
3268.00,0.0021
3265.00,0.0021
3262.00,0.0021
3259.00,0.0021
3256.00,0.0021
3253.00,0.0020
3250.00,0.0020
3247.00,0.0020
3244.00,0.0019
3241.00,0.0019
3238.00,0.0019
3235.00,0.0019
3232.00,0.0018
3229.00,0.0018
3226.00,0.0017
3223.00,0.0017
3220.00,0.0018
3217.00,0.0018
3214.00,0.0018
3211.00,0.0017
3208.00,0.0017
3205.00,0.0017
3202.00,0.0017
3199.00,0.0016
3196.00,0.0016
3193.00,0.0016
3190.00,0.0016
3187.00,0.0016
3184.00,0.0016
3181.00,0.0015
3178.00,0.0015
3175.00,0.0015
3172.00,0.0015
3169.00,0.0015
3166.00,0.0016
3163.00,0.0017
3160.00,0.0016
3157.00,0.0016
3154.00,0.0017
3151.00,0.0016
3148.00,0.0015
3145.00,0.0015
3142.00,0.0016
3139.00,0.0016
3136.00,0.0015
3133.00,0.0015
3130.00,0.0015
3127.00,0.0015
3124.00,0.0016
3121.00,0.0017
3118.00,0.0018
3115.00,0.0018
3112.00,0.0020
3109.00,0.0023
3106.00,0.0027
3103.00,0.0029
3100.00,0.0029
3097.00,0.0028
3094.00,0.0028
3091.00,0.0034
3088.00,0.0043
3085.00,0.0054
3082.00,0.0061
3079.00,0.0057
3076.00,0.0049
3073.00,0.0046
3070.00,0.0048
3067.00,0.0057
3064.00,0.0069
3061.00,0.0079
3058.00,0.0079
3055.00,0.0069
3052.00,0.0057
3049.00,0.0048
3046.00,0.0044
3043.00,0.0044
3040.00,0.0049
3037.00,0.0059
3034.00,0.0077
3031.00,0.0104
3028.00,0.0134
3025.00,0.0148
3022.00,0.0130
3019.00,0.0091
3016.00,0.0057
3013.00,0.0033
3010.00,0.0016
3007.00,0.0003
3004.00,-0.0009
3001.00,-0.0022
2998.00,-0.0040
2995.00,-0.0057
2992.00,-0.0071
2989.00,-0.0081
2986.00,-0.0096
2983.00,-0.0138
2980.00,-0.0150
2977.00,-0.0125
2974.00,-0.0116
2971.00,-0.0117
2968.00,-0.0097
2965.00,-0.0080
2962.00,-0.0066
2959.00,-0.0054
2956.00,-0.0042
2953.00,-0.0028
2950.00,-0.0013
2947.00,0.0003
2944.00,0.0021
2941.00,0.0037
2938.00,0.0053
2935.00,0.0070
2932.00,0.0086
2929.00,0.0104
2926.00,0.0118
2923.00,0.0126
2920.00,0.0127
2917.00,0.0122
2914.00,0.0112
2911.00,0.0101
2908.00,0.0087
2905.00,0.0072
2902.00,0.0058
2899.00,0.0045
2896.00,0.0032
2893.00,0.0020
2890.00,0.0011
2887.00,0.0007
2884.00,0.0004
2881.00,0.0006
2878.00,0.0010
2875.00,0.0011
2872.00,0.0011
2869.00,0.0013
2866.00,0.0018
2863.00,0.0024
2860.00,0.0032
2857.00,0.0042
2854.00,0.0051
2851.00,0.0058
2848.00,0.0062
2845.00,0.0060
2842.00,0.0051
2839.00,0.0039
2836.00,0.0029
2833.00,0.0022
2830.00,0.0018
2827.00,0.0016
2824.00,0.0015
2821.00,0.0014
2818.00,0.0014
2815.00,0.0014
2812.00,0.0014
2809.00,0.0013
2806.00,0.0013
2803.00,0.0013
2800.00,0.0013
2797.00,0.0013
2794.00,0.0012
2791.00,0.0012
2788.00,0.0012
2785.00,0.0012
2782.00,0.0012
2779.00,0.0012
2776.00,0.0013
2773.00,0.0012
2770.00,0.0011
2767.00,0.0011
2764.00,0.0011
2761.00,0.0011
2758.00,0.0012
2755.00,0.0012
2752.00,0.0012
2749.00,0.0011
2746.00,0.0012
2743.00,0.0012
2740.00,0.0012
2737.00,0.0012
2734.00,0.0012
2731.00,0.0012
2728.00,0.0012
2725.00,0.0012
2722.00,0.0012
2719.00,0.0012
2716.00,0.0012
2713.00,0.0013
2710.00,0.0012
2707.00,0.0013
2704.00,0.0013
2701.00,0.0013
2698.00,0.0013
2695.00,0.0012
2692.00,0.0012
2689.00,0.0012
2686.00,0.0012
2683.00,0.0012
2680.00,0.0012
2677.00,0.0012
2674.00,0.0011
2671.00,0.0011
2668.00,0.0011
2665.00,0.0012
2662.00,0.0013
2659.00,0.0014
2656.00,0.0014
2653.00,0.0014
2650.00,0.0014
2647.00,0.0014
2644.00,0.0015
2641.00,0.0015
2638.00,0.0015
2635.00,0.0016
2632.00,0.0015
2629.00,0.0015
2626.00,0.0015
2623.00,0.0015
2620.00,0.0014
2617.00,0.0014
2614.00,0.0015
2611.00,0.0014
2608.00,0.0014
2605.00,0.0015
2602.00,0.0015
2599.00,0.0015
2596.00,0.0014
2593.00,0.0013
2590.00,0.0014
2587.00,0.0014
2584.00,0.0014
2581.00,0.0014
2578.00,0.0014
2575.00,0.0014
2572.00,0.0012
2569.00,0.0013
2566.00,0.0013
2563.00,0.0013
2560.00,0.0013
2557.00,0.0012
2554.00,0.0012
2551.00,0.0012
2548.00,0.0012
2545.00,0.0013
2542.00,0.0012
2539.00,0.0012
2536.00,0.0012
2533.00,0.0012
2530.00,0.0012
2527.00,0.0012
2524.00,0.0011
2521.00,0.0012
2518.00,0.0011
2515.00,0.0011
2512.00,0.0011
2509.00,0.0011
2506.00,0.0011
2503.00,0.0012
2500.00,0.0011
2497.00,0.0011
2494.00,0.0012
2491.00,0.0011
2488.00,0.0011
2485.00,0.0011
2482.00,0.0011
2479.00,0.0011
2476.00,0.0011
2473.00,0.0011
2470.00,0.0011
2467.00,0.0010
2464.00,0.0010
2461.00,0.0011
2458.00,0.0012
2455.00,0.0012
2452.00,0.0012
2449.00,0.0011
2446.00,0.0010
2443.00,0.0011
2440.00,0.0010
2437.00,0.0010
2434.00,0.0010
2431.00,0.0010
2428.00,0.0010
2425.00,0.0009
2422.00,0.0009
2419.00,0.0008
2416.00,0.0009
2413.00,0.0009
2410.00,0.0009
2407.00,0.0008
2404.00,0.0008
2401.00,0.0009
2398.00,0.0008
2395.00,0.0008
2392.00,0.0008
2389.00,0.0008
2386.00,0.0007
2383.00,0.0007
2380.00,0.0006
2377.00,0.0006
2374.00,0.0007
2371.00,0.0006
2368.00,0.0007
2365.00,0.0008
2362.00,0.0008
2359.00,0.0008
2356.00,0.0008
2353.00,0.0009
2350.00,0.0009
2347.00,0.0010
2344.00,0.0010
2341.00,0.0011
2338.00,0.0011
2335.00,0.0011
2332.00,0.0010
2329.00,0.0012
2326.00,0.0019
2323.00,0.0017
2320.00,0.0016
2317.00,0.0017
2314.00,0.0016
2311.00,0.0015
2308.00,0.0015
2305.00,0.0015
2302.00,0.0014
2299.00,0.0014
2296.00,0.0015
2293.00,0.0017
2290.00,0.0019
2287.00,0.0019
2284.00,0.0017
2281.00,0.0016
2278.00,0.0015
2275.00,0.0016
2272.00,0.0015
2269.00,0.0014
2266.00,0.0014
2263.00,0.0014
2260.00,0.0015
2257.00,0.0014
2254.00,0.0012
2251.00,0.0012
2248.00,0.0014
2245.00,0.0014
2242.00,0.0014
2239.00,0.0013
2236.00,0.0013
2233.00,0.0014
2230.00,0.0013
2227.00,0.0011
2224.00,0.0011
2221.00,0.0011
2218.00,0.0011
2215.00,0.0011
2212.00,0.0009
2209.00,0.0011
2206.00,0.0012
2203.00,0.0011
2200.00,0.0011
2197.00,0.0013
2194.00,0.0013
2191.00,0.0012
2188.00,0.0012
2185.00,0.0010
2182.00,0.0007
2179.00,0.0008
2176.00,0.0005
2173.00,0.0008
2170.00,0.0015
2167.00,0.0019
2164.00,0.0019
2161.00,0.0010
2158.00,-0.0012
2155.00,-0.0007
2152.00,-0.0004
2149.00,-0.0003
2146.00,-0.0004
2143.00,-0.0001
2140.00,0.0000
2137.00,-0.0002
2134.00,-0.0006
2131.00,-0.0002
2128.00,0.0001
2125.00,0.0003
2122.00,0.0005
2119.00,0.0007
2116.00,0.0009
2113.00,0.0010
2110.00,0.0008
2107.00,0.0009
2104.00,0.0008
2101.00,0.0008
2098.00,0.0006
2095.00,0.0004
2092.00,0.0006
2089.00,0.0007
2086.00,0.0009
2083.00,0.0009
2080.00,0.0010
2077.00,0.0009
2074.00,0.0011
2071.00,0.0010
2068.00,0.0008
2065.00,0.0007
2062.00,0.0007
2059.00,0.0008
2056.00,0.0010
2053.00,0.0011
2050.00,0.0013
2047.00,0.0008
2044.00,0.0009
2041.00,0.0008
2038.00,0.0011
2035.00,0.0010
2032.00,0.0008
2029.00,0.0008
2026.00,0.0005
2023.00,0.0005
2020.00,0.0005
2017.00,0.0006
2014.00,0.0004
2011.00,0.0005
2008.00,0.0002
2005.00,0.0001
2002.00,0.0004
1999.00,0.0007
1996.00,0.0008
1993.00,0.0011
1990.00,0.0014
1987.00,0.0014
1984.00,0.0014
1981.00,0.0019
1978.00,0.0009
1975.00,0.0003
1972.00,0.0004
1969.00,0.0008
1966.00,0.0010
1963.00,0.0010
1960.00,0.0011
1957.00,0.0013
1954.00,0.0015
1951.00,0.0016
1948.00,0.0019
1945.00,0.0024
1942.00,0.0026
1939.00,0.0024
1936.00,0.0019
1933.00,0.0015
1930.00,0.0011
1927.00,0.0009
1924.00,0.0008
1921.00,0.0010
1918.00,0.0011
1915.00,0.0008
1912.00,0.0008
1909.00,0.0007
1906.00,0.0008
1903.00,0.0007
1900.00,0.0008
1897.00,0.0009
1894.00,0.0011
1891.00,0.0013
1888.00,0.0015
1885.00,0.0017
1882.00,0.0018
1879.00,0.0020
1876.00,0.0020
1873.00,0.0022
1870.00,0.0023
1867.00,0.0022
1864.00,0.0020
1861.00,0.0017
1858.00,0.0014
1855.00,0.0012
1852.00,0.0010
1849.00,0.0009
1846.00,0.0010
1843.00,0.0011
1840.00,0.0009
1837.00,0.0008
1834.00,0.0009
1831.00,0.0009
1828.00,0.0010
1825.00,0.0013
1822.00,0.0015
1819.00,0.0015
1816.00,0.0016
1813.00,0.0019
1810.00,0.0021
1807.00,0.0023
1804.00,0.0025
1801.00,0.0027
1798.00,0.0026
1795.00,0.0024
1792.00,0.0020
1789.00,0.0017
1786.00,0.0015
1783.00,0.0014
1780.00,0.0014
1777.00,0.0014
1774.00,0.0014
1771.00,0.0015
1768.00,0.0016
1765.00,0.0015
1762.00,0.0015
1759.00,0.0018
1756.00,0.0021
1753.00,0.0027
1750.00,0.0031
1747.00,0.0031
1744.00,0.0031
1741.00,0.0031
1738.00,0.0032
1735.00,0.0035
1732.00,0.0032
1729.00,0.0028
1726.00,0.0026
1723.00,0.0025
1720.00,0.0024
1717.00,0.0025
1714.00,0.0024
1711.00,0.0022
1708.00,0.0022
1705.00,0.0020
1702.00,0.0024
1699.00,0.0027
1696.00,0.0025
1693.00,0.0025
1690.00,0.0025
1687.00,0.0026
1684.00,0.0027
1681.00,0.0028
1678.00,0.0029
1675.00,0.0032
1672.00,0.0033
1669.00,0.0032
1666.00,0.0031
1663.00,0.0032
1660.00,0.0033
1657.00,0.0032
1654.00,0.0031
1651.00,0.0031
1648.00,0.0032
1645.00,0.0032
1642.00,0.0031
1639.00,0.0031
1636.00,0.0031
1633.00,0.0030
1630.00,0.0029
1627.00,0.0029
1624.00,0.0030
1621.00,0.0030
1618.00,0.0031
1615.00,0.0034
1612.00,0.0041
1609.00,0.0057
1606.00,0.0093
1603.00,0.0141
1600.00,0.0152
1597.00,0.0112
1594.00,0.0075
1591.00,0.0057
1588.00,0.0051
1585.00,0.0064
1582.00,0.0068
1579.00,0.0048
1576.00,0.0033
1573.00,0.0029
1570.00,0.0027
1567.00,0.0027
1564.00,0.0026
1561.00,0.0025
1558.00,0.0031
1555.00,0.0031
1552.00,0.0034
1549.00,0.0036
1546.00,0.0039
1543.00,0.0040
1540.00,0.0039
1537.00,0.0037
1534.00,0.0035
1531.00,0.0031
1528.00,0.0030
1525.00,0.0030
1522.00,0.0030
1519.00,0.0029
1516.00,0.0031
1513.00,0.0032
1510.00,0.0033
1507.00,0.0036
1504.00,0.0041
1501.00,0.0056
1498.00,0.0112
1495.00,0.0276
1492.00,0.0371
1489.00,0.0225
1486.00,0.0112
1483.00,0.0067
1480.00,0.0045
1477.00,0.0035
1474.00,0.0028
1471.00,0.0029
1468.00,0.0032
1465.00,0.0032
1462.00,0.0039
1459.00,0.0067
1456.00,0.0199
1453.00,0.0343
1450.00,0.0346
1447.00,0.0260
1444.00,0.0202
1441.00,0.0155
1438.00,0.0124
1435.00,0.0086
1432.00,0.0065
1429.00,0.0048
1426.00,0.0040
1423.00,0.0035
1420.00,0.0033
1417.00,0.0028
1414.00,0.0022
1411.00,0.0017
1408.00,0.0012
1405.00,0.0006
1402.00,-0.0001
1399.00,-0.0008
1396.00,-0.0015
1393.00,-0.0018
1390.00,-0.0012
1387.00,-0.0006
1384.00,-0.0002
1381.00,0.0005
1378.00,0.0018
1375.00,0.0031
1372.00,0.0039
1369.00,0.0047
1366.00,0.0052
1363.00,0.0053
1360.00,0.0053
1357.00,0.0052
1354.00,0.0052
1351.00,0.0054
1348.00,0.0055
1345.00,0.0054
1342.00,0.0052
1339.00,0.0052
1336.00,0.0054
1333.00,0.0059
1330.00,0.0065
1327.00,0.0067
1324.00,0.0066
1321.00,0.0065
1318.00,0.0067
1315.00,0.0070
1312.00,0.0071
1309.00,0.0070
1306.00,0.0066
1303.00,0.0062
1300.00,0.0058
1297.00,0.0056
1294.00,0.0054
1291.00,0.0053
1288.00,0.0051
1285.00,0.0049
1282.00,0.0047
1279.00,0.0044
1276.00,0.0038
1273.00,0.0030
1270.00,0.0023
1267.00,0.0017
1264.00,0.0013
1261.00,0.0011
1258.00,0.0008
1255.00,0.0006
1252.00,0.0004
1249.00,0.0007
1246.00,0.0011
1243.00,0.0013
1240.00,0.0013
1237.00,0.0014
1234.00,0.0018
1231.00,0.0022
1228.00,0.0026
1225.00,0.0030
1222.00,0.0033
1219.00,0.0035
1216.00,0.0037
1213.00,0.0039
1210.00,0.0042
1207.00,0.0046
1204.00,0.0051
1201.00,0.0054
1198.00,0.0057
1195.00,0.0057
1192.00,0.0055
1189.00,0.0054
1186.00,0.0056
1183.00,0.0063
1180.00,0.0060
1177.00,0.0040
1174.00,0.0023
1171.00,0.0014
1168.00,0.0010
1165.00,0.0006
1162.00,0.0008
1159.00,0.0017
1156.00,0.0031
1153.00,0.0029
1150.00,0.0010
1147.00,-0.0002
1144.00,-0.0005
1141.00,-0.0007
1138.00,-0.0007
1135.00,-0.0004
1132.00,-0.0001
1129.00,0.0003
1126.00,0.0008
1123.00,0.0014
1120.00,0.0020
1117.00,0.0028
1114.00,0.0036
1111.00,0.0040
1108.00,0.0040
1105.00,0.0040
1102.00,0.0038
1099.00,0.0037
1096.00,0.0036
1093.00,0.0034
1090.00,0.0032
1087.00,0.0034
1084.00,0.0040
1081.00,0.0048
1078.00,0.0057
1075.00,0.0068
1072.00,0.0082
1069.00,0.0095
1066.00,0.0096
1063.00,0.0088
1060.00,0.0078
1057.00,0.0074
1054.00,0.0073
1051.00,0.0072
1048.00,0.0071
1045.00,0.0072
1042.00,0.0073
1039.00,0.0081
1036.00,0.0107
1033.00,0.0159
1030.00,0.0213
1027.00,0.0225
1024.00,0.0187
1021.00,0.0151
1018.00,0.0127
1015.00,0.0113
1012.00,0.0104
1009.00,0.0099
1006.00,0.0102
1003.00,0.0106
1000.00,0.0095
997.00,0.0082
994.00,0.0078
991.00,0.0077
988.00,0.0080
985.00,0.0084
982.00,0.0088
979.00,0.0082
976.00,0.0068
973.00,0.0053
970.00,0.0046
967.00,0.0047
964.00,0.0051
961.00,0.0043
958.00,0.0025
955.00,0.0015
952.00,0.0014
949.00,0.0020
946.00,0.0025
943.00,0.0030
940.00,0.0032
937.00,0.0032
934.00,0.0033
931.00,0.0035
928.00,0.0040
925.00,0.0046
922.00,0.0053
919.00,0.0061
916.00,0.0076
913.00,0.0100
910.00,0.0129
907.00,0.0148
904.00,0.0140
901.00,0.0112
898.00,0.0083
895.00,0.0065
892.00,0.0057
889.00,0.0052
886.00,0.0047
883.00,0.0044
880.00,0.0043
877.00,0.0041
874.00,0.0040
871.00,0.0039
868.00,0.0038
865.00,0.0038
862.00,0.0038
859.00,0.0039
856.00,0.0041
853.00,0.0044
850.00,0.0052
847.00,0.0064
844.00,0.0074
841.00,0.0075
838.00,0.0066
835.00,0.0051
832.00,0.0038
829.00,0.0031
826.00,0.0029
823.00,0.0028
820.00,0.0028
817.00,0.0027
814.00,0.0029
811.00,0.0030
808.00,0.0032
805.00,0.0034
802.00,0.0037
799.00,0.0043
796.00,0.0050
793.00,0.0059
790.00,0.0072
787.00,0.0087
784.00,0.0104
781.00,0.0125
778.00,0.0158
775.00,0.0203
772.00,0.0261
769.00,0.0332
766.00,0.0403
763.00,0.0473
760.00,0.0545
757.00,0.0602
754.00,0.0617
751.00,0.0609
748.00,0.0602
745.00,0.0554
742.00,0.0440
739.00,0.0326
736.00,0.0237
733.00,0.0161
730.00,0.0110
727.00,0.0088
724.00,0.0080
721.00,0.0080
718.00,0.0086
715.00,0.0101
712.00,0.0144
709.00,0.0258
706.00,0.0484
703.00,0.0838
700.00,0.1281
697.00,0.1707
694.00,0.1812
691.00,0.1356
688.00,0.0873
685.00,0.0610
682.00,0.0467
679.00,0.0379
676.00,0.0322
673.00,0.0287
670.00,0.0262
667.00,0.0232
664.00,0.0212
661.00,0.0186
658.00,0.0164
655.00,0.0145
652.00,0.0128
649.00,0.0118
646.00,0.0109
643.00,0.0104
640.00,0.0104
637.00,0.0109
634.00,0.0118
631.00,0.0127
628.00,0.0132
625.00,0.0137
622.00,0.0145
619.00,0.0144
616.00,0.0132
613.00,0.0126
610.00,0.0121
607.00,0.0115
604.00,0.0115
601.00,0.0119
598.00,0.0121
595.00,0.0126
592.00,0.0133
589.00,0.0136
586.00,0.0144
583.00,0.0152
580.00,0.0167
577.00,0.0189
574.00,0.0213
571.00,0.0238
568.00,0.0263
565.00,0.0291
562.00,0.0317
559.00,0.0342
556.00,0.0369
553.00,0.0400
550.00,0.0436
547.00,0.0483
544.00,0.0544
541.00,0.0607
538.00,0.0641
535.00,0.0606
532.00,0.0523
529.00,0.0426
526.00,0.0351
523.00,0.0292
520.00,0.0255
517.00,0.0228
514.00,0.0208
511.00,0.0191
508.00,0.0173
505.00,0.0160
502.00,0.0147
499.00,0.0134
496.00,0.0124
493.00,0.0117
490.00,0.0116
487.00,0.0110
484.00,0.0105
481.00,0.0103
478.00,0.0096
475.00,0.0092
472.00,0.0097
469.00,0.0092
466.00,0.0093
463.00,0.0091
460.00,0.0088
457.00,0.0093
454.00,0.0085
451.00,0.0077
448.00,0.0074
445.00,0.0077
442.00,0.0082
439.00,0.0077
436.00,0.0072
433.00,0.0062
430.00,0.0056
427.00,0.0061
424.00,0.0067
421.00,0.0079
418.00,0.0090
415.00,0.0055
412.00,0.0052
409.00,0.0059
406.00,0.0064
403.00,0.0069
400.00,0.0071