File: FTIR/Mary/Jul1/2025_07_01_Polystyrene_Std_MEL_scan2.csv
Created as New Dataset,Sample 752 By YargerLab Date Sunday, June 29 2025
cm-1,A
4000.00,0.0008
3997.00,0.0008
3994.00,0.0009
3991.00,0.0009
3988.00,0.0008
3985.00,0.0009
3982.00,0.0009
3979.00,0.0009
3976.00,0.0009
3973.00,0.0009
3970.00,0.0009
3967.00,0.0009
3964.00,0.0009
3961.00,0.0009
3958.00,0.0009
3955.00,0.0008
3952.00,0.0009
3949.00,0.0011
3946.00,0.0012
3943.00,0.0010
3940.00,0.0010
3937.00,0.0010
3934.00,0.0012
3931.00,0.0011
3928.00,0.0009
3925.00,0.0008
3922.00,0.0010
3919.00,0.0012
3916.00,0.0011
3913.00,0.0009
3910.00,0.0009
3907.00,0.0009
3904.00,0.0013
3901.00,0.0015
3898.00,0.0012
3895.00,0.0011
3892.00,0.0009
3889.00,0.0011
3886.00,0.0014
3883.00,0.0012
3880.00,0.0012
3877.00,0.0012
3874.00,0.0011
3871.00,0.0014
3868.00,0.0014
3865.00,0.0015
3862.00,0.0013
3859.00,0.0013
3856.00,0.0009
3853.00,0.0011
3850.00,0.0013
3847.00,0.0013
3844.00,0.0012
3841.00,0.0013
3838.00,0.0013
3835.00,0.0012
3832.00,0.0013
3829.00,0.0012
3826.00,0.0011
3823.00,0.0014
3820.00,0.0012
3817.00,0.0014
3814.00,0.0011
3811.00,0.0010
3808.00,0.0011
3805.00,0.0012
3802.00,0.0012
3799.00,0.0012
3796.00,0.0012
3793.00,0.0010
3790.00,0.0009
3787.00,0.0009
3784.00,0.0009
3781.00,0.0010
3778.00,0.0010
3775.00,0.0010
3772.00,0.0010
3769.00,0.0012
3766.00,0.0012
3763.00,0.0012
3760.00,0.0013
3757.00,0.0014
3754.00,0.0016
3751.00,0.0020
3748.00,0.0020
3745.00,0.0021
3742.00,0.0019
3739.00,0.0021
3736.00,0.0021
3733.00,0.0019
3730.00,0.0017
3727.00,0.0017
3724.00,0.0016
3721.00,0.0014
3718.00,0.0012
3715.00,0.0012
3712.00,0.0014
3709.00,0.0014
3706.00,0.0012
3703.00,0.0011
3700.00,0.0010
3697.00,0.0010
3694.00,0.0010
3691.00,0.0009
3688.00,0.0011
3685.00,0.0008
3682.00,0.0006
3679.00,0.0003
3676.00,0.0005
3673.00,0.0003
3670.00,0.0001
3667.00,-0.0003
3664.00,-0.0006
3661.00,-0.0008
3658.00,-0.0006
3655.00,-0.0004
3652.00,0.0000
3649.00,0.0003
3646.00,0.0002
3643.00,0.0000
3640.00,-0.0001
3637.00,-0.0001
3634.00,0.0004
3631.00,0.0011
3628.00,0.0014
3625.00,0.0015
3622.00,0.0013
3619.00,0.0012
3616.00,0.0016
3613.00,0.0017
3610.00,0.0019
3607.00,0.0015
3604.00,0.0014
3601.00,0.0013
3598.00,0.0014
3595.00,0.0014
3592.00,0.0015
3589.00,0.0017
3586.00,0.0015
3583.00,0.0014
3580.00,0.0013
3577.00,0.0012
3574.00,0.0012
3571.00,0.0014
3568.00,0.0018
3565.00,0.0017
3562.00,0.0015
3559.00,0.0013
3556.00,0.0014
3553.00,0.0014
3550.00,0.0015
3547.00,0.0017
3544.00,0.0016
3541.00,0.0014
3538.00,0.0013
3535.00,0.0014
3532.00,0.0014
3529.00,0.0015
3526.00,0.0017
3523.00,0.0016
3520.00,0.0015
3517.00,0.0014
3514.00,0.0015
3511.00,0.0015
3508.00,0.0015
3505.00,0.0016
3502.00,0.0016
3499.00,0.0015
3496.00,0.0015
3493.00,0.0015
3490.00,0.0015
3487.00,0.0015
3484.00,0.0015
3481.00,0.0016
3478.00,0.0016
3475.00,0.0015
3472.00,0.0015
3469.00,0.0016
3466.00,0.0016
3463.00,0.0016
3460.00,0.0016
3457.00,0.0016
3454.00,0.0015
3451.00,0.0015
3448.00,0.0015
3445.00,0.0016
3442.00,0.0016
3439.00,0.0016
3436.00,0.0016
3433.00,0.0016
3430.00,0.0016
3427.00,0.0016
3424.00,0.0016
3421.00,0.0016
3418.00,0.0016
3415.00,0.0017
3412.00,0.0017
3409.00,0.0017
3406.00,0.0017
3403.00,0.0017
3400.00,0.0017
3397.00,0.0017
3394.00,0.0017
3391.00,0.0017
3388.00,0.0017
3385.00,0.0017
3382.00,0.0017
3379.00,0.0017
3376.00,0.0017
3373.00,0.0017
3370.00,0.0017
3367.00,0.0017
3364.00,0.0017
3361.00,0.0017
3358.00,0.0016
3355.00,0.0016
3352.00,0.0017
3349.00,0.0017
3346.00,0.0017
3343.00,0.0017
3340.00,0.0017
3337.00,0.0017
3334.00,0.0017
3331.00,0.0017
3328.00,0.0017
3325.00,0.0017
3322.00,0.0017
3319.00,0.0017
3316.00,0.0017
3313.00,0.0018
3310.00,0.0018
3307.00,0.0019
3304.00,0.0018
3301.00,0.0018
3298.00,0.0018
3295.00,0.0018
3292.00,0.0019
3289.00,0.0019
3286.00,0.0018
3283.00,0.0018
3280.00,0.0018
3277.00,0.0018
3274.00,0.0018
3271.00,0.0017
3268.00,0.0017
3265.00,0.0016
3262.00,0.0016
3259.00,0.0017
3256.00,0.0017
3253.00,0.0017
3250.00,0.0016
3247.00,0.0017
3244.00,0.0016
3241.00,0.0016
3238.00,0.0015
3235.00,0.0015
3232.00,0.0015
3229.00,0.0015
3226.00,0.0014
3223.00,0.0015
3220.00,0.0015
3217.00,0.0015
3214.00,0.0015
3211.00,0.0015
3208.00,0.0015
3205.00,0.0015
3202.00,0.0014
3199.00,0.0014
3196.00,0.0014
3193.00,0.0014
3190.00,0.0014
3187.00,0.0014
3184.00,0.0014
3181.00,0.0014
3178.00,0.0014
3175.00,0.0014
3172.00,0.0013
3169.00,0.0014
3166.00,0.0015
3163.00,0.0015
3160.00,0.0015
3157.00,0.0015
3154.00,0.0015
3151.00,0.0015
3148.00,0.0014
3145.00,0.0015
3142.00,0.0015
3139.00,0.0014
3136.00,0.0014
3133.00,0.0014
3130.00,0.0015
3127.00,0.0014
3124.00,0.0015
3121.00,0.0016
3118.00,0.0017
3115.00,0.0018
3112.00,0.0020
3109.00,0.0024
3106.00,0.0028
3103.00,0.0031
3100.00,0.0031
3097.00,0.0029
3094.00,0.0029
3091.00,0.0036
3088.00,0.0047
3085.00,0.0060
3082.00,0.0067
3079.00,0.0062
3076.00,0.0053
3073.00,0.0050
3070.00,0.0053
3067.00,0.0063
3064.00,0.0077
3061.00,0.0089
3058.00,0.0089
3055.00,0.0076
3052.00,0.0063
3049.00,0.0053
3046.00,0.0048
3043.00,0.0049
3040.00,0.0055
3037.00,0.0066
3034.00,0.0087
3031.00,0.0118
3028.00,0.0152
3025.00,0.0168
3022.00,0.0147
3019.00,0.0103
3016.00,0.0064
3013.00,0.0039
3010.00,0.0021
3007.00,0.0007
3004.00,-0.0004
3001.00,-0.0017
2998.00,-0.0035
2995.00,-0.0054
2992.00,-0.0068
2989.00,-0.0078
2986.00,-0.0094
2983.00,-0.0136
2980.00,-0.0147
2977.00,-0.0123
2974.00,-0.0114
2971.00,-0.0114
2968.00,-0.0095
2965.00,-0.0077
2962.00,-0.0062
2959.00,-0.0050
2956.00,-0.0037
2953.00,-0.0023
2950.00,-0.0007
2947.00,0.0010
2944.00,0.0030
2941.00,0.0048
2938.00,0.0066
2935.00,0.0086
2932.00,0.0105
2929.00,0.0125
2926.00,0.0141
2923.00,0.0150
2920.00,0.0151
2917.00,0.0145
2914.00,0.0134
2911.00,0.0121
2908.00,0.0105
2905.00,0.0089
2902.00,0.0072
2899.00,0.0057
2896.00,0.0043
2893.00,0.0030
2890.00,0.0020
2887.00,0.0015
2884.00,0.0010
2881.00,0.0012
2878.00,0.0016
2875.00,0.0016
2872.00,0.0016
2869.00,0.0018
2866.00,0.0023
2863.00,0.0029
2860.00,0.0039
2857.00,0.0050
2854.00,0.0060
2851.00,0.0068
2848.00,0.0072
2845.00,0.0069
2842.00,0.0058
2839.00,0.0045
2836.00,0.0033
2833.00,0.0024
2830.00,0.0020
2827.00,0.0017
2824.00,0.0016
2821.00,0.0016
2818.00,0.0015
2815.00,0.0015
2812.00,0.0015
2809.00,0.0015
2806.00,0.0015
2803.00,0.0014
2800.00,0.0014
2797.00,0.0014
2794.00,0.0013
2791.00,0.0013
2788.00,0.0013
2785.00,0.0013
2782.00,0.0013
2779.00,0.0013
2776.00,0.0013
2773.00,0.0013
2770.00,0.0012
2767.00,0.0012
2764.00,0.0012
2761.00,0.0012
2758.00,0.0012
2755.00,0.0012
2752.00,0.0012
2749.00,0.0012
2746.00,0.0012
2743.00,0.0012
2740.00,0.0012
2737.00,0.0012
2734.00,0.0012
2731.00,0.0012
2728.00,0.0013
2725.00,0.0013
2722.00,0.0013
2719.00,0.0013
2716.00,0.0013
2713.00,0.0013
2710.00,0.0013
2707.00,0.0013
2704.00,0.0014
2701.00,0.0014
2698.00,0.0014
2695.00,0.0013
2692.00,0.0013
2689.00,0.0013
2686.00,0.0013
2683.00,0.0013
2680.00,0.0013
2677.00,0.0013
2674.00,0.0012
2671.00,0.0012
2668.00,0.0012
2665.00,0.0012
2662.00,0.0014
2659.00,0.0014
2656.00,0.0015
2653.00,0.0015
2650.00,0.0015
2647.00,0.0015
2644.00,0.0015
2641.00,0.0015
2638.00,0.0016
2635.00,0.0016
2632.00,0.0016
2629.00,0.0016
2626.00,0.0015
2623.00,0.0015
2620.00,0.0015
2617.00,0.0015
2614.00,0.0015
2611.00,0.0015
2608.00,0.0015
2605.00,0.0016
2602.00,0.0016
2599.00,0.0015
2596.00,0.0014
2593.00,0.0014
2590.00,0.0014
2587.00,0.0014
2584.00,0.0015
2581.00,0.0015
2578.00,0.0015
2575.00,0.0015
2572.00,0.0013
2569.00,0.0013
2566.00,0.0014
2563.00,0.0014
2560.00,0.0014
2557.00,0.0013
2554.00,0.0013
2551.00,0.0013
2548.00,0.0013
2545.00,0.0013
2542.00,0.0013
2539.00,0.0012
2536.00,0.0012
2533.00,0.0012
2530.00,0.0012
2527.00,0.0012
2524.00,0.0012
2521.00,0.0012
2518.00,0.0012
2515.00,0.0011
2512.00,0.0012
2509.00,0.0012
2506.00,0.0012
2503.00,0.0012
2500.00,0.0011
2497.00,0.0012
2494.00,0.0012
2491.00,0.0012
2488.00,0.0012
2485.00,0.0011
2482.00,0.0011
2479.00,0.0011
2476.00,0.0012
2473.00,0.0011
2470.00,0.0010
2467.00,0.0011
2464.00,0.0011
2461.00,0.0011
2458.00,0.0012
2455.00,0.0012
2452.00,0.0012
2449.00,0.0012
2446.00,0.0011
2443.00,0.0011
2440.00,0.0010
2437.00,0.0010
2434.00,0.0010
2431.00,0.0011
2428.00,0.0010
2425.00,0.0010
2422.00,0.0009
2419.00,0.0009
2416.00,0.0010
2413.00,0.0010
2410.00,0.0010
2407.00,0.0009
2404.00,0.0009
2401.00,0.0009
2398.00,0.0009
2395.00,0.0009
2392.00,0.0010
2389.00,0.0009
2386.00,0.0008
2383.00,0.0008
2380.00,0.0007
2377.00,0.0008
2374.00,0.0008
2371.00,0.0007
2368.00,0.0007
2365.00,0.0009
2362.00,0.0009
2359.00,0.0009
2356.00,0.0010
2353.00,0.0010
2350.00,0.0010
2347.00,0.0012
2344.00,0.0012
2341.00,0.0014
2338.00,0.0013
2335.00,0.0013
2332.00,0.0012
2329.00,0.0014
2326.00,0.0019
2323.00,0.0018
2320.00,0.0016
2317.00,0.0017
2314.00,0.0017
2311.00,0.0015
2308.00,0.0014
2305.00,0.0014
2302.00,0.0014
2299.00,0.0015
2296.00,0.0015
2293.00,0.0017
2290.00,0.0019
2287.00,0.0019
2284.00,0.0017
2281.00,0.0016
2278.00,0.0015
2275.00,0.0015
2272.00,0.0014
2269.00,0.0014
2266.00,0.0015
2263.00,0.0016
2260.00,0.0016
2257.00,0.0014
2254.00,0.0013
2251.00,0.0013
2248.00,0.0014
2245.00,0.0014
2242.00,0.0014
2239.00,0.0013
2236.00,0.0013
2233.00,0.0013
2230.00,0.0013
2227.00,0.0011
2224.00,0.0011
2221.00,0.0011
2218.00,0.0012
2215.00,0.0014
2212.00,0.0011
2209.00,0.0010
2206.00,0.0011
2203.00,0.0011
2200.00,0.0012
2197.00,0.0012
2194.00,0.0011
2191.00,0.0012
2188.00,0.0012
2185.00,0.0011
2182.00,0.0008
2179.00,0.0007
2176.00,0.0005
2173.00,0.0009
2170.00,0.0014
2167.00,0.0018
2164.00,0.0017
2161.00,0.0009
2158.00,-0.0011
2155.00,-0.0006
2152.00,-0.0003
2149.00,-0.0000
2146.00,-0.0004
2143.00,-0.0000
2140.00,0.0001
2137.00,-0.0003
2134.00,-0.0005
2131.00,-0.0003
2128.00,0.0001
2125.00,0.0004
2122.00,0.0005
2119.00,0.0006
2116.00,0.0009
2113.00,0.0010
2110.00,0.0008
2107.00,0.0008
2104.00,0.0007
2101.00,0.0007
2098.00,0.0007
2095.00,0.0006
2092.00,0.0007
2089.00,0.0008
2086.00,0.0008
2083.00,0.0009
2080.00,0.0010
2077.00,0.0009
2074.00,0.0009
2071.00,0.0010
2068.00,0.0010
2065.00,0.0007
2062.00,0.0007
2059.00,0.0008
2056.00,0.0009
2053.00,0.0011
2050.00,0.0014
2047.00,0.0009
2044.00,0.0010
2041.00,0.0010
2038.00,0.0009
2035.00,0.0007
2032.00,0.0004
2029.00,0.0003
2026.00,0.0002
2023.00,0.0004
2020.00,0.0004
2017.00,0.0006
2014.00,0.0005
2011.00,0.0008
2008.00,0.0004
2005.00,0.0001
2002.00,0.0004
1999.00,0.0008
1996.00,0.0006
1993.00,0.0010
1990.00,0.0014
1987.00,0.0012
1984.00,0.0013
1981.00,0.0018
1978.00,0.0011
1975.00,0.0003
1972.00,0.0005
1969.00,0.0010
1966.00,0.0012
1963.00,0.0012
1960.00,0.0011
1957.00,0.0014
1954.00,0.0017
1951.00,0.0019
1948.00,0.0020
1945.00,0.0027
1942.00,0.0028
1939.00,0.0026
1936.00,0.0022
1933.00,0.0017
1930.00,0.0013
1927.00,0.0011
1924.00,0.0010
1921.00,0.0011
1918.00,0.0011
1915.00,0.0010
1912.00,0.0009
1909.00,0.0008
1906.00,0.0008
1903.00,0.0009
1900.00,0.0009
1897.00,0.0011
1894.00,0.0013
1891.00,0.0015
1888.00,0.0016
1885.00,0.0020
1882.00,0.0022
1879.00,0.0023
1876.00,0.0024
1873.00,0.0026
1870.00,0.0027
1867.00,0.0026
1864.00,0.0023
1861.00,0.0019
1858.00,0.0016
1855.00,0.0013
1852.00,0.0011
1849.00,0.0011
1846.00,0.0012
1843.00,0.0012
1840.00,0.0011
1837.00,0.0010
1834.00,0.0010
1831.00,0.0011
1828.00,0.0013
1825.00,0.0015
1822.00,0.0017
1819.00,0.0017
1816.00,0.0018
1813.00,0.0022
1810.00,0.0025
1807.00,0.0026
1804.00,0.0029
1801.00,0.0031
1798.00,0.0030
1795.00,0.0027
1792.00,0.0024
1789.00,0.0020
1786.00,0.0017
1783.00,0.0015
1780.00,0.0016
1777.00,0.0016
1774.00,0.0016
1771.00,0.0016
1768.00,0.0018
1765.00,0.0017
1762.00,0.0017
1759.00,0.0021
1756.00,0.0024
1753.00,0.0030
1750.00,0.0035
1747.00,0.0036
1744.00,0.0035
1741.00,0.0036
1738.00,0.0036
1735.00,0.0040
1732.00,0.0036
1729.00,0.0031
1726.00,0.0029
1723.00,0.0027
1720.00,0.0026
1717.00,0.0027
1714.00,0.0027
1711.00,0.0024
1708.00,0.0024
1705.00,0.0022
1702.00,0.0027
1699.00,0.0029
1696.00,0.0028
1693.00,0.0027
1690.00,0.0028
1687.00,0.0030
1684.00,0.0030
1681.00,0.0033
1678.00,0.0034
1675.00,0.0036
1672.00,0.0037
1669.00,0.0036
1666.00,0.0036
1663.00,0.0036
1660.00,0.0037
1657.00,0.0036
1654.00,0.0035
1651.00,0.0036
1648.00,0.0036
1645.00,0.0037
1642.00,0.0035
1639.00,0.0034
1636.00,0.0034
1633.00,0.0033
1630.00,0.0033
1627.00,0.0032
1624.00,0.0033
1621.00,0.0034
1618.00,0.0035
1615.00,0.0039
1612.00,0.0046
1609.00,0.0066
1606.00,0.0109
1603.00,0.0165
1600.00,0.0177
1597.00,0.0131
1594.00,0.0087
1591.00,0.0066
1588.00,0.0060
1585.00,0.0074
1582.00,0.0079
1579.00,0.0055
1576.00,0.0039
1573.00,0.0034
1570.00,0.0031
1567.00,0.0032
1564.00,0.0030
1561.00,0.0029
1558.00,0.0035
1555.00,0.0036
1552.00,0.0039
1549.00,0.0042
1546.00,0.0046
1543.00,0.0047
1540.00,0.0045
1537.00,0.0043
1534.00,0.0040
1531.00,0.0037
1528.00,0.0036
1525.00,0.0036
1522.00,0.0035
1519.00,0.0035
1516.00,0.0037
1513.00,0.0038
1510.00,0.0040
1507.00,0.0044
1504.00,0.0050
1501.00,0.0067
1498.00,0.0135
1495.00,0.0331
1492.00,0.0439
1489.00,0.0267
1486.00,0.0135
1483.00,0.0081
1480.00,0.0055
1477.00,0.0045
1474.00,0.0038
1471.00,0.0037
1468.00,0.0040
1465.00,0.0042
1462.00,0.0050
1459.00,0.0083
1456.00,0.0241
1453.00,0.0410
1450.00,0.0412
1447.00,0.0310
1444.00,0.0241
1441.00,0.0186
1438.00,0.0148
1435.00,0.0104
1432.00,0.0078
1429.00,0.0059
1426.00,0.0048
1423.00,0.0043
1420.00,0.0040
1417.00,0.0036
1414.00,0.0029
1411.00,0.0024
1408.00,0.0018
1405.00,0.0013
1402.00,0.0005
1399.00,-0.0002
1396.00,-0.0008
1393.00,-0.0011
1390.00,-0.0004
1387.00,0.0003
1384.00,0.0009
1381.00,0.0016
1378.00,0.0030
1375.00,0.0044
1372.00,0.0053
1369.00,0.0060
1366.00,0.0064
1363.00,0.0067
1360.00,0.0065
1357.00,0.0063
1354.00,0.0063
1351.00,0.0065
1348.00,0.0066
1345.00,0.0064
1342.00,0.0061
1339.00,0.0061
1336.00,0.0062
1333.00,0.0067
1330.00,0.0074
1327.00,0.0077
1324.00,0.0075
1321.00,0.0073
1318.00,0.0075
1315.00,0.0078
1312.00,0.0080
1309.00,0.0078
1306.00,0.0074
1303.00,0.0070
1300.00,0.0066
1297.00,0.0063
1294.00,0.0062
1291.00,0.0061
1288.00,0.0058
1285.00,0.0056
1282.00,0.0054
1279.00,0.0051
1276.00,0.0045
1273.00,0.0037
1270.00,0.0029
1267.00,0.0023
1264.00,0.0019
1261.00,0.0017
1258.00,0.0015
1255.00,0.0012
1252.00,0.0010
1249.00,0.0013
1246.00,0.0017
1243.00,0.0019
1240.00,0.0019
1237.00,0.0020
1234.00,0.0024
1231.00,0.0027
1228.00,0.0032
1225.00,0.0036
1222.00,0.0039
1219.00,0.0041
1216.00,0.0043
1213.00,0.0046
1210.00,0.0049
1207.00,0.0053
1204.00,0.0058
1201.00,0.0063
1198.00,0.0066
1195.00,0.0066
1192.00,0.0066
1189.00,0.0065
1186.00,0.0068
1183.00,0.0077
1180.00,0.0074
1177.00,0.0052
1174.00,0.0032
1171.00,0.0021
1168.00,0.0015
1165.00,0.0011
1162.00,0.0013
1159.00,0.0024
1156.00,0.0042
1153.00,0.0040
1150.00,0.0018
1147.00,0.0004
1144.00,-0.0000
1141.00,-0.0001
1138.00,-0.0002
1135.00,0.0000
1132.00,0.0003
1129.00,0.0006
1126.00,0.0011
1123.00,0.0016
1120.00,0.0022
1117.00,0.0030
1114.00,0.0037
1111.00,0.0040
1108.00,0.0041
1105.00,0.0041
1102.00,0.0040
1099.00,0.0040
1096.00,0.0039
1093.00,0.0038
1090.00,0.0037
1087.00,0.0040
1084.00,0.0047
1081.00,0.0055
1078.00,0.0066
1075.00,0.0078
1072.00,0.0095
1069.00,0.0108
1066.00,0.0106
1063.00,0.0094
1060.00,0.0081
1057.00,0.0074
1054.00,0.0072
1051.00,0.0069
1048.00,0.0069
1045.00,0.0071
1042.00,0.0073
1039.00,0.0081
1036.00,0.0111
1033.00,0.0171
1030.00,0.0234
1027.00,0.0248
1024.00,0.0205
1021.00,0.0163
1018.00,0.0137
1015.00,0.0120
1012.00,0.0110
1009.00,0.0105
1006.00,0.0108
1003.00,0.0112
1000.00,0.0099
997.00,0.0085
994.00,0.0080
991.00,0.0080
988.00,0.0083
985.00,0.0089
982.00,0.0093
979.00,0.0088
976.00,0.0075
973.00,0.0060
970.00,0.0055
967.00,0.0058
964.00,0.0062
961.00,0.0054
958.00,0.0034
955.00,0.0023
952.00,0.0021
949.00,0.0028
946.00,0.0035
943.00,0.0039
940.00,0.0040
937.00,0.0040
934.00,0.0040
931.00,0.0042
928.00,0.0046
925.00,0.0052
922.00,0.0059
919.00,0.0069
916.00,0.0086
913.00,0.0114
910.00,0.0149
907.00,0.0171
904.00,0.0162
901.00,0.0128
898.00,0.0094
895.00,0.0072
892.00,0.0063
889.00,0.0057
886.00,0.0053
883.00,0.0050
880.00,0.0049
877.00,0.0048
874.00,0.0046
871.00,0.0044
868.00,0.0044
865.00,0.0044
862.00,0.0043
859.00,0.0045
856.00,0.0046
853.00,0.0051
850.00,0.0060
847.00,0.0073
844.00,0.0085
841.00,0.0088
838.00,0.0078
835.00,0.0060
832.00,0.0044
829.00,0.0037
826.00,0.0035
823.00,0.0034
820.00,0.0034
817.00,0.0032
814.00,0.0034
811.00,0.0036
808.00,0.0039
805.00,0.0041
802.00,0.0045
799.00,0.0050
796.00,0.0059
793.00,0.0070
790.00,0.0085
787.00,0.0101
784.00,0.0120
781.00,0.0146
778.00,0.0185
775.00,0.0238
772.00,0.0309
769.00,0.0394
766.00,0.0480
763.00,0.0565
760.00,0.0655
757.00,0.0726
754.00,0.0744
751.00,0.0735
748.00,0.0725
745.00,0.0663
742.00,0.0525
739.00,0.0389
736.00,0.0282
733.00,0.0191
730.00,0.0129
727.00,0.0101
724.00,0.0090
721.00,0.0089
718.00,0.0096
715.00,0.0114
712.00,0.0165
709.00,0.0301
706.00,0.0578
703.00,0.1018
700.00,0.1580
697.00,0.2134
694.00,0.2264
691.00,0.1665
688.00,0.1060
685.00,0.0736
682.00,0.0562
679.00,0.0453
676.00,0.0386
673.00,0.0341
670.00,0.0309
667.00,0.0271
664.00,0.0246
661.00,0.0217
658.00,0.0190
655.00,0.0167
652.00,0.0149
649.00,0.0135
646.00,0.0124
643.00,0.0117
640.00,0.0117
637.00,0.0124
634.00,0.0133
631.00,0.0140
628.00,0.0146
625.00,0.0154
622.00,0.0163
619.00,0.0159
616.00,0.0147
613.00,0.0139
610.00,0.0132
607.00,0.0127
604.00,0.0127
601.00,0.0133
598.00,0.0136
595.00,0.0140
592.00,0.0147
589.00,0.0152
586.00,0.0161
583.00,0.0171
580.00,0.0188
577.00,0.0214
574.00,0.0244
571.00,0.0274
568.00,0.0303
565.00,0.0334
562.00,0.0364
559.00,0.0393
556.00,0.0417
553.00,0.0462
550.00,0.0511
547.00,0.0566
544.00,0.0642
541.00,0.0721
538.00,0.0760
535.00,0.0720
532.00,0.0620
529.00,0.0505
526.00,0.0415
523.00,0.0341
520.00,0.0297
517.00,0.0270
514.00,0.0242
511.00,0.0219
508.00,0.0201
505.00,0.0186
502.00,0.0171
499.00,0.0154
496.00,0.0146
493.00,0.0136
490.00,0.0130
487.00,0.0124
484.00,0.0121
481.00,0.0118
478.00,0.0109
475.00,0.0106
472.00,0.0114
469.00,0.0109
466.00,0.0111
463.00,0.0102
460.00,0.0104
457.00,0.0112
454.00,0.0100
451.00,0.0084
448.00,0.0093
445.00,0.0104
442.00,0.0102
439.00,0.0087
436.00,0.0080
433.00,0.0079
430.00,0.0070
427.00,0.0069
424.00,0.0084
421.00,0.0090
418.00,0.0102
415.00,0.0070
412.00,0.0062
409.00,0.0081
406.00,0.0094
403.00,0.0093
400.00,0.0096