File: FTIR/Mary/Jul1/2025_07_01_Polystyrene_Std_MEL_scan3_After.csv
Created as New Dataset,Sample 759 By YargerLab Date Tuesday, July 01 2025
cm-1,A
4000.00,0.0007
3997.00,0.0008
3994.00,0.0008
3991.00,0.0008
3988.00,0.0007
3985.00,0.0007
3982.00,0.0007
3979.00,0.0007
3976.00,0.0007
3973.00,0.0008
3970.00,0.0007
3967.00,0.0008
3964.00,0.0008
3961.00,0.0008
3958.00,0.0008
3955.00,0.0007
3952.00,0.0007
3949.00,0.0009
3946.00,0.0010
3943.00,0.0008
3940.00,0.0008
3937.00,0.0008
3934.00,0.0010
3931.00,0.0009
3928.00,0.0008
3925.00,0.0007
3922.00,0.0008
3919.00,0.0010
3916.00,0.0009
3913.00,0.0007
3910.00,0.0007
3907.00,0.0007
3904.00,0.0011
3901.00,0.0015
3898.00,0.0011
3895.00,0.0010
3892.00,0.0008
3889.00,0.0010
3886.00,0.0012
3883.00,0.0011
3880.00,0.0010
3877.00,0.0011
3874.00,0.0009
3871.00,0.0012
3868.00,0.0012
3865.00,0.0013
3862.00,0.0012
3859.00,0.0011
3856.00,0.0008
3853.00,0.0009
3850.00,0.0011
3847.00,0.0011
3844.00,0.0010
3841.00,0.0011
3838.00,0.0011
3835.00,0.0011
3832.00,0.0011
3829.00,0.0010
3826.00,0.0010
3823.00,0.0012
3820.00,0.0011
3817.00,0.0012
3814.00,0.0009
3811.00,0.0009
3808.00,0.0010
3805.00,0.0010
3802.00,0.0010
3799.00,0.0010
3796.00,0.0011
3793.00,0.0009
3790.00,0.0007
3787.00,0.0007
3784.00,0.0008
3781.00,0.0009
3778.00,0.0008
3775.00,0.0008
3772.00,0.0009
3769.00,0.0010
3766.00,0.0010
3763.00,0.0010
3760.00,0.0011
3757.00,0.0012
3754.00,0.0014
3751.00,0.0017
3748.00,0.0018
3745.00,0.0019
3742.00,0.0016
3739.00,0.0018
3736.00,0.0018
3733.00,0.0017
3730.00,0.0014
3727.00,0.0014
3724.00,0.0013
3721.00,0.0012
3718.00,0.0011
3715.00,0.0011
3712.00,0.0012
3709.00,0.0012
3706.00,0.0010
3703.00,0.0009
3700.00,0.0008
3697.00,0.0008
3694.00,0.0008
3691.00,0.0007
3688.00,0.0008
3685.00,0.0007
3682.00,0.0005
3679.00,0.0002
3676.00,0.0003
3673.00,0.0001
3670.00,-0.0000
3667.00,-0.0004
3664.00,-0.0007
3661.00,-0.0008
3658.00,-0.0007
3655.00,-0.0005
3652.00,-0.0000
3649.00,0.0003
3646.00,0.0002
3643.00,0.0000
3640.00,-0.0001
3637.00,-0.0001
3634.00,0.0005
3631.00,0.0010
3628.00,0.0013
3625.00,0.0013
3622.00,0.0012
3619.00,0.0012
3616.00,0.0016
3613.00,0.0017
3610.00,0.0018
3607.00,0.0016
3604.00,0.0015
3601.00,0.0014
3598.00,0.0015
3595.00,0.0015
3592.00,0.0017
3589.00,0.0018
3586.00,0.0016
3583.00,0.0016
3580.00,0.0015
3577.00,0.0015
3574.00,0.0015
3571.00,0.0017
3568.00,0.0020
3565.00,0.0019
3562.00,0.0019
3559.00,0.0017
3556.00,0.0017
3553.00,0.0017
3550.00,0.0019
3547.00,0.0021
3544.00,0.0021
3541.00,0.0020
3538.00,0.0019
3535.00,0.0020
3532.00,0.0020
3529.00,0.0021
3526.00,0.0023
3523.00,0.0023
3520.00,0.0022
3517.00,0.0022
3514.00,0.0022
3511.00,0.0023
3508.00,0.0023
3505.00,0.0024
3502.00,0.0025
3499.00,0.0025
3496.00,0.0025
3493.00,0.0025
3490.00,0.0025
3487.00,0.0025
3484.00,0.0026
3481.00,0.0026
3478.00,0.0027
3475.00,0.0026
3472.00,0.0027
3469.00,0.0028
3466.00,0.0028
3463.00,0.0029
3460.00,0.0030
3457.00,0.0029
3454.00,0.0030
3451.00,0.0030
3448.00,0.0031
3445.00,0.0031
3442.00,0.0031
3439.00,0.0032
3436.00,0.0032
3433.00,0.0033
3430.00,0.0034
3427.00,0.0034
3424.00,0.0034
3421.00,0.0034
3418.00,0.0035
3415.00,0.0035
3412.00,0.0036
3409.00,0.0036
3406.00,0.0037
3403.00,0.0037
3400.00,0.0037
3397.00,0.0037
3394.00,0.0038
3391.00,0.0038
3388.00,0.0038
3385.00,0.0038
3382.00,0.0038
3379.00,0.0039
3376.00,0.0039
3373.00,0.0040
3370.00,0.0040
3367.00,0.0041
3364.00,0.0041
3361.00,0.0041
3358.00,0.0041
3355.00,0.0041
3352.00,0.0042
3349.00,0.0043
3346.00,0.0042
3343.00,0.0042
3340.00,0.0043
3337.00,0.0043
3334.00,0.0043
3331.00,0.0043
3328.00,0.0042
3325.00,0.0042
3322.00,0.0042
3319.00,0.0041
3316.00,0.0041
3313.00,0.0042
3310.00,0.0042
3307.00,0.0043
3304.00,0.0043
3301.00,0.0041
3298.00,0.0042
3295.00,0.0042
3292.00,0.0043
3289.00,0.0042
3286.00,0.0042
3283.00,0.0041
3280.00,0.0041
3277.00,0.0041
3274.00,0.0041
3271.00,0.0040
3268.00,0.0039
3265.00,0.0039
3262.00,0.0038
3259.00,0.0038
3256.00,0.0037
3253.00,0.0036
3250.00,0.0036
3247.00,0.0036
3244.00,0.0035
3241.00,0.0034
3238.00,0.0033
3235.00,0.0032
3232.00,0.0032
3229.00,0.0032
3226.00,0.0031
3223.00,0.0031
3220.00,0.0031
3217.00,0.0030
3214.00,0.0030
3211.00,0.0029
3208.00,0.0029
3205.00,0.0029
3202.00,0.0028
3199.00,0.0028
3196.00,0.0027
3193.00,0.0027
3190.00,0.0027
3187.00,0.0026
3184.00,0.0026
3181.00,0.0026
3178.00,0.0025
3175.00,0.0025
3172.00,0.0025
3169.00,0.0024
3166.00,0.0025
3163.00,0.0025
3160.00,0.0024
3157.00,0.0024
3154.00,0.0024
3151.00,0.0024
3148.00,0.0023
3145.00,0.0023
3142.00,0.0023
3139.00,0.0023
3136.00,0.0022
3133.00,0.0022
3130.00,0.0022
3127.00,0.0022
3124.00,0.0022
3121.00,0.0023
3118.00,0.0024
3115.00,0.0024
3112.00,0.0026
3109.00,0.0028
3106.00,0.0031
3103.00,0.0033
3100.00,0.0033
3097.00,0.0031
3094.00,0.0032
3091.00,0.0037
3088.00,0.0045
3085.00,0.0055
3082.00,0.0062
3079.00,0.0058
3076.00,0.0051
3073.00,0.0048
3070.00,0.0050
3067.00,0.0057
3064.00,0.0068
3061.00,0.0078
3058.00,0.0078
3055.00,0.0068
3052.00,0.0056
3049.00,0.0048
3046.00,0.0044
3043.00,0.0045
3040.00,0.0049
3037.00,0.0058
3034.00,0.0075
3031.00,0.0099
3028.00,0.0126
3025.00,0.0140
3022.00,0.0123
3019.00,0.0088
3016.00,0.0056
3013.00,0.0034
3010.00,0.0019
3007.00,0.0006
3004.00,-0.0005
3001.00,-0.0017
2998.00,-0.0033
2995.00,-0.0049
2992.00,-0.0061
2989.00,-0.0070
2986.00,-0.0085
2983.00,-0.0124
2980.00,-0.0134
2977.00,-0.0111
2974.00,-0.0103
2971.00,-0.0103
2968.00,-0.0085
2965.00,-0.0069
2962.00,-0.0056
2959.00,-0.0044
2956.00,-0.0033
2953.00,-0.0020
2950.00,-0.0005
2947.00,0.0009
2944.00,0.0026
2941.00,0.0041
2938.00,0.0055
2935.00,0.0071
2932.00,0.0086
2929.00,0.0102
2926.00,0.0115
2923.00,0.0122
2920.00,0.0123
2917.00,0.0119
2914.00,0.0111
2911.00,0.0101
2908.00,0.0089
2905.00,0.0076
2902.00,0.0063
2899.00,0.0051
2896.00,0.0040
2893.00,0.0028
2890.00,0.0019
2887.00,0.0015
2884.00,0.0012
2881.00,0.0014
2878.00,0.0018
2875.00,0.0020
2872.00,0.0020
2869.00,0.0021
2866.00,0.0025
2863.00,0.0030
2860.00,0.0037
2857.00,0.0046
2854.00,0.0053
2851.00,0.0059
2848.00,0.0063
2845.00,0.0061
2842.00,0.0053
2839.00,0.0042
2836.00,0.0032
2833.00,0.0025
2830.00,0.0021
2827.00,0.0019
2824.00,0.0018
2821.00,0.0017
2818.00,0.0017
2815.00,0.0017
2812.00,0.0017
2809.00,0.0016
2806.00,0.0016
2803.00,0.0016
2800.00,0.0016
2797.00,0.0015
2794.00,0.0015
2791.00,0.0015
2788.00,0.0014
2785.00,0.0014
2782.00,0.0015
2779.00,0.0015
2776.00,0.0015
2773.00,0.0014
2770.00,0.0014
2767.00,0.0013
2764.00,0.0014
2761.00,0.0013
2758.00,0.0013
2755.00,0.0013
2752.00,0.0014
2749.00,0.0014
2746.00,0.0013
2743.00,0.0013
2740.00,0.0013
2737.00,0.0014
2734.00,0.0014
2731.00,0.0014
2728.00,0.0014
2725.00,0.0014
2722.00,0.0014
2719.00,0.0014
2716.00,0.0014
2713.00,0.0014
2710.00,0.0014
2707.00,0.0014
2704.00,0.0015
2701.00,0.0015
2698.00,0.0014
2695.00,0.0014
2692.00,0.0014
2689.00,0.0014
2686.00,0.0014
2683.00,0.0014
2680.00,0.0013
2677.00,0.0013
2674.00,0.0013
2671.00,0.0013
2668.00,0.0013
2665.00,0.0013
2662.00,0.0014
2659.00,0.0015
2656.00,0.0015
2653.00,0.0015
2650.00,0.0016
2647.00,0.0015
2644.00,0.0016
2641.00,0.0016
2638.00,0.0016
2635.00,0.0016
2632.00,0.0016
2629.00,0.0016
2626.00,0.0016
2623.00,0.0016
2620.00,0.0015
2617.00,0.0015
2614.00,0.0015
2611.00,0.0015
2608.00,0.0015
2605.00,0.0015
2602.00,0.0015
2599.00,0.0015
2596.00,0.0015
2593.00,0.0014
2590.00,0.0014
2587.00,0.0014
2584.00,0.0014
2581.00,0.0015
2578.00,0.0015
2575.00,0.0014
2572.00,0.0013
2569.00,0.0013
2566.00,0.0013
2563.00,0.0013
2560.00,0.0013
2557.00,0.0013
2554.00,0.0013
2551.00,0.0013
2548.00,0.0013
2545.00,0.0013
2542.00,0.0012
2539.00,0.0012
2536.00,0.0013
2533.00,0.0013
2530.00,0.0012
2527.00,0.0011
2524.00,0.0011
2521.00,0.0011
2518.00,0.0011
2515.00,0.0011
2512.00,0.0011
2509.00,0.0012
2506.00,0.0012
2503.00,0.0011
2500.00,0.0011
2497.00,0.0011
2494.00,0.0012
2491.00,0.0011
2488.00,0.0011
2485.00,0.0011
2482.00,0.0011
2479.00,0.0010
2476.00,0.0011
2473.00,0.0011
2470.00,0.0010
2467.00,0.0010
2464.00,0.0011
2461.00,0.0011
2458.00,0.0012
2455.00,0.0011
2452.00,0.0011
2449.00,0.0012
2446.00,0.0011
2443.00,0.0010
2440.00,0.0010
2437.00,0.0009
2434.00,0.0010
2431.00,0.0010
2428.00,0.0009
2425.00,0.0009
2422.00,0.0009
2419.00,0.0009
2416.00,0.0009
2413.00,0.0009
2410.00,0.0009
2407.00,0.0009
2404.00,0.0008
2401.00,0.0009
2398.00,0.0009
2395.00,0.0008
2392.00,0.0008
2389.00,0.0008
2386.00,0.0007
2383.00,0.0007
2380.00,0.0005
2377.00,0.0005
2374.00,0.0007
2371.00,0.0007
2368.00,0.0006
2365.00,0.0008
2362.00,0.0009
2359.00,0.0008
2356.00,0.0008
2353.00,0.0009
2350.00,0.0009
2347.00,0.0010
2344.00,0.0010
2341.00,0.0011
2338.00,0.0011
2335.00,0.0011
2332.00,0.0010
2329.00,0.0012
2326.00,0.0018
2323.00,0.0016
2320.00,0.0014
2317.00,0.0014
2314.00,0.0013
2311.00,0.0013
2308.00,0.0012
2305.00,0.0012
2302.00,0.0012
2299.00,0.0013
2296.00,0.0014
2293.00,0.0015
2290.00,0.0017
2287.00,0.0017
2284.00,0.0016
2281.00,0.0016
2278.00,0.0015
2275.00,0.0015
2272.00,0.0014
2269.00,0.0013
2266.00,0.0013
2263.00,0.0013
2260.00,0.0014
2257.00,0.0013
2254.00,0.0011
2251.00,0.0013
2248.00,0.0013
2245.00,0.0014
2242.00,0.0012
2239.00,0.0013
2236.00,0.0013
2233.00,0.0012
2230.00,0.0011
2227.00,0.0011
2224.00,0.0010
2221.00,0.0011
2218.00,0.0010
2215.00,0.0010
2212.00,0.0008
2209.00,0.0009
2206.00,0.0010
2203.00,0.0010
2200.00,0.0011
2197.00,0.0011
2194.00,0.0012
2191.00,0.0011
2188.00,0.0013
2185.00,0.0012
2182.00,0.0008
2179.00,0.0009
2176.00,0.0005
2173.00,0.0010
2170.00,0.0014
2167.00,0.0018
2164.00,0.0020
2161.00,0.0010
2158.00,-0.0013
2155.00,-0.0008
2152.00,-0.0001
2149.00,0.0001
2146.00,-0.0004
2143.00,-0.0001
2140.00,-0.0001
2137.00,-0.0002
2134.00,-0.0005
2131.00,-0.0003
2128.00,-0.0000
2125.00,0.0002
2122.00,0.0004
2119.00,0.0007
2116.00,0.0009
2113.00,0.0009
2110.00,0.0008
2107.00,0.0009
2104.00,0.0007
2101.00,0.0006
2098.00,0.0005
2095.00,0.0003
2092.00,0.0006
2089.00,0.0008
2086.00,0.0008
2083.00,0.0009
2080.00,0.0009
2077.00,0.0009
2074.00,0.0009
2071.00,0.0009
2068.00,0.0008
2065.00,0.0007
2062.00,0.0006
2059.00,0.0007
2056.00,0.0009
2053.00,0.0012
2050.00,0.0013
2047.00,0.0008
2044.00,0.0008
2041.00,0.0005
2038.00,0.0008
2035.00,0.0007
2032.00,0.0004
2029.00,0.0001
2026.00,0.0004
2023.00,0.0004
2020.00,0.0001
2017.00,0.0003
2014.00,0.0003
2011.00,0.0007
2008.00,0.0006
2005.00,0.0001
2002.00,0.0003
1999.00,0.0005
1996.00,0.0005
1993.00,0.0010
1990.00,0.0014
1987.00,0.0013
1984.00,0.0013
1981.00,0.0019
1978.00,0.0008
1975.00,0.0003
1972.00,0.0003
1969.00,0.0007
1966.00,0.0010
1963.00,0.0009
1960.00,0.0007
1957.00,0.0011
1954.00,0.0012
1951.00,0.0012
1948.00,0.0015
1945.00,0.0021
1942.00,0.0023
1939.00,0.0021
1936.00,0.0017
1933.00,0.0012
1930.00,0.0011
1927.00,0.0009
1924.00,0.0007
1921.00,0.0008
1918.00,0.0010
1915.00,0.0008
1912.00,0.0008
1909.00,0.0006
1906.00,0.0006
1903.00,0.0006
1900.00,0.0008
1897.00,0.0010
1894.00,0.0011
1891.00,0.0011
1888.00,0.0013
1885.00,0.0016
1882.00,0.0017
1879.00,0.0018
1876.00,0.0019
1873.00,0.0020
1870.00,0.0021
1867.00,0.0020
1864.00,0.0019
1861.00,0.0016
1858.00,0.0013
1855.00,0.0011
1852.00,0.0009
1849.00,0.0009
1846.00,0.0010
1843.00,0.0010
1840.00,0.0008
1837.00,0.0008
1834.00,0.0009
1831.00,0.0009
1828.00,0.0010
1825.00,0.0012
1822.00,0.0014
1819.00,0.0014
1816.00,0.0015
1813.00,0.0018
1810.00,0.0020
1807.00,0.0022
1804.00,0.0023
1801.00,0.0025
1798.00,0.0024
1795.00,0.0022
1792.00,0.0020
1789.00,0.0016
1786.00,0.0015
1783.00,0.0013
1780.00,0.0013
1777.00,0.0014
1774.00,0.0014
1771.00,0.0014
1768.00,0.0016
1765.00,0.0015
1762.00,0.0015
1759.00,0.0018
1756.00,0.0021
1753.00,0.0026
1750.00,0.0029
1747.00,0.0029
1744.00,0.0029
1741.00,0.0029
1738.00,0.0029
1735.00,0.0033
1732.00,0.0031
1729.00,0.0027
1726.00,0.0026
1723.00,0.0026
1720.00,0.0026
1717.00,0.0026
1714.00,0.0027
1711.00,0.0025
1708.00,0.0024
1705.00,0.0022
1702.00,0.0027
1699.00,0.0029
1696.00,0.0029
1693.00,0.0029
1690.00,0.0030
1687.00,0.0031
1684.00,0.0032
1681.00,0.0035
1678.00,0.0036
1675.00,0.0039
1672.00,0.0041
1669.00,0.0042
1666.00,0.0043
1663.00,0.0044
1660.00,0.0045
1657.00,0.0043
1654.00,0.0043
1651.00,0.0042
1648.00,0.0042
1645.00,0.0042
1642.00,0.0040
1639.00,0.0039
1636.00,0.0039
1633.00,0.0037
1630.00,0.0036
1627.00,0.0035
1624.00,0.0036
1621.00,0.0035
1618.00,0.0036
1615.00,0.0039
1612.00,0.0044
1609.00,0.0059
1606.00,0.0091
1603.00,0.0134
1600.00,0.0144
1597.00,0.0108
1594.00,0.0074
1591.00,0.0057
1588.00,0.0052
1585.00,0.0063
1582.00,0.0066
1579.00,0.0047
1576.00,0.0034
1573.00,0.0029
1570.00,0.0028
1567.00,0.0028
1564.00,0.0026
1561.00,0.0025
1558.00,0.0030
1555.00,0.0030
1552.00,0.0032
1549.00,0.0034
1546.00,0.0038
1543.00,0.0038
1540.00,0.0038
1537.00,0.0036
1534.00,0.0034
1531.00,0.0032
1528.00,0.0031
1525.00,0.0032
1522.00,0.0032
1519.00,0.0032
1516.00,0.0035
1513.00,0.0037
1510.00,0.0038
1507.00,0.0041
1504.00,0.0046
1501.00,0.0059
1498.00,0.0109
1495.00,0.0255
1492.00,0.0343
1489.00,0.0212
1486.00,0.0109
1483.00,0.0069
1480.00,0.0049
1477.00,0.0041
1474.00,0.0035
1471.00,0.0036
1468.00,0.0040
1465.00,0.0042
1462.00,0.0049
1459.00,0.0074
1456.00,0.0191
1453.00,0.0322
1450.00,0.0328
1447.00,0.0251
1444.00,0.0200
1441.00,0.0158
1438.00,0.0130
1435.00,0.0097
1432.00,0.0079
1429.00,0.0063
1426.00,0.0055
1423.00,0.0050
1420.00,0.0046
1417.00,0.0041
1414.00,0.0034
1411.00,0.0028
1408.00,0.0023
1405.00,0.0017
1402.00,0.0010
1399.00,0.0003
1396.00,-0.0004
1393.00,-0.0006
1390.00,-0.0001
1387.00,0.0005
1384.00,0.0010
1381.00,0.0017
1378.00,0.0030
1375.00,0.0043
1372.00,0.0052
1369.00,0.0059
1366.00,0.0062
1363.00,0.0063
1360.00,0.0063
1357.00,0.0062
1354.00,0.0062
1351.00,0.0063
1348.00,0.0064
1345.00,0.0063
1342.00,0.0062
1339.00,0.0063
1336.00,0.0066
1333.00,0.0070
1330.00,0.0076
1327.00,0.0078
1324.00,0.0077
1321.00,0.0078
1318.00,0.0080
1315.00,0.0084
1312.00,0.0084
1309.00,0.0082
1306.00,0.0078
1303.00,0.0074
1300.00,0.0070
1297.00,0.0068
1294.00,0.0068
1291.00,0.0067
1288.00,0.0064
1285.00,0.0062
1282.00,0.0060
1279.00,0.0057
1276.00,0.0052
1273.00,0.0045
1270.00,0.0039
1267.00,0.0033
1264.00,0.0028
1261.00,0.0026
1258.00,0.0023
1255.00,0.0020
1252.00,0.0018
1249.00,0.0021
1246.00,0.0025
1243.00,0.0026
1240.00,0.0026
1237.00,0.0027
1234.00,0.0030
1231.00,0.0034
1228.00,0.0038
1225.00,0.0041
1222.00,0.0043
1219.00,0.0045
1216.00,0.0047
1213.00,0.0050
1210.00,0.0053
1207.00,0.0057
1204.00,0.0061
1201.00,0.0064
1198.00,0.0065
1195.00,0.0064
1192.00,0.0062
1189.00,0.0060
1186.00,0.0062
1183.00,0.0068
1180.00,0.0066
1177.00,0.0050
1174.00,0.0036
1171.00,0.0029
1168.00,0.0027
1165.00,0.0027
1162.00,0.0030
1159.00,0.0038
1156.00,0.0051
1153.00,0.0050
1150.00,0.0031
1147.00,0.0020
1144.00,0.0017
1141.00,0.0015
1138.00,0.0015
1135.00,0.0019
1132.00,0.0023
1129.00,0.0028
1126.00,0.0034
1123.00,0.0040
1120.00,0.0047
1117.00,0.0058
1114.00,0.0068
1111.00,0.0073
1108.00,0.0074
1105.00,0.0075
1102.00,0.0073
1099.00,0.0072
1096.00,0.0070
1093.00,0.0068
1090.00,0.0067
1087.00,0.0068
1084.00,0.0074
1081.00,0.0082
1078.00,0.0091
1075.00,0.0102
1072.00,0.0117
1069.00,0.0130
1066.00,0.0133
1063.00,0.0129
1060.00,0.0124
1057.00,0.0123
1054.00,0.0123
1051.00,0.0122
1048.00,0.0121
1045.00,0.0121
1042.00,0.0123
1039.00,0.0131
1036.00,0.0155
1033.00,0.0204
1030.00,0.0253
1027.00,0.0264
1024.00,0.0230
1021.00,0.0196
1018.00,0.0175
1015.00,0.0160
1012.00,0.0150
1009.00,0.0146
1006.00,0.0148
1003.00,0.0152
1000.00,0.0141
997.00,0.0129
994.00,0.0124
991.00,0.0123
988.00,0.0125
985.00,0.0129
982.00,0.0129
979.00,0.0121
976.00,0.0105
973.00,0.0089
970.00,0.0080
967.00,0.0079
964.00,0.0080
961.00,0.0072
958.00,0.0054
955.00,0.0043
952.00,0.0040
949.00,0.0044
946.00,0.0049
943.00,0.0052
940.00,0.0053
937.00,0.0053
934.00,0.0053
931.00,0.0055
928.00,0.0059
925.00,0.0064
922.00,0.0069
919.00,0.0077
916.00,0.0090
913.00,0.0112
910.00,0.0139
907.00,0.0155
904.00,0.0149
901.00,0.0125
898.00,0.0100
895.00,0.0083
892.00,0.0074
889.00,0.0070
886.00,0.0065
883.00,0.0061
880.00,0.0059
877.00,0.0058
874.00,0.0057
871.00,0.0055
868.00,0.0055
865.00,0.0055
862.00,0.0053
859.00,0.0053
856.00,0.0055
853.00,0.0058
850.00,0.0066
847.00,0.0075
844.00,0.0083
841.00,0.0085
838.00,0.0077
835.00,0.0063
832.00,0.0051
829.00,0.0046
826.00,0.0043
823.00,0.0044
820.00,0.0043
817.00,0.0042
814.00,0.0044
811.00,0.0045
808.00,0.0048
805.00,0.0049
802.00,0.0052
799.00,0.0057
796.00,0.0063
793.00,0.0072
790.00,0.0083
787.00,0.0096
784.00,0.0111
781.00,0.0131
778.00,0.0160
775.00,0.0199
772.00,0.0251
769.00,0.0313
766.00,0.0374
763.00,0.0435
760.00,0.0499
757.00,0.0550
754.00,0.0563
751.00,0.0557
748.00,0.0551
745.00,0.0510
742.00,0.0411
739.00,0.0313
736.00,0.0235
733.00,0.0169
730.00,0.0124
727.00,0.0104
724.00,0.0097
721.00,0.0098
718.00,0.0103
715.00,0.0118
712.00,0.0156
709.00,0.0255
706.00,0.0452
703.00,0.0753
700.00,0.1127
697.00,0.1485
694.00,0.1577
691.00,0.1200
688.00,0.0793
685.00,0.0568
682.00,0.0445
679.00,0.0367
676.00,0.0319
673.00,0.0288
670.00,0.0267
667.00,0.0244
664.00,0.0225
661.00,0.0204
658.00,0.0185
655.00,0.0167
652.00,0.0154
649.00,0.0145
646.00,0.0136
643.00,0.0133
640.00,0.0133
637.00,0.0138
634.00,0.0145
631.00,0.0152
628.00,0.0157
625.00,0.0163
622.00,0.0170
619.00,0.0169
616.00,0.0162
613.00,0.0156
610.00,0.0151
607.00,0.0148
604.00,0.0147
601.00,0.0151
598.00,0.0155
595.00,0.0158
592.00,0.0164
589.00,0.0168
586.00,0.0174
583.00,0.0182
580.00,0.0196
577.00,0.0216
574.00,0.0236
571.00,0.0258
568.00,0.0282
565.00,0.0306
562.00,0.0329
559.00,0.0354
556.00,0.0376
553.00,0.0404
550.00,0.0434
547.00,0.0473
544.00,0.0529
541.00,0.0587
538.00,0.0616
535.00,0.0585
532.00,0.0513
529.00,0.0431
526.00,0.0365
523.00,0.0311
520.00,0.0277
517.00,0.0255
514.00,0.0236
511.00,0.0218
508.00,0.0203
505.00,0.0191
502.00,0.0178
499.00,0.0165
496.00,0.0158
493.00,0.0156
490.00,0.0149
487.00,0.0145
484.00,0.0142
481.00,0.0142
478.00,0.0134
475.00,0.0131
472.00,0.0139
469.00,0.0135
466.00,0.0132
463.00,0.0122
460.00,0.0123
457.00,0.0137
454.00,0.0125
451.00,0.0109
448.00,0.0110
445.00,0.0127
442.00,0.0122
439.00,0.0115
436.00,0.0117
433.00,0.0115
430.00,0.0105
427.00,0.0090
424.00,0.0088
421.00,0.0109
418.00,0.0121
415.00,0.0087
412.00,0.0092
409.00,0.0119
406.00,0.0113
403.00,0.0115
400.00,0.0107