File: FTIR/Mary/Jul1/2025_07_01_Polystyrene_Std_MEL_scan1_After.csv
Created as New Dataset,Sample 757 By YargerLab Date Tuesday, July 01 2025
cm-1,A
4000.00,0.0006
3997.00,0.0006
3994.00,0.0006
3991.00,0.0007
3988.00,0.0006
3985.00,0.0007
3982.00,0.0007
3979.00,0.0007
3976.00,0.0007
3973.00,0.0007
3970.00,0.0007
3967.00,0.0007
3964.00,0.0007
3961.00,0.0007
3958.00,0.0007
3955.00,0.0007
3952.00,0.0007
3949.00,0.0009
3946.00,0.0009
3943.00,0.0007
3940.00,0.0007
3937.00,0.0008
3934.00,0.0009
3931.00,0.0008
3928.00,0.0007
3925.00,0.0006
3922.00,0.0008
3919.00,0.0010
3916.00,0.0009
3913.00,0.0007
3910.00,0.0007
3907.00,0.0007
3904.00,0.0011
3901.00,0.0014
3898.00,0.0010
3895.00,0.0008
3892.00,0.0007
3889.00,0.0009
3886.00,0.0011
3883.00,0.0010
3880.00,0.0010
3877.00,0.0010
3874.00,0.0009
3871.00,0.0012
3868.00,0.0012
3865.00,0.0012
3862.00,0.0011
3859.00,0.0011
3856.00,0.0007
3853.00,0.0008
3850.00,0.0010
3847.00,0.0010
3844.00,0.0010
3841.00,0.0011
3838.00,0.0011
3835.00,0.0010
3832.00,0.0011
3829.00,0.0010
3826.00,0.0009
3823.00,0.0012
3820.00,0.0010
3817.00,0.0012
3814.00,0.0008
3811.00,0.0008
3808.00,0.0009
3805.00,0.0009
3802.00,0.0009
3799.00,0.0009
3796.00,0.0010
3793.00,0.0008
3790.00,0.0007
3787.00,0.0007
3784.00,0.0007
3781.00,0.0008
3778.00,0.0008
3775.00,0.0008
3772.00,0.0009
3769.00,0.0010
3766.00,0.0010
3763.00,0.0010
3760.00,0.0011
3757.00,0.0011
3754.00,0.0013
3751.00,0.0016
3748.00,0.0018
3745.00,0.0018
3742.00,0.0015
3739.00,0.0019
3736.00,0.0018
3733.00,0.0017
3730.00,0.0014
3727.00,0.0014
3724.00,0.0013
3721.00,0.0012
3718.00,0.0010
3715.00,0.0010
3712.00,0.0012
3709.00,0.0012
3706.00,0.0010
3703.00,0.0008
3700.00,0.0008
3697.00,0.0008
3694.00,0.0007
3691.00,0.0007
3688.00,0.0008
3685.00,0.0006
3682.00,0.0004
3679.00,0.0001
3676.00,0.0003
3673.00,0.0001
3670.00,-0.0001
3667.00,-0.0004
3664.00,-0.0008
3661.00,-0.0009
3658.00,-0.0008
3655.00,-0.0006
3652.00,-0.0001
3649.00,0.0002
3646.00,0.0001
3643.00,-0.0001
3640.00,-0.0002
3637.00,-0.0002
3634.00,0.0003
3631.00,0.0008
3628.00,0.0010
3625.00,0.0011
3622.00,0.0010
3619.00,0.0010
3616.00,0.0014
3613.00,0.0015
3610.00,0.0016
3607.00,0.0014
3604.00,0.0013
3601.00,0.0011
3598.00,0.0012
3595.00,0.0012
3592.00,0.0013
3589.00,0.0015
3586.00,0.0013
3583.00,0.0012
3580.00,0.0010
3577.00,0.0010
3574.00,0.0010
3571.00,0.0012
3568.00,0.0015
3565.00,0.0014
3562.00,0.0013
3559.00,0.0011
3556.00,0.0011
3553.00,0.0011
3550.00,0.0013
3547.00,0.0015
3544.00,0.0014
3541.00,0.0012
3538.00,0.0012
3535.00,0.0012
3532.00,0.0013
3529.00,0.0013
3526.00,0.0015
3523.00,0.0015
3520.00,0.0014
3517.00,0.0013
3514.00,0.0013
3511.00,0.0014
3508.00,0.0014
3505.00,0.0015
3502.00,0.0015
3499.00,0.0015
3496.00,0.0014
3493.00,0.0014
3490.00,0.0014
3487.00,0.0014
3484.00,0.0014
3481.00,0.0014
3478.00,0.0015
3475.00,0.0014
3472.00,0.0015
3469.00,0.0016
3466.00,0.0015
3463.00,0.0016
3460.00,0.0016
3457.00,0.0015
3454.00,0.0015
3451.00,0.0016
3448.00,0.0016
3445.00,0.0017
3442.00,0.0016
3439.00,0.0017
3436.00,0.0017
3433.00,0.0017
3430.00,0.0017
3427.00,0.0017
3424.00,0.0017
3421.00,0.0017
3418.00,0.0017
3415.00,0.0018
3412.00,0.0018
3409.00,0.0018
3406.00,0.0018
3403.00,0.0017
3400.00,0.0018
3397.00,0.0018
3394.00,0.0018
3391.00,0.0018
3388.00,0.0018
3385.00,0.0018
3382.00,0.0018
3379.00,0.0019
3376.00,0.0019
3373.00,0.0019
3370.00,0.0020
3367.00,0.0019
3364.00,0.0019
3361.00,0.0020
3358.00,0.0019
3355.00,0.0019
3352.00,0.0020
3349.00,0.0019
3346.00,0.0019
3343.00,0.0019
3340.00,0.0019
3337.00,0.0019
3334.00,0.0019
3331.00,0.0020
3328.00,0.0019
3325.00,0.0020
3322.00,0.0020
3319.00,0.0019
3316.00,0.0020
3313.00,0.0020
3310.00,0.0020
3307.00,0.0020
3304.00,0.0020
3301.00,0.0019
3298.00,0.0020
3295.00,0.0020
3292.00,0.0021
3289.00,0.0020
3286.00,0.0020
3283.00,0.0019
3280.00,0.0020
3277.00,0.0020
3274.00,0.0020
3271.00,0.0019
3268.00,0.0019
3265.00,0.0019
3262.00,0.0018
3259.00,0.0018
3256.00,0.0019
3253.00,0.0018
3250.00,0.0018
3247.00,0.0018
3244.00,0.0017
3241.00,0.0017
3238.00,0.0017
3235.00,0.0016
3232.00,0.0016
3229.00,0.0016
3226.00,0.0015
3223.00,0.0015
3220.00,0.0016
3217.00,0.0016
3214.00,0.0016
3211.00,0.0015
3208.00,0.0015
3205.00,0.0015
3202.00,0.0014
3199.00,0.0014
3196.00,0.0014
3193.00,0.0015
3190.00,0.0014
3187.00,0.0014
3184.00,0.0014
3181.00,0.0014
3178.00,0.0014
3175.00,0.0014
3172.00,0.0014
3169.00,0.0014
3166.00,0.0014
3163.00,0.0014
3160.00,0.0014
3157.00,0.0014
3154.00,0.0015
3151.00,0.0014
3148.00,0.0013
3145.00,0.0014
3142.00,0.0015
3139.00,0.0014
3136.00,0.0013
3133.00,0.0013
3130.00,0.0014
3127.00,0.0013
3124.00,0.0014
3121.00,0.0015
3118.00,0.0015
3115.00,0.0016
3112.00,0.0019
3109.00,0.0021
3106.00,0.0024
3103.00,0.0026
3100.00,0.0026
3097.00,0.0025
3094.00,0.0025
3091.00,0.0030
3088.00,0.0039
3085.00,0.0051
3082.00,0.0056
3079.00,0.0052
3076.00,0.0045
3073.00,0.0042
3070.00,0.0044
3067.00,0.0053
3064.00,0.0065
3061.00,0.0075
3058.00,0.0074
3055.00,0.0063
3052.00,0.0052
3049.00,0.0044
3046.00,0.0040
3043.00,0.0041
3040.00,0.0045
3037.00,0.0055
3034.00,0.0073
3031.00,0.0099
3028.00,0.0128
3025.00,0.0140
3022.00,0.0121
3019.00,0.0084
3016.00,0.0052
3013.00,0.0031
3010.00,0.0015
3007.00,0.0003
3004.00,-0.0008
3001.00,-0.0020
2998.00,-0.0036
2995.00,-0.0053
2992.00,-0.0065
2989.00,-0.0074
2986.00,-0.0088
2983.00,-0.0127
2980.00,-0.0137
2977.00,-0.0114
2974.00,-0.0106
2971.00,-0.0106
2968.00,-0.0088
2965.00,-0.0072
2962.00,-0.0059
2959.00,-0.0048
2956.00,-0.0037
2953.00,-0.0023
2950.00,-0.0009
2947.00,0.0006
2944.00,0.0023
2941.00,0.0038
2938.00,0.0053
2935.00,0.0070
2932.00,0.0086
2929.00,0.0103
2926.00,0.0116
2923.00,0.0122
2920.00,0.0122
2917.00,0.0117
2914.00,0.0108
2911.00,0.0098
2908.00,0.0085
2905.00,0.0070
2902.00,0.0057
2899.00,0.0045
2896.00,0.0033
2893.00,0.0022
2890.00,0.0014
2887.00,0.0009
2884.00,0.0006
2881.00,0.0008
2878.00,0.0012
2875.00,0.0013
2872.00,0.0013
2869.00,0.0014
2866.00,0.0019
2863.00,0.0025
2860.00,0.0033
2857.00,0.0042
2854.00,0.0050
2851.00,0.0056
2848.00,0.0059
2845.00,0.0057
2842.00,0.0049
2839.00,0.0038
2836.00,0.0028
2833.00,0.0021
2830.00,0.0017
2827.00,0.0015
2824.00,0.0014
2821.00,0.0014
2818.00,0.0013
2815.00,0.0013
2812.00,0.0013
2809.00,0.0013
2806.00,0.0013
2803.00,0.0013
2800.00,0.0012
2797.00,0.0012
2794.00,0.0012
2791.00,0.0012
2788.00,0.0011
2785.00,0.0011
2782.00,0.0011
2779.00,0.0012
2776.00,0.0011
2773.00,0.0011
2770.00,0.0011
2767.00,0.0010
2764.00,0.0010
2761.00,0.0010
2758.00,0.0011
2755.00,0.0010
2752.00,0.0011
2749.00,0.0011
2746.00,0.0011
2743.00,0.0010
2740.00,0.0011
2737.00,0.0011
2734.00,0.0011
2731.00,0.0011
2728.00,0.0011
2725.00,0.0012
2722.00,0.0011
2719.00,0.0011
2716.00,0.0012
2713.00,0.0012
2710.00,0.0012
2707.00,0.0012
2704.00,0.0012
2701.00,0.0012
2698.00,0.0012
2695.00,0.0012
2692.00,0.0011
2689.00,0.0011
2686.00,0.0011
2683.00,0.0011
2680.00,0.0011
2677.00,0.0011
2674.00,0.0011
2671.00,0.0011
2668.00,0.0011
2665.00,0.0011
2662.00,0.0011
2659.00,0.0012
2656.00,0.0013
2653.00,0.0013
2650.00,0.0013
2647.00,0.0013
2644.00,0.0013
2641.00,0.0013
2638.00,0.0013
2635.00,0.0014
2632.00,0.0014
2629.00,0.0014
2626.00,0.0013
2623.00,0.0013
2620.00,0.0013
2617.00,0.0013
2614.00,0.0013
2611.00,0.0013
2608.00,0.0013
2605.00,0.0013
2602.00,0.0013
2599.00,0.0013
2596.00,0.0013
2593.00,0.0012
2590.00,0.0012
2587.00,0.0012
2584.00,0.0013
2581.00,0.0013
2578.00,0.0013
2575.00,0.0013
2572.00,0.0011
2569.00,0.0011
2566.00,0.0011
2563.00,0.0011
2560.00,0.0012
2557.00,0.0011
2554.00,0.0011
2551.00,0.0012
2548.00,0.0011
2545.00,0.0011
2542.00,0.0012
2539.00,0.0011
2536.00,0.0010
2533.00,0.0011
2530.00,0.0010
2527.00,0.0010
2524.00,0.0010
2521.00,0.0010
2518.00,0.0009
2515.00,0.0010
2512.00,0.0010
2509.00,0.0010
2506.00,0.0010
2503.00,0.0011
2500.00,0.0010
2497.00,0.0010
2494.00,0.0011
2491.00,0.0010
2488.00,0.0010
2485.00,0.0009
2482.00,0.0009
2479.00,0.0009
2476.00,0.0010
2473.00,0.0009
2470.00,0.0009
2467.00,0.0009
2464.00,0.0009
2461.00,0.0010
2458.00,0.0011
2455.00,0.0011
2452.00,0.0011
2449.00,0.0010
2446.00,0.0009
2443.00,0.0009
2440.00,0.0009
2437.00,0.0008
2434.00,0.0008
2431.00,0.0009
2428.00,0.0009
2425.00,0.0008
2422.00,0.0008
2419.00,0.0008
2416.00,0.0008
2413.00,0.0008
2410.00,0.0008
2407.00,0.0007
2404.00,0.0007
2401.00,0.0007
2398.00,0.0008
2395.00,0.0007
2392.00,0.0007
2389.00,0.0007
2386.00,0.0007
2383.00,0.0007
2380.00,0.0006
2377.00,0.0006
2374.00,0.0007
2371.00,0.0006
2368.00,0.0006
2365.00,0.0008
2362.00,0.0009
2359.00,0.0008
2356.00,0.0008
2353.00,0.0009
2350.00,0.0009
2347.00,0.0010
2344.00,0.0011
2341.00,0.0011
2338.00,0.0011
2335.00,0.0011
2332.00,0.0010
2329.00,0.0012
2326.00,0.0018
2323.00,0.0017
2320.00,0.0014
2317.00,0.0015
2314.00,0.0014
2311.00,0.0014
2308.00,0.0013
2305.00,0.0013
2302.00,0.0013
2299.00,0.0013
2296.00,0.0013
2293.00,0.0015
2290.00,0.0016
2287.00,0.0017
2284.00,0.0015
2281.00,0.0014
2278.00,0.0014
2275.00,0.0014
2272.00,0.0012
2269.00,0.0012
2266.00,0.0013
2263.00,0.0013
2260.00,0.0012
2257.00,0.0012
2254.00,0.0011
2251.00,0.0011
2248.00,0.0012
2245.00,0.0012
2242.00,0.0011
2239.00,0.0012
2236.00,0.0011
2233.00,0.0011
2230.00,0.0011
2227.00,0.0009
2224.00,0.0008
2221.00,0.0010
2218.00,0.0009
2215.00,0.0011
2212.00,0.0009
2209.00,0.0007
2206.00,0.0009
2203.00,0.0009
2200.00,0.0010
2197.00,0.0011
2194.00,0.0010
2191.00,0.0011
2188.00,0.0011
2185.00,0.0011
2182.00,0.0009
2179.00,0.0008
2176.00,0.0005
2173.00,0.0007
2170.00,0.0013
2167.00,0.0017
2164.00,0.0018
2161.00,0.0007
2158.00,-0.0012
2155.00,-0.0007
2152.00,-0.0004
2149.00,-0.0001
2146.00,-0.0005
2143.00,-0.0002
2140.00,-0.0000
2137.00,-0.0001
2134.00,-0.0004
2131.00,-0.0002
2128.00,-0.0000
2125.00,0.0003
2122.00,0.0005
2119.00,0.0005
2116.00,0.0006
2113.00,0.0008
2110.00,0.0007
2107.00,0.0008
2104.00,0.0007
2101.00,0.0006
2098.00,0.0004
2095.00,0.0003
2092.00,0.0005
2089.00,0.0007
2086.00,0.0007
2083.00,0.0007
2080.00,0.0008
2077.00,0.0008
2074.00,0.0010
2071.00,0.0010
2068.00,0.0008
2065.00,0.0007
2062.00,0.0007
2059.00,0.0004
2056.00,0.0007
2053.00,0.0010
2050.00,0.0012
2047.00,0.0007
2044.00,0.0007
2041.00,0.0005
2038.00,0.0007
2035.00,0.0008
2032.00,0.0007
2029.00,0.0003
2026.00,0.0002
2023.00,0.0001
2020.00,0.0002
2017.00,0.0004
2014.00,0.0005
2011.00,0.0003
2008.00,0.0000
2005.00,0.0000
2002.00,0.0002
1999.00,0.0004
1996.00,0.0007
1993.00,0.0011
1990.00,0.0013
1987.00,0.0011
1984.00,0.0012
1981.00,0.0017
1978.00,0.0009
1975.00,0.0002
1972.00,0.0004
1969.00,0.0008
1966.00,0.0012
1963.00,0.0009
1960.00,0.0008
1957.00,0.0011
1954.00,0.0015
1951.00,0.0017
1948.00,0.0018
1945.00,0.0023
1942.00,0.0025
1939.00,0.0022
1936.00,0.0019
1933.00,0.0013
1930.00,0.0011
1927.00,0.0009
1924.00,0.0008
1921.00,0.0009
1918.00,0.0009
1915.00,0.0007
1912.00,0.0006
1909.00,0.0007
1906.00,0.0007
1903.00,0.0007
1900.00,0.0008
1897.00,0.0010
1894.00,0.0011
1891.00,0.0013
1888.00,0.0015
1885.00,0.0017
1882.00,0.0019
1879.00,0.0019
1876.00,0.0020
1873.00,0.0021
1870.00,0.0022
1867.00,0.0021
1864.00,0.0019
1861.00,0.0016
1858.00,0.0013
1855.00,0.0010
1852.00,0.0009
1849.00,0.0008
1846.00,0.0009
1843.00,0.0009
1840.00,0.0009
1837.00,0.0008
1834.00,0.0009
1831.00,0.0009
1828.00,0.0010
1825.00,0.0013
1822.00,0.0014
1819.00,0.0014
1816.00,0.0015
1813.00,0.0019
1810.00,0.0021
1807.00,0.0022
1804.00,0.0024
1801.00,0.0026
1798.00,0.0025
1795.00,0.0023
1792.00,0.0020
1789.00,0.0017
1786.00,0.0015
1783.00,0.0013
1780.00,0.0013
1777.00,0.0014
1774.00,0.0014
1771.00,0.0014
1768.00,0.0016
1765.00,0.0014
1762.00,0.0015
1759.00,0.0018
1756.00,0.0021
1753.00,0.0025
1750.00,0.0029
1747.00,0.0030
1744.00,0.0030
1741.00,0.0030
1738.00,0.0030
1735.00,0.0034
1732.00,0.0032
1729.00,0.0028
1726.00,0.0025
1723.00,0.0025
1720.00,0.0024
1717.00,0.0025
1714.00,0.0024
1711.00,0.0023
1708.00,0.0022
1705.00,0.0020
1702.00,0.0025
1699.00,0.0026
1696.00,0.0025
1693.00,0.0024
1690.00,0.0025
1687.00,0.0026
1684.00,0.0027
1681.00,0.0029
1678.00,0.0030
1675.00,0.0033
1672.00,0.0034
1669.00,0.0034
1666.00,0.0034
1663.00,0.0035
1660.00,0.0035
1657.00,0.0033
1654.00,0.0032
1651.00,0.0030
1648.00,0.0030
1645.00,0.0030
1642.00,0.0028
1639.00,0.0027
1636.00,0.0028
1633.00,0.0026
1630.00,0.0025
1627.00,0.0025
1624.00,0.0026
1621.00,0.0026
1618.00,0.0027
1615.00,0.0030
1612.00,0.0037
1609.00,0.0054
1606.00,0.0090
1603.00,0.0138
1600.00,0.0148
1597.00,0.0107
1594.00,0.0070
1591.00,0.0052
1588.00,0.0047
1585.00,0.0059
1582.00,0.0062
1579.00,0.0042
1576.00,0.0028
1573.00,0.0023
1570.00,0.0021
1567.00,0.0021
1564.00,0.0019
1561.00,0.0018
1558.00,0.0023
1555.00,0.0024
1552.00,0.0026
1549.00,0.0028
1546.00,0.0031
1543.00,0.0032
1540.00,0.0030
1537.00,0.0029
1534.00,0.0027
1531.00,0.0025
1528.00,0.0024
1525.00,0.0024
1522.00,0.0024
1519.00,0.0024
1516.00,0.0026
1513.00,0.0028
1510.00,0.0029
1507.00,0.0033
1504.00,0.0039
1501.00,0.0055
1498.00,0.0113
1495.00,0.0283
1492.00,0.0371
1489.00,0.0223
1486.00,0.0113
1483.00,0.0067
1480.00,0.0045
1477.00,0.0035
1474.00,0.0029
1471.00,0.0029
1468.00,0.0033
1465.00,0.0034
1462.00,0.0041
1459.00,0.0069
1456.00,0.0207
1453.00,0.0352
1450.00,0.0351
1447.00,0.0266
1444.00,0.0208
1441.00,0.0161
1438.00,0.0129
1435.00,0.0092
1432.00,0.0070
1429.00,0.0053
1426.00,0.0044
1423.00,0.0038
1420.00,0.0033
1417.00,0.0028
1414.00,0.0022
1411.00,0.0016
1408.00,0.0011
1405.00,0.0006
1402.00,-0.0001
1399.00,-0.0008
1396.00,-0.0014
1393.00,-0.0016
1390.00,-0.0010
1387.00,-0.0003
1384.00,0.0003
1381.00,0.0010
1378.00,0.0023
1375.00,0.0035
1372.00,0.0044
1369.00,0.0050
1366.00,0.0054
1363.00,0.0055
1360.00,0.0055
1357.00,0.0053
1354.00,0.0053
1351.00,0.0055
1348.00,0.0056
1345.00,0.0054
1342.00,0.0052
1339.00,0.0052
1336.00,0.0054
1333.00,0.0060
1330.00,0.0066
1327.00,0.0068
1324.00,0.0067
1321.00,0.0066
1318.00,0.0068
1315.00,0.0071
1312.00,0.0073
1309.00,0.0071
1306.00,0.0068
1303.00,0.0064
1300.00,0.0061
1297.00,0.0060
1294.00,0.0059
1291.00,0.0058
1288.00,0.0055
1285.00,0.0052
1282.00,0.0050
1279.00,0.0047
1276.00,0.0041
1273.00,0.0033
1270.00,0.0026
1267.00,0.0020
1264.00,0.0016
1261.00,0.0013
1258.00,0.0011
1255.00,0.0008
1252.00,0.0007
1249.00,0.0010
1246.00,0.0014
1243.00,0.0016
1240.00,0.0016
1237.00,0.0017
1234.00,0.0020
1231.00,0.0024
1228.00,0.0028
1225.00,0.0031
1222.00,0.0034
1219.00,0.0036
1216.00,0.0038
1213.00,0.0041
1210.00,0.0044
1207.00,0.0048
1204.00,0.0052
1201.00,0.0056
1198.00,0.0059
1195.00,0.0059
1192.00,0.0058
1189.00,0.0056
1186.00,0.0058
1183.00,0.0066
1180.00,0.0064
1177.00,0.0044
1174.00,0.0028
1171.00,0.0019
1168.00,0.0014
1165.00,0.0011
1162.00,0.0013
1159.00,0.0023
1156.00,0.0038
1153.00,0.0037
1150.00,0.0017
1147.00,0.0004
1144.00,-0.0000
1141.00,-0.0002
1138.00,-0.0002
1135.00,0.0000
1132.00,0.0003
1129.00,0.0006
1126.00,0.0010
1123.00,0.0015
1120.00,0.0022
1117.00,0.0030
1114.00,0.0037
1111.00,0.0042
1108.00,0.0042
1105.00,0.0042
1102.00,0.0041
1099.00,0.0040
1096.00,0.0040
1093.00,0.0038
1090.00,0.0038
1087.00,0.0040
1084.00,0.0046
1081.00,0.0053
1078.00,0.0063
1075.00,0.0075
1072.00,0.0090
1069.00,0.0101
1066.00,0.0101
1063.00,0.0092
1060.00,0.0083
1057.00,0.0079
1054.00,0.0078
1051.00,0.0077
1048.00,0.0077
1045.00,0.0077
1042.00,0.0078
1039.00,0.0086
1036.00,0.0111
1033.00,0.0165
1030.00,0.0222
1027.00,0.0235
1024.00,0.0196
1021.00,0.0158
1018.00,0.0134
1015.00,0.0119
1012.00,0.0109
1009.00,0.0105
1006.00,0.0109
1003.00,0.0113
1000.00,0.0102
997.00,0.0090
994.00,0.0086
991.00,0.0086
988.00,0.0089
985.00,0.0094
982.00,0.0097
979.00,0.0092
976.00,0.0079
973.00,0.0065
970.00,0.0059
967.00,0.0061
964.00,0.0064
961.00,0.0056
958.00,0.0038
955.00,0.0028
952.00,0.0025
949.00,0.0031
946.00,0.0037
943.00,0.0041
940.00,0.0043
937.00,0.0041
934.00,0.0042
931.00,0.0044
928.00,0.0047
925.00,0.0052
922.00,0.0059
919.00,0.0068
916.00,0.0084
913.00,0.0107
910.00,0.0138
907.00,0.0158
904.00,0.0149
901.00,0.0120
898.00,0.0090
895.00,0.0073
892.00,0.0064
889.00,0.0059
886.00,0.0054
883.00,0.0050
880.00,0.0049
877.00,0.0046
874.00,0.0045
871.00,0.0044
868.00,0.0044
865.00,0.0043
862.00,0.0043
859.00,0.0044
856.00,0.0046
853.00,0.0048
850.00,0.0056
847.00,0.0069
844.00,0.0079
841.00,0.0080
838.00,0.0071
835.00,0.0055
832.00,0.0041
829.00,0.0035
826.00,0.0033
823.00,0.0033
820.00,0.0032
817.00,0.0031
814.00,0.0033
811.00,0.0034
808.00,0.0037
805.00,0.0038
802.00,0.0041
799.00,0.0047
796.00,0.0054
793.00,0.0062
790.00,0.0076
787.00,0.0092
784.00,0.0108
781.00,0.0130
778.00,0.0164
775.00,0.0212
772.00,0.0272
769.00,0.0346
766.00,0.0420
763.00,0.0492
760.00,0.0568
757.00,0.0627
754.00,0.0642
751.00,0.0634
748.00,0.0626
745.00,0.0574
742.00,0.0454
739.00,0.0337
736.00,0.0245
733.00,0.0167
730.00,0.0115
727.00,0.0092
724.00,0.0083
721.00,0.0082
718.00,0.0088
715.00,0.0105
712.00,0.0150
709.00,0.0265
706.00,0.0502
703.00,0.0880
700.00,0.1354
697.00,0.1807
694.00,0.1905
691.00,0.1411
688.00,0.0908
685.00,0.0636
682.00,0.0488
679.00,0.0396
676.00,0.0336
673.00,0.0299
670.00,0.0272
667.00,0.0241
664.00,0.0219
661.00,0.0194
658.00,0.0172
655.00,0.0152
652.00,0.0136
649.00,0.0125
646.00,0.0114
643.00,0.0108
640.00,0.0109
637.00,0.0114
634.00,0.0122
631.00,0.0130
628.00,0.0135
625.00,0.0142
622.00,0.0150
619.00,0.0147
616.00,0.0135
613.00,0.0130
610.00,0.0125
607.00,0.0121
604.00,0.0119
601.00,0.0121
598.00,0.0124
595.00,0.0129
592.00,0.0136
589.00,0.0140
586.00,0.0149
583.00,0.0159
580.00,0.0174
577.00,0.0197
574.00,0.0220
571.00,0.0248
568.00,0.0272
565.00,0.0301
562.00,0.0330
559.00,0.0355
556.00,0.0381
553.00,0.0410
550.00,0.0453
547.00,0.0504
544.00,0.0567
541.00,0.0632
538.00,0.0666
535.00,0.0634
532.00,0.0546
529.00,0.0445
526.00,0.0363
523.00,0.0306
520.00,0.0266
517.00,0.0237
514.00,0.0219
511.00,0.0203
508.00,0.0183
505.00,0.0167
502.00,0.0154
499.00,0.0142
496.00,0.0136
493.00,0.0128
490.00,0.0121
487.00,0.0116
484.00,0.0113
481.00,0.0110
478.00,0.0103
475.00,0.0105
472.00,0.0106
469.00,0.0100
466.00,0.0099
463.00,0.0092
460.00,0.0095
457.00,0.0097
454.00,0.0084
451.00,0.0077
448.00,0.0082
445.00,0.0088
442.00,0.0084
439.00,0.0084
436.00,0.0080
433.00,0.0078
430.00,0.0073
427.00,0.0070
424.00,0.0073
421.00,0.0080
418.00,0.0083
415.00,0.0063
412.00,0.0059
409.00,0.0071
406.00,0.0067
403.00,0.0068
400.00,0.0068