File: FTIR/db-LASE IR data/AgNPr-LASE lasered at 65C/Silk AgNPr film 65C 9.22.22.dpt
3997.65	0.00960
3993.54	0.00905
3989.42	0.00878
3985.3	0.00864
3981.18	0.00843
3977.06	0.00945
3972.94	0.00966
3968.82	0.00965
3964.7	0.00898
3960.58	0.00791
3956.46	0.00809
3952.34	0.00784
3948.22	0.00890
3944.11	0.00856
3939.99	0.00719
3935.87	0.00775
3931.75	0.00718
3927.63	0.00831
3923.51	0.00957
3919.39	0.00893
3915.27	0.00774
3911.15	0.00839
3907.03	0.00958
3902.91	0.00928
3898.79	0.00897
3894.68	0.00739
3890.56	0.00841
3886.44	0.00906
3882.32	0.00854
3878.2	0.00880
3874.08	0.00870
3869.96	0.00767
3865.84	0.00757
3861.72	0.00839
3857.6	0.00861
3853.48	0.00803
3849.36	0.00863
3845.25	0.00871
3841.13	0.00763
3837.01	0.00644
3832.89	0.00632
3828.77	0.00697
3824.65	0.00786
3820.53	0.00821
3816.41	0.00666
3812.29	0.00737
3808.17	0.00690
3804.05	0.00618
3799.93	0.00685
3795.82	0.00754
3791.7	0.00770
3787.58	0.00784
3783.46	0.00731
3779.34	0.00806
3775.22	0.00851
3771.1	0.00933
3766.98	0.00926
3762.86	0.00726
3758.74	0.00851
3754.62	0.00913
3750.5	0.00837
3746.39	0.00819
3742.27	0.00793
3738.15	0.00885
3734.03	0.00997
3729.91	0.00853
3725.79	0.00885
3721.67	0.00856
3717.55	0.00880
3713.43	0.00869
3709.31	0.00774
3705.19	0.00860
3701.07	0.00926
3696.96	0.00806
3692.84	0.00865
3688.72	0.01199
3684.6	0.01152
3680.48	0.01161
3676.36	0.01436
3672.24	0.01403
3668.12	0.01539
3664	0.01503
3659.88	0.01555
3655.76	0.01740
3651.64	0.01994
3647.53	0.02251
3643.41	0.02318
3639.29	0.02486
3635.17	0.02679
3631.05	0.02912
3626.93	0.03141
3622.81	0.03350
3618.69	0.03764
3614.57	0.03924
3610.45	0.03970
3606.33	0.04213
3602.21	0.04437
3598.1	0.04769
3593.98	0.05032
3589.86	0.05242
3585.74	0.05589
3581.62	0.05830
3577.5	0.06147
3573.38	0.06416
3569.26	0.06757
3565.14	0.07210
3561.02	0.07442
3556.9	0.07668
3552.78	0.07902
3548.67	0.08213
3544.55	0.08615
3540.43	0.08793
3536.31	0.09079
3532.19	0.09236
3528.07	0.09644
3523.95	0.10004
3519.83	0.10126
3515.71	0.10339
3511.59	0.10601
3507.47	0.10840
3503.35	0.11028
3499.24	0.11236
3495.12	0.11444
3491	0.11669
3486.88	0.11906
3482.76	0.12061
3478.64	0.12201
3474.52	0.12242
3470.4	0.12384
3466.28	0.12555
3462.16	0.12674
3458.04	0.12872
3453.92	0.13024
3449.81	0.13193
3445.69	0.13324
3441.57	0.13472
3437.45	0.13637
3433.33	0.13942
3429.21	0.14161
3425.09	0.14468
3420.97	0.14814
3416.85	0.15023
3412.73	0.15367
3408.61	0.15621
3404.49	0.16002
3400.38	0.16345
3396.26	0.16692
3392.14	0.17101
3388.02	0.17416
3383.9	0.17675
3379.78	0.18073
3375.66	0.18421
3371.54	0.18954
3367.42	0.19387
3363.3	0.19799
3359.18	0.20332
3355.06	0.20895
3350.95	0.21389
3346.83	0.21825
3342.71	0.22416
3338.59	0.23182
3334.47	0.23674
3330.35	0.24282
3326.23	0.24866
3322.11	0.25589
3317.99	0.26053
3313.87	0.26614
3309.75	0.27313
3305.63	0.27832
3301.52	0.28324
3297.4	0.28807
3293.28	0.29322
3289.16	0.29633
3285.04	0.29755
3280.92	0.29896
3276.8	0.29914
3272.68	0.29680
3268.56	0.29307
3264.44	0.28867
3260.32	0.28472
3256.2	0.27945
3252.09	0.27215
3247.97	0.26624
3243.85	0.26019
3239.73	0.25485
3235.61	0.24906
3231.49	0.24360
3227.37	0.23741
3223.25	0.23192
3219.13	0.22580
3215.01	0.22055
3210.89	0.21513
3206.77	0.20938
3202.65	0.20349
3198.54	0.19693
3194.42	0.19066
3190.3	0.18423
3186.18	0.17786
3182.06	0.17114
3177.94	0.16501
3173.82	0.15954
3169.7	0.15287
3165.58	0.14672
3161.46	0.14161
3157.34	0.13649
3153.22	0.13135
3149.11	0.12709
3144.99	0.12340
3140.87	0.12002
3136.75	0.11776
3132.63	0.11558
3128.51	0.11330
3124.39	0.11230
3120.27	0.11291
3116.15	0.11273
3112.03	0.11343
3107.91	0.11457
3103.79	0.11563
3099.68	0.11769
3095.56	0.11950
3091.44	0.12168
3087.32	0.12392
3083.2	0.12606
3079.08	0.12781
3074.96	0.12835
3070.84	0.12813
3066.72	0.12775
3062.6	0.12541
3058.48	0.12317
3054.36	0.11949
3050.25	0.11572
3046.13	0.11173
3042.01	0.10814
3037.89	0.10280
3033.77	0.09807
3029.65	0.09315
3025.53	0.08918
3021.41	0.08599
3017.29	0.08385
3013.17	0.08156
3009.05	0.07988
3004.93	0.07824
3000.82	0.07886
2996.7	0.08144
2992.58	0.08373
2988.46	0.08605
2984.34	0.08786
2980.22	0.08928
2976.1	0.08845
2971.98	0.08674
2967.86	0.08671
2963.74	0.08663
2959.62	0.08699
2955.5	0.08633
2951.39	0.08774
2947.27	0.09083
2943.15	0.09595
2939.03	0.09952
2934.91	0.10047
2930.79	0.09822
2926.67	0.09375
2922.55	0.08901
2918.43	0.08376
2914.31	0.07735
2910.19	0.07137
2906.07	0.06742
2901.96	0.06490
2897.84	0.06241
2893.72	0.06133
2889.6	0.06042
2885.48	0.06019
2881.36	0.06078
2877.24	0.06028
2873.12	0.05834
2869	0.05522
2864.88	0.05242
2860.76	0.05050
2856.64	0.04937
2852.53	0.04875
2848.41	0.04784
2844.29	0.04581
2840.17	0.04466
2836.05	0.04353
2831.93	0.04287
2827.81	0.04241
2823.69	0.04248
2819.57	0.04181
2815.45	0.04111
2811.33	0.04047
2807.21	0.03951
2803.1	0.03842
2798.98	0.03772
2794.86	0.03627
2790.74	0.03514
2786.62	0.03489
2782.5	0.03338
2778.38	0.03223
2774.26	0.03124
2770.14	0.03024
2766.02	0.02920
2761.9	0.02854
2757.78	0.02771
2753.67	0.02639
2749.55	0.02598
2745.43	0.02585
2741.31	0.02490
2737.19	0.02436
2733.07	0.02385
2728.95	0.02320
2724.83	0.02302
2720.71	0.02250
2716.59	0.02203
2712.47	0.02161
2708.35	0.02102
2704.24	0.02077
2700.12	0.02076
2696	0.02044
2691.88	0.02030
2687.76	0.02003
2683.64	0.02009
2679.52	0.01950
2675.4	0.01904
2671.28	0.01889
2667.16	0.01895
2663.04	0.01887
2658.92	0.01831
2654.81	0.01869
2650.69	0.01808
2646.57	0.01814
2642.45	0.01803
2638.33	0.01818
2634.21	0.01748
2630.09	0.01738
2625.97	0.01711
2621.85	0.01640
2617.73	0.01646
2613.61	0.01657
2609.49	0.01643
2605.38	0.01566
2601.26	0.01554
2597.14	0.01527
2593.02	0.01476
2588.9	0.01435
2584.78	0.01505
2580.66	0.01422
2576.54	0.01316
2572.42	0.01331
2568.3	0.01327
2564.18	0.01268
2560.06	0.01177
2555.95	0.01147
2551.83	0.01129
2547.71	0.01103
2543.59	0.01101
2539.47	0.01118
2535.35	0.01103
2531.23	0.01049
2527.11	0.01025
2522.99	0.01014
2518.87	0.01032
2514.75	0.00997
2510.63	0.00989
2506.52	0.01068
2502.4	0.01057
2498.28	0.01097
2494.16	0.01040
2490.04	0.01108
2485.92	0.01050
2481.8	0.00992
2477.68	0.00964
2473.56	0.00992
2469.44	0.01017
2465.32	0.00974
2461.2	0.01020
2457.09	0.00992
2452.97	0.00953
2448.85	0.00999
2444.73	0.00987
2440.61	0.00959
2436.49	0.00905
2432.37	0.00898
2428.25	0.00887
2424.13	0.00925
2420.01	0.00846
2415.89	0.00864
2411.77	0.00910
2407.66	0.00850
2403.54	0.00814
2399.42	0.00813
2395.3	0.00816
2391.18	0.00854
2387.06	0.00805
2382.94	0.00784
2378.82	0.00802
2374.7	0.00802
2370.58	0.00695
2366.46	0.00685
2362.34	0.00739
2358.23	0.00776
2354.11	0.00803
2349.99	0.00801
2345.87	0.00845
2341.75	0.00775
2337.63	0.00791
2333.51	0.00891
2329.39	0.00912
2325.27	0.01055
2321.15	0.00944
2317.03	0.00852
2312.91	0.00902
2308.8	0.00872
2304.68	0.00894
2300.56	0.00882
2296.44	0.00830
2292.32	0.00824
2288.2	0.00875
2284.08	0.00950
2279.96	0.00879
2275.84	0.00853
2271.72	0.00822
2267.6	0.00703
2263.48	0.00628
2259.36	0.00809
2255.25	0.00627
2251.13	0.00688
2247.01	0.00820
2242.89	0.00763
2238.77	0.00781
2234.65	0.00707
2230.53	0.00691
2226.41	0.00669
2222.29	0.00717
2218.17	0.00722
2214.05	0.00731
2209.93	0.00714
2205.82	0.00727
2201.7	0.00640
2197.58	0.00878
2193.46	0.00831
2189.34	0.00726
2185.22	0.00694
2181.1	0.00692
2176.98	0.00952
2172.86	0.00788
2168.74	0.00725
2164.62	0.00836
2160.5	0.00624
2156.39	0.00284
2152.27	0.00497
2148.15	0.00554
2144.03	0.00612
2139.91	0.00719
2135.79	0.00679
2131.67	0.00712
2127.55	0.00717
2123.43	0.00733
2119.31	0.00787
2115.19	0.00757
2111.07	0.00815
2106.96	0.00843
2102.84	0.00829
2098.72	0.00754
2094.6	0.00686
2090.48	0.00716
2086.36	0.00823
2082.24	0.00847
2078.12	0.00803
2074	0.00820
2069.88	0.00825
2065.76	0.00846
2061.64	0.00722
2057.53	0.00760
2053.41	0.00846
2049.29	0.00880
2045.17	0.00697
2041.05	0.00510
2036.93	0.00494
2032.81	0.00425
2028.69	0.00366
2024.57	0.00255
2020.45	0.00306
2016.33	0.00626
2012.21	0.00556
2008.1	0.00547
2003.98	0.00486
1999.86	0.00607
1995.74	0.00536
1991.62	0.00439
1987.5	0.00571
1983.38	0.00843
1979.26	0.00652
1975.14	0.00420
1971.02	0.00502
1966.9	0.00423
1962.78	0.00315
1958.67	0.00417
1954.55	0.00515
1950.43	0.00519
1946.31	0.00603
1942.19	0.00489
1938.07	0.00497
1933.95	0.00514
1929.83	0.00443
1925.71	0.00546
1921.59	0.00655
1917.47	0.00610
1913.35	0.00586
1909.24	0.00592
1905.12	0.00608
1901	0.00603
1896.88	0.00659
1892.76	0.00666
1888.64	0.00688
1884.52	0.00644
1880.4	0.00586
1876.28	0.00634
1872.16	0.00632
1868.04	0.00674
1863.92	0.00666
1859.81	0.00640
1855.69	0.00677
1851.57	0.00684
1847.45	0.00687
1843.33	0.00734
1839.21	0.00762
1835.09	0.00737
1830.97	0.00782
1826.85	0.00793
1822.73	0.00779
1818.61	0.00770
1814.49	0.00801
1810.38	0.00851
1806.26	0.00855
1802.14	0.00878
1798.02	0.00913
1793.9	0.00923
1789.78	0.00979
1785.66	0.01006
1781.54	0.01066
1777.42	0.01122
1773.3	0.01172
1769.18	0.01196
1765.06	0.01200
1760.95	0.01284
1756.83	0.01319
1752.71	0.01400
1748.59	0.01514
1744.47	0.01558
1740.35	0.01641
1736.23	0.01741
1732.11	0.01904
1727.99	0.02019
1723.87	0.02222
1719.75	0.02543
1715.63	0.03191
1711.52	0.03976
1707.4	0.05261
1703.28	0.07110
1699.16	0.09575
1695.04	0.12191
1690.92	0.14330
1686.8	0.16518
1682.68	0.19754
1678.56	0.22217
1674.44	0.25066
1670.32	0.28292
1666.2	0.31637
1662.09	0.34930
1657.97	0.37964
1653.85	0.40921
1649.73	0.44123
1645.61	0.46051
1641.49	0.47143
1637.37	0.47299
1633.25	0.46553
1629.13	0.44845
1625.01	0.41953
1620.89	0.38067
1616.77	0.33897
1612.66	0.29595
1608.54	0.25388
1604.42	0.21610
1600.3	0.19161
1596.18	0.17745
1592.06	0.16686
1587.94	0.16069
1583.82	0.16162
1579.7	0.16820
1575.58	0.18265
1571.46	0.19973
1567.34	0.22342
1563.23	0.24465
1559.11	0.27359
1554.99	0.30733
1550.87	0.33104
1546.75	0.35423
1542.63	0.37556
1538.51	0.39960
1534.39	0.41127
1530.27	0.42195
1526.15	0.42816
1522.03	0.43478
1517.91	0.44863
1513.8	0.45881
1509.68	0.45069
1505.56	0.42068
1501.44	0.39241
1497.32	0.35438
1493.2	0.31420
1489.08	0.27383
1484.96	0.23737
1480.84	0.21181
1476.72	0.19359
1472.6	0.18224
1468.48	0.17820
1464.37	0.18076
1460.25	0.18762
1456.13	0.20068
1452.01	0.20703
1447.89	0.20387
1443.77	0.19277
1439.65	0.17855
1435.53	0.16405
1431.41	0.15546
1427.29	0.15359
1423.17	0.15875
1419.05	0.16900
1414.94	0.17983
1410.82	0.18499
1406.7	0.18315
1402.58	0.17561
1398.46	0.16936
1394.34	0.16842
1390.22	0.17163
1386.1	0.17609
1381.98	0.17832
1377.86	0.17772
1373.74	0.17256
1369.62	0.16271
1365.5	0.15015
1361.39	0.13814
1357.27	0.13063
1353.15	0.12806
1349.03	0.13067
1344.91	0.13756
1340.79	0.14658
1336.67	0.15488
1332.55	0.15681
1328.43	0.15191
1324.31	0.14349
1320.19	0.13613
1316.07	0.13303
1311.96	0.13321
1307.84	0.13501
1303.72	0.13758
1299.6	0.14028
1295.48	0.14347
1291.36	0.14659
1287.24	0.14929
1283.12	0.15253
1279	0.15722
1274.88	0.16386
1270.76	0.17184
1266.64	0.17972
1262.53	0.18729
1258.41	0.19527
1254.29	0.20446
1250.17	0.21529
1246.05	0.22669
1241.93	0.23745
1237.81	0.24579
1233.69	0.24981
1229.57	0.24725
1225.45	0.23810
1221.33	0.22257
1217.21	0.20276
1213.1	0.18207
1208.98	0.16304
1204.86	0.14667
1200.74	0.13269
1196.62	0.12140
1192.5	0.11408
1188.38	0.11005
1184.26	0.10924
1180.14	0.11248
1176.02	0.11931
1171.9	0.12506
1167.78	0.12663
1163.67	0.12568
1159.55	0.12256
1155.43	0.11783
1151.31	0.11206
1147.19	0.10583
1143.07	0.10043
1138.95	0.09614
1134.83	0.09316
1130.71	0.09171
1126.59	0.09075
1122.47	0.09034
1118.35	0.08998
1114.24	0.08947
1110.12	0.08983
1106	0.09053
1101.88	0.08957
1097.76	0.08688
1093.64	0.08520
1089.52	0.08719
1085.4	0.09286
1081.28	0.09994
1077.16	0.10644
1073.04	0.11084
1068.92	0.11311
1064.81	0.11355
1060.69	0.11507
1056.57	0.11711
1052.45	0.11509
1048.33	0.10932
1044.21	0.10224
1040.09	0.09632
1035.97	0.09248
1031.85	0.09057
1027.73	0.08925
1023.61	0.08885
1019.49	0.09437
1015.38	0.10155
1011.26	0.10009
1007.14	0.09055
1003.02	0.07938
998.899	0.07016
994.78	0.06317
990.66	0.05777
986.541	0.05384
982.422	0.05201
978.303	0.05116
974.184	0.05113
970.065	0.05132
965.945	0.05237
961.826	0.05397
957.707	0.05546
953.588	0.05695
949.469	0.05827
945.35	0.05834
941.23	0.05726
937.111	0.05586
932.992	0.05396
928.873	0.05196
924.754	0.05013
920.635	0.04831
916.515	0.04652
912.396	0.04486
908.277	0.04363
904.158	0.04295
900.039	0.04231
895.92	0.04188
891.8	0.04147
887.681	0.04156
883.562	0.04187
879.443	0.04246
875.324	0.04305
871.205	0.04388
867.085	0.04598
862.966	0.04855
858.847	0.05148
854.728	0.05443
850.609	0.05624
846.49	0.05667
842.37	0.05749
838.251	0.05965
834.132	0.06200
830.013	0.06342
825.894	0.06377
821.774	0.06333
817.655	0.06337
813.536	0.06478
809.417	0.06654
805.298	0.06802
801.179	0.06932
797.059	0.07023
792.94	0.07099
788.821	0.07253
784.702	0.07443
780.583	0.07654
776.464	0.07834
772.344	0.08024
768.225	0.08235
764.106	0.08486
759.987	0.08709
755.868	0.08982
751.749	0.09278
747.629	0.09559
743.51	0.09897
739.391	0.10158
735.272	0.10394
731.153	0.10647
727.034	0.10942
722.914	0.11225
718.795	0.11474
714.676	0.11732
710.557	0.12029
706.438	0.12352
702.319	0.12676
698.199	0.12943
694.08	0.13181
689.961	0.13414
685.842	0.13690
681.723	0.13904
677.604	0.14114
673.484	0.14343
669.365	0.14493
665.246	0.14749
661.127	0.14854
657.008	0.14950
652.889	0.15037
648.769	0.15097
644.65	0.15137
640.531	0.15117
636.412	0.15122
632.293	0.15105
628.173	0.15122
624.054	0.15121
619.935	0.15105
615.816	0.15127
611.697	0.15116
607.578	0.15130
603.458	0.15156
599.339	0.15222
595.22	0.15265
591.101	0.15423
586.982	0.15550
582.863	0.15663
578.743	0.15889
574.624	0.16105
570.505	0.16279
566.386	0.16621
562.267	0.16877
558.148	0.17135
554.028	0.17493
549.909	0.17745
545.79	0.17889
541.671	0.17962
537.552	0.17922
533.433	0.17915
529.313	0.17822
525.194	0.17761
521.075	0.17606
516.956	0.17552
512.837	0.17582
508.718	0.17536
504.598	0.17467
500.479	0.17352
496.36	0.17155
492.241	0.17080
488.122	0.16982
484.003	0.16861
479.883	0.16659
475.764	0.16414
471.645	0.16122
467.526	0.15884
463.407	0.15725
459.288	0.15551
455.168	0.15293
451.049	0.15075
446.93	0.14826
442.811	0.14715
438.692	0.14451
434.572	0.14200
430.453	0.14130
426.334	0.13993
422.215	0.13956
418.096	0.13906
413.977	0.13768
409.857	0.13664
405.738	0.13529
401.619	0.13272
399.56	0.13112