File: FTIR/db-LASE IR data/AgNPr-LASE lasered at 65C/Silk AgNPr film 65C 8.26.22.dpt
3997.65	-0.00749
3993.54	-0.00727
3989.42	-0.00553
3985.3	-0.00539
3981.18	-0.00516
3977.06	-0.00544
3972.94	-0.00517
3968.82	-0.00541
3964.7	-0.00628
3960.58	-0.00608
3956.46	-0.00628
3952.34	-0.00708
3948.22	-0.00739
3944.11	-0.00795
3939.99	-0.00712
3935.87	-0.00712
3931.75	-0.00495
3927.63	-0.00740
3923.51	-0.00643
3919.39	-0.00534
3915.27	-0.00572
3911.15	-0.00700
3907.03	-0.00788
3902.91	-0.00524
3898.79	-0.00562
3894.68	-0.00887
3890.56	-0.00572
3886.44	-0.00660
3882.32	-0.00680
3878.2	-0.00763
3874.08	-0.00701
3869.96	-0.00636
3865.84	-0.00639
3861.72	-0.00475
3857.6	-0.01058
3853.48	0.00362
3849.36	-0.00876
3845.25	-0.00704
3841.13	-0.00716
3837.01	-0.00675
3832.89	-0.00805
3828.77	-0.00706
3824.65	-0.00875
3820.53	-0.00414
3816.41	-0.00592
3812.29	-0.01040
3808.17	-0.00483
3804.05	-0.00751
3799.93	-0.00652
3795.82	-0.00653
3791.7	-0.00663
3787.58	-0.00529
3783.46	-0.00705
3779.34	-0.00532
3775.22	-0.00775
3771.1	-0.00504
3766.98	-0.00500
3762.86	-0.00794
3758.74	-0.00462
3754.62	-0.00789
3750.5	-0.00271
3746.39	-0.00607
3742.27	-0.00589
3738.15	-0.00460
3734.03	0.00079
3729.91	-0.00680
3725.79	-0.00386
3721.67	-0.00241
3717.55	-0.00657
3713.43	-0.00407
3709.31	-0.00234
3705.19	-0.00491
3701.07	-0.00067
3696.96	-0.00431
3692.84	-0.00454
3688.72	0.00117
3684.6	-0.00441
3680.48	-0.00357
3676.36	0.00210
3672.24	-0.00375
3668.12	0.00282
3664	0.00221
3659.88	0.00404
3655.76	0.00722
3651.64	0.00837
3647.53	0.01410
3643.41	0.01124
3639.29	0.01540
3635.17	0.01799
3631.05	0.02063
3626.93	0.02631
3622.81	0.02486
3618.69	0.03191
3614.57	0.03164
3610.45	0.03441
3606.33	0.03690
3602.21	0.03882
3598.1	0.04309
3593.98	0.04684
3589.86	0.04817
3585.74	0.05502
3581.62	0.05396
3577.5	0.05795
3573.38	0.06169
3569.26	0.06573
3565.14	0.07016
3561.02	0.07261
3556.9	0.07620
3552.78	0.07914
3548.67	0.08185
3544.55	0.08653
3540.43	0.08814
3536.31	0.09308
3532.19	0.09519
3528.07	0.09784
3523.95	0.10174
3519.83	0.10380
3515.71	0.10638
3511.59	0.10989
3507.47	0.11159
3503.35	0.11464
3499.24	0.11678
3495.12	0.11952
3491	0.12174
3486.88	0.12416
3482.76	0.12464
3478.64	0.12612
3474.52	0.12918
3470.4	0.13100
3466.28	0.13218
3462.16	0.13346
3458.04	0.13474
3453.92	0.13732
3449.81	0.13812
3445.69	0.13989
3441.57	0.14110
3437.45	0.14309
3433.33	0.14493
3429.21	0.14749
3425.09	0.14958
3420.97	0.15192
3416.85	0.15471
3412.73	0.15821
3408.61	0.16119
3404.49	0.16327
3400.38	0.16631
3396.26	0.16988
3392.14	0.17313
3388.02	0.17594
3383.9	0.17933
3379.78	0.18298
3375.66	0.18663
3371.54	0.18965
3367.42	0.19338
3363.3	0.19790
3359.18	0.20274
3355.06	0.20704
3350.95	0.21108
3346.83	0.21616
3342.71	0.22070
3338.59	0.22636
3334.47	0.23133
3330.35	0.23718
3326.23	0.24317
3322.11	0.24834
3317.99	0.25371
3313.87	0.25979
3309.75	0.26471
3305.63	0.27013
3301.52	0.27550
3297.4	0.27992
3293.28	0.28481
3289.16	0.28820
3285.04	0.29060
3280.92	0.29123
3276.8	0.29255
3272.68	0.29220
3268.56	0.28944
3264.44	0.28533
3260.32	0.28139
3256.2	0.27671
3252.09	0.27198
3247.97	0.26644
3243.85	0.26138
3239.73	0.25607
3235.61	0.25185
3231.49	0.24687
3227.37	0.24165
3223.25	0.23679
3219.13	0.23154
3215.01	0.22616
3210.89	0.21973
3206.77	0.21414
3202.65	0.20891
3198.54	0.20329
3194.42	0.19770
3190.3	0.19051
3186.18	0.18359
3182.06	0.17803
3177.94	0.17174
3173.82	0.16392
3169.7	0.15817
3165.58	0.15217
3161.46	0.14554
3157.34	0.14058
3153.22	0.13489
3149.11	0.13091
3144.99	0.12688
3140.87	0.12274
3136.75	0.11997
3132.63	0.11859
3128.51	0.11668
3124.39	0.11405
3120.27	0.11355
3116.15	0.11392
3112.03	0.11407
3107.91	0.11546
3103.79	0.11618
3099.68	0.11785
3095.56	0.12007
3091.44	0.12293
3087.32	0.12564
3083.2	0.12692
3079.08	0.12830
3074.96	0.12815
3070.84	0.12844
3066.72	0.12832
3062.6	0.12664
3058.48	0.12376
3054.36	0.12059
3050.25	0.11657
3046.13	0.11138
3042.01	0.10609
3037.89	0.10107
3033.77	0.09688
3029.65	0.09327
3025.53	0.08933
3021.41	0.08510
3017.29	0.08241
3013.17	0.07926
3009.05	0.07710
3004.93	0.07599
3000.82	0.07587
2996.7	0.07723
2992.58	0.07934
2988.46	0.08175
2984.34	0.08432
2980.22	0.08459
2976.1	0.08234
2971.98	0.08060
2967.86	0.07909
2963.74	0.07735
2959.62	0.07565
2955.5	0.07439
2951.39	0.07687
2947.27	0.08127
2943.15	0.08549
2939.03	0.08849
2934.91	0.08794
2930.79	0.08238
2926.67	0.07360
2922.55	0.05868
2918.43	0.03794
2914.31	0.02849
2910.19	0.03976
2906.07	0.04526
2901.96	0.04570
2897.84	0.04556
2893.72	0.04476
2889.6	0.04467
2885.48	0.04612
2881.36	0.04769
2877.24	0.04777
2873.12	0.04556
2869	0.04320
2864.88	0.04019
2860.76	0.03749
2856.64	0.03408
2852.53	0.02452
2848.41	0.01122
2844.29	0.02012
2840.17	0.02888
2836.05	0.03246
2831.93	0.03334
2827.81	0.03368
2823.69	0.03342
2819.57	0.03305
2815.45	0.03269
2811.33	0.03208
2807.21	0.03098
2803.1	0.03019
2798.98	0.02925
2794.86	0.02867
2790.74	0.02794
2786.62	0.02657
2782.5	0.02505
2778.38	0.02447
2774.26	0.02348
2770.14	0.02278
2766.02	0.02153
2761.9	0.02079
2757.78	0.02018
2753.67	0.01921
2749.55	0.01826
2745.43	0.01795
2741.31	0.01707
2737.19	0.01628
2733.07	0.01555
2728.95	0.01532
2724.83	0.01540
2720.71	0.01452
2716.59	0.01420
2712.47	0.01351
2708.35	0.01339
2704.24	0.01341
2700.12	0.01319
2696	0.01318
2691.88	0.01258
2687.76	0.01230
2683.64	0.01264
2679.52	0.01229
2675.4	0.01196
2671.28	0.01172
2667.16	0.01139
2663.04	0.01161
2658.92	0.01180
2654.81	0.01205
2650.69	0.01188
2646.57	0.01099
2642.45	0.01066
2638.33	0.01104
2634.21	0.01069
2630.09	0.01050
2625.97	0.01080
2621.85	0.01006
2617.73	0.01022
2613.61	0.01036
2609.49	0.01011
2605.38	0.00951
2601.26	0.00865
2597.14	0.00835
2593.02	0.00847
2588.9	0.00856
2584.78	0.00767
2580.66	0.00731
2576.54	0.00724
2572.42	0.00720
2568.3	0.00653
2564.18	0.00635
2560.06	0.00574
2555.95	0.00519
2551.83	0.00578
2547.71	0.00546
2543.59	0.00568
2539.47	0.00563
2535.35	0.00598
2531.23	0.00619
2527.11	0.00552
2522.99	0.00449
2518.87	0.00463
2514.75	0.00497
2510.63	0.00515
2506.52	0.00463
2502.4	0.00471
2498.28	0.00434
2494.16	0.00444
2490.04	0.00487
2485.92	0.00451
2481.8	0.00432
2477.68	0.00390
2473.56	0.00372
2469.44	0.00419
2465.32	0.00432
2461.2	0.00418
2457.09	0.00463
2452.97	0.00418
2448.85	0.00387
2444.73	0.00420
2440.61	0.00431
2436.49	0.00414
2432.37	0.00414
2428.25	0.00431
2424.13	0.00432
2420.01	0.00398
2415.89	0.00291
2411.77	0.00277
2407.66	0.00304
2403.54	0.00276
2399.42	0.00391
2395.3	0.00346
2391.18	0.00303
2387.06	0.00266
2382.94	0.00318
2378.82	0.00577
2374.7	0.00925
2370.58	0.01418
2366.46	0.01677
2362.34	0.01662
2358.23	0.01798
2354.11	0.01426
2349.99	0.01079
2345.87	0.01085
2341.75	0.01168
2337.63	0.01033
2333.51	0.01616
2329.39	0.01662
2325.27	0.00887
2321.15	0.00739
2317.03	0.00648
2312.91	0.00658
2308.8	0.00599
2304.68	0.00512
2300.56	0.00468
2296.44	0.00516
2292.32	0.00550
2288.2	0.00605
2284.08	0.00614
2279.96	0.00542
2275.84	0.00472
2271.72	0.00491
2267.6	0.00579
2263.48	0.00508
2259.36	0.00475
2255.25	0.00290
2251.13	0.00354
2247.01	0.00447
2242.89	0.00360
2238.77	0.00385
2234.65	0.00452
2230.53	0.00452
2226.41	0.00384
2222.29	0.00435
2218.17	0.00363
2214.05	0.00337
2209.93	0.00260
2205.82	0.00560
2201.7	0.00566
2197.58	0.00441
2193.46	0.00437
2189.34	0.00521
2185.22	0.00450
2181.1	0.00472
2176.98	0.00545
2172.86	0.00474
2168.74	0.00622
2164.62	0.00691
2160.5	0.00651
2156.39	0.00340
2152.27	0.00108
2148.15	0.00273
2144.03	0.00343
2139.91	0.00318
2135.79	0.00255
2131.67	0.00357
2127.55	0.00435
2123.43	0.00480
2119.31	0.00502
2115.19	0.00584
2111.07	0.00594
2106.96	0.00594
2102.84	0.00597
2098.72	0.00569
2094.6	0.00549
2090.48	0.00495
2086.36	0.00455
2082.24	0.00529
2078.12	0.00554
2074	0.00446
2069.88	0.00518
2065.76	0.00590
2061.64	0.00519
2057.53	0.00413
2053.41	0.00311
2049.29	0.00463
2045.17	0.00393
2041.05	0.00462
2036.93	0.00529
2032.81	0.00434
2028.69	0.00291
2024.57	0.00285
2020.45	0.00398
2016.33	0.00357
2012.21	0.00477
2008.1	0.00434
2003.98	0.00226
1999.86	0.00191
1995.74	0.00304
1991.62	0.00274
1987.5	0.00289
1983.38	0.00392
1979.26	0.00529
1975.14	0.00340
1971.02	0.00266
1966.9	0.00295
1962.78	0.00212
1958.67	0.00228
1954.55	0.00292
1950.43	0.00281
1946.31	0.00178
1942.19	0.00268
1938.07	0.00252
1933.95	0.00280
1929.83	0.00191
1925.71	0.00146
1921.59	0.00179
1917.47	0.00354
1913.35	0.00259
1909.24	0.00344
1905.12	0.00331
1901	0.00323
1896.88	0.00297
1892.76	0.00275
1888.64	0.00403
1884.52	0.00313
1880.4	0.00361
1876.28	0.00347
1872.16	0.00294
1868.04	0.00409
1863.92	0.00284
1859.81	0.00387
1855.69	0.00356
1851.57	0.00349
1847.45	0.00313
1843.33	0.00456
1839.21	0.00376
1835.09	0.00403
1830.97	0.00478
1826.85	0.00395
1822.73	0.00456
1818.61	0.00475
1814.49	0.00483
1810.38	0.00576
1806.26	0.00530
1802.14	0.00636
1798.02	0.00566
1793.9	0.00682
1789.78	0.00656
1785.66	0.00698
1781.54	0.00797
1777.42	0.00673
1773.3	0.00863
1769.18	0.00786
1765.06	0.00791
1760.95	0.00966
1756.83	0.00935
1752.71	0.00971
1748.59	0.01121
1744.47	0.01054
1740.35	0.01229
1736.23	0.01231
1732.11	0.01515
1727.99	0.01525
1723.87	0.01726
1719.75	0.01947
1715.63	0.02626
1711.52	0.03145
1707.4	0.04325
1703.28	0.05644
1699.16	0.07799
1695.04	0.10004
1690.92	0.11581
1686.8	0.13416
1682.68	0.16106
1678.56	0.17705
1674.44	0.20074
1670.32	0.22506
1666.2	0.24799
1662.09	0.27391
1657.97	0.29235
1653.85	0.31969
1649.73	0.33716
1645.61	0.35578
1641.49	0.36127
1637.37	0.36583
1633.25	0.36257
1629.13	0.35200
1625.01	0.33472
1620.89	0.30866
1616.77	0.28183
1612.66	0.24671
1608.54	0.21446
1604.42	0.18395
1600.3	0.16396
1596.18	0.15179
1592.06	0.14263
1587.94	0.13756
1583.82	0.13797
1579.7	0.14165
1575.58	0.15545
1571.46	0.16757
1567.34	0.18832
1563.23	0.20318
1559.11	0.23114
1554.99	0.25206
1550.87	0.26992
1546.75	0.28387
1542.63	0.29712
1538.51	0.31376
1534.39	0.32210
1530.27	0.33080
1526.15	0.33518
1522.03	0.34003
1517.91	0.34773
1513.8	0.35189
1509.68	0.34258
1505.56	0.32039
1501.44	0.29264
1497.32	0.26556
1493.2	0.23300
1489.08	0.20679
1484.96	0.17978
1480.84	0.16233
1476.72	0.14927
1472.6	0.14385
1468.48	0.13934
1464.37	0.14339
1460.25	0.14801
1456.13	0.16251
1452.01	0.16466
1447.89	0.16359
1443.77	0.15379
1439.65	0.14228
1435.53	0.13212
1431.41	0.12472
1427.29	0.12424
1423.17	0.12850
1419.05	0.13889
1414.94	0.14644
1410.82	0.15114
1406.7	0.14996
1402.58	0.14330
1398.46	0.13853
1394.34	0.13843
1390.22	0.14063
1386.1	0.14518
1381.98	0.14568
1377.86	0.14439
1373.74	0.14043
1369.62	0.13169
1365.5	0.12159
1361.39	0.11278
1357.27	0.10643
1353.15	0.10473
1349.03	0.10700
1344.91	0.11229
1340.79	0.11992
1336.67	0.12622
1332.55	0.12724
1328.43	0.12283
1324.31	0.11570
1320.19	0.11061
1316.07	0.10827
1311.96	0.10881
1307.84	0.11066
1303.72	0.11267
1299.6	0.11502
1295.48	0.11760
1291.36	0.11995
1287.24	0.12209
1283.12	0.12444
1279	0.12821
1274.88	0.13343
1270.76	0.13988
1266.64	0.14598
1262.53	0.15170
1258.41	0.15840
1254.29	0.16630
1250.17	0.17460
1246.05	0.18316
1241.93	0.19113
1237.81	0.19663
1233.69	0.19783
1229.57	0.19368
1225.45	0.18431
1221.33	0.17028
1217.21	0.15368
1213.1	0.13726
1208.98	0.12334
1204.86	0.11149
1200.74	0.10127
1196.62	0.09364
1192.5	0.08877
1188.38	0.08628
1184.26	0.08650
1180.14	0.08979
1176.02	0.09540
1171.9	0.09990
1167.78	0.10082
1163.67	0.09946
1159.55	0.09671
1155.43	0.09277
1151.31	0.08784
1147.19	0.08310
1143.07	0.07925
1138.95	0.07645
1134.83	0.07447
1130.71	0.07343
1126.59	0.07290
1122.47	0.07270
1118.35	0.07251
1114.24	0.07219
1110.12	0.07245
1106	0.07317
1101.88	0.07271
1097.76	0.07045
1093.64	0.06950
1089.52	0.07156
1085.4	0.07619
1081.28	0.08205
1077.16	0.08731
1073.04	0.09076
1068.92	0.09222
1064.81	0.09266
1060.69	0.09405
1056.57	0.09536
1052.45	0.09335
1048.33	0.08854
1044.21	0.08279
1040.09	0.07773
1035.97	0.07435
1031.85	0.07302
1027.73	0.07208
1023.61	0.07192
1019.49	0.07632
1015.38	0.08172
1011.26	0.07973
1007.14	0.07171
1003.02	0.06304
998.899	0.05622
994.78	0.05132
990.66	0.04766
986.541	0.04457
982.422	0.04348
978.303	0.04315
974.184	0.04281
970.065	0.04252
965.945	0.04341
961.826	0.04473
957.707	0.04594
953.588	0.04740
949.469	0.04855
945.35	0.04897
941.23	0.04827
937.111	0.04687
932.992	0.04536
928.873	0.04388
924.754	0.04228
920.635	0.04079
916.515	0.03945
912.396	0.03830
908.277	0.03739
904.158	0.03666
900.039	0.03631
895.92	0.03592
891.8	0.03580
887.681	0.03608
883.562	0.03654
879.443	0.03679
875.324	0.03724
871.205	0.03822
867.085	0.03982
862.966	0.04191
858.847	0.04455
854.728	0.04713
850.609	0.04839
846.49	0.04849
842.37	0.04936
838.251	0.05125
834.132	0.05321
830.013	0.05439
825.894	0.05445
821.774	0.05423
817.655	0.05458
813.536	0.05567
809.417	0.05690
805.298	0.05820
801.179	0.05884
797.059	0.05968
792.94	0.06087
788.821	0.06192
784.702	0.06375
780.583	0.06559
776.464	0.06708
772.344	0.06875
768.225	0.07050
764.106	0.07209
759.987	0.07412
755.868	0.07659
751.749	0.07895
747.629	0.08122
743.51	0.08342
739.391	0.08569
735.272	0.08793
731.153	0.08993
727.034	0.09172
722.914	0.09368
718.795	0.09573
714.676	0.09818
710.557	0.10057
706.438	0.10312
702.319	0.10554
698.199	0.10777
694.08	0.10975
689.961	0.11150
685.842	0.11355
681.723	0.11577
677.604	0.11742
673.484	0.11845
669.365	0.12662
665.246	0.12269
661.127	0.12216
657.008	0.12298
652.889	0.12372
648.769	0.12408
644.65	0.12429
640.531	0.12397
636.412	0.12406
632.293	0.12441
628.173	0.12376
624.054	0.12374
619.935	0.12375
615.816	0.12403
611.697	0.12429
607.578	0.12384
603.458	0.12405
599.339	0.12495
595.22	0.12500
591.101	0.12549
586.982	0.12616
582.863	0.12744
578.743	0.12933
574.624	0.13131
570.505	0.13245
566.386	0.13422
562.267	0.13669
558.148	0.13965
554.028	0.14183
549.909	0.14324
545.79	0.14515
541.671	0.14584
537.552	0.14495
533.433	0.14451
529.313	0.14366
525.194	0.14359
521.075	0.14314
516.956	0.14324
512.837	0.14311
508.718	0.14294
504.598	0.14206
500.479	0.14148
496.36	0.14033
492.241	0.13967
488.122	0.13894
484.003	0.13854
479.883	0.13659
475.764	0.13421
471.645	0.13291
467.526	0.13121
463.407	0.12918
459.288	0.12885
455.168	0.12717
451.049	0.12488
446.93	0.12358
442.811	0.12292
438.692	0.12084
434.572	0.12001
430.453	0.12022
426.334	0.11905
422.215	0.11666
418.096	0.11636
413.977	0.11609
409.857	0.11638
405.738	0.11538
401.619	0.11457
399.56	0.11444