File: FTIR/db-LASE IR data/AgNPr-LASE lasered at 65C/Silk AgNPr film 65C 2 9.22.22.dpt
3997.65	0.00857
3993.54	0.00901
3989.42	0.00838
3985.3	0.00788
3981.18	0.00749
3977.06	0.00822
3972.94	0.00813
3968.82	0.00829
3964.7	0.00804
3960.58	0.00704
3956.46	0.00728
3952.34	0.00755
3948.22	0.00804
3944.11	0.00862
3939.99	0.00784
3935.87	0.00822
3931.75	0.00780
3927.63	0.00716
3923.51	0.00731
3919.39	0.00785
3915.27	0.00771
3911.15	0.00697
3907.03	0.00798
3902.91	0.00835
3898.79	0.00808
3894.68	0.00655
3890.56	0.00669
3886.44	0.00903
3882.32	0.00763
3878.2	0.00727
3874.08	0.00770
3869.96	0.00775
3865.84	0.00767
3861.72	0.00783
3857.6	0.00761
3853.48	0.00637
3849.36	0.00600
3845.25	0.00705
3841.13	0.00587
3837.01	0.00501
3832.89	0.00601
3828.77	0.00695
3824.65	0.00759
3820.53	0.00817
3816.41	0.00686
3812.29	0.00626
3808.17	0.00567
3804.05	0.00508
3799.93	0.00636
3795.82	0.00803
3791.7	0.00780
3787.58	0.00732
3783.46	0.00678
3779.34	0.00747
3775.22	0.00800
3771.1	0.00815
3766.98	0.00698
3762.86	0.00697
3758.74	0.00708
3754.62	0.00746
3750.5	0.00749
3746.39	0.00760
3742.27	0.00740
3738.15	0.00857
3734.03	0.00801
3729.91	0.00740
3725.79	0.00849
3721.67	0.00672
3717.55	0.00720
3713.43	0.00770
3709.31	0.00677
3705.19	0.00636
3701.07	0.00786
3696.96	0.00885
3692.84	0.00769
3688.72	0.00772
3684.6	0.00855
3680.48	0.00838
3676.36	0.00875
3672.24	0.00938
3668.12	0.01086
3664	0.01065
3659.88	0.01092
3655.76	0.01251
3651.64	0.01448
3647.53	0.01502
3643.41	0.01480
3639.29	0.01555
3635.17	0.01681
3631.05	0.01854
3626.93	0.01801
3622.81	0.02030
3618.69	0.02354
3614.57	0.02463
3610.45	0.02405
3606.33	0.02441
3602.21	0.02631
3598.1	0.02735
3593.98	0.02941
3589.86	0.03146
3585.74	0.03330
3581.62	0.03345
3577.5	0.03586
3573.38	0.03789
3569.26	0.04006
3565.14	0.04316
3561.02	0.04371
3556.9	0.04380
3552.78	0.04469
3548.67	0.04653
3544.55	0.04827
3540.43	0.04982
3536.31	0.05169
3532.19	0.05217
3528.07	0.05460
3523.95	0.05650
3519.83	0.05674
3515.71	0.05836
3511.59	0.06160
3507.47	0.06185
3503.35	0.06273
3499.24	0.06366
3495.12	0.06435
3491	0.06525
3486.88	0.06656
3482.76	0.06692
3478.64	0.06868
3474.52	0.06814
3470.4	0.06907
3466.28	0.07054
3462.16	0.07162
3458.04	0.07188
3453.92	0.07203
3449.81	0.07286
3445.69	0.07390
3441.57	0.07390
3437.45	0.07488
3433.33	0.07655
3429.21	0.07705
3425.09	0.07808
3420.97	0.07950
3416.85	0.08087
3412.73	0.08314
3408.61	0.08336
3404.49	0.08499
3400.38	0.08632
3396.26	0.08813
3392.14	0.08956
3388.02	0.09016
3383.9	0.09177
3379.78	0.09252
3375.66	0.09379
3371.54	0.09691
3367.42	0.09834
3363.3	0.09924
3359.18	0.10217
3355.06	0.10443
3350.95	0.10652
3346.83	0.10703
3342.71	0.10958
3338.59	0.11305
3334.47	0.11467
3330.35	0.11728
3326.23	0.12003
3322.11	0.12365
3317.99	0.12474
3313.87	0.12675
3309.75	0.12955
3305.63	0.13186
3301.52	0.13373
3297.4	0.13554
3293.28	0.13691
3289.16	0.13809
3285.04	0.13881
3280.92	0.13869
3276.8	0.14019
3272.68	0.14015
3268.56	0.13860
3264.44	0.13795
3260.32	0.13661
3256.2	0.13548
3252.09	0.13298
3247.97	0.13015
3243.85	0.12785
3239.73	0.12595
3235.61	0.12433
3231.49	0.12270
3227.37	0.11970
3223.25	0.11733
3219.13	0.11485
3215.01	0.11255
3210.89	0.10997
3206.77	0.10806
3202.65	0.10601
3198.54	0.10332
3194.42	0.10067
3190.3	0.09770
3186.18	0.09546
3182.06	0.09162
3177.94	0.08894
3173.82	0.08655
3169.7	0.08349
3165.58	0.08038
3161.46	0.07774
3157.34	0.07511
3153.22	0.07253
3149.11	0.07066
3144.99	0.06853
3140.87	0.06694
3136.75	0.06603
3132.63	0.06482
3128.51	0.06381
3124.39	0.06257
3120.27	0.06287
3116.15	0.06259
3112.03	0.06290
3107.91	0.06339
3103.79	0.06392
3099.68	0.06499
3095.56	0.06510
3091.44	0.06625
3087.32	0.06702
3083.2	0.06803
3079.08	0.06794
3074.96	0.06870
3070.84	0.06923
3066.72	0.06909
3062.6	0.06802
3058.48	0.06705
3054.36	0.06517
3050.25	0.06328
3046.13	0.06164
3042.01	0.05956
3037.89	0.05684
3033.77	0.05466
3029.65	0.05247
3025.53	0.05034
3021.41	0.04832
3017.29	0.04705
3013.17	0.04573
3009.05	0.04476
3004.93	0.04384
3000.82	0.04417
2996.7	0.04508
2992.58	0.04585
2988.46	0.04686
2984.34	0.04754
2980.22	0.04807
2976.1	0.04739
2971.98	0.04643
2967.86	0.04640
2963.74	0.04648
2959.62	0.04620
2955.5	0.04627
2951.39	0.04751
2947.27	0.04841
2943.15	0.05050
2939.03	0.05196
2934.91	0.05246
2930.79	0.05090
2926.67	0.04915
2922.55	0.04775
2918.43	0.04527
2914.31	0.04233
2910.19	0.03941
2906.07	0.03726
2901.96	0.03616
2897.84	0.03520
2893.72	0.03474
2889.6	0.03414
2885.48	0.03354
2881.36	0.03355
2877.24	0.03261
2873.12	0.03216
2869	0.03059
2864.88	0.02913
2860.76	0.02840
2856.64	0.02841
2852.53	0.02824
2848.41	0.02778
2844.29	0.02659
2840.17	0.02552
2836.05	0.02551
2831.93	0.02472
2827.81	0.02478
2823.69	0.02499
2819.57	0.02454
2815.45	0.02392
2811.33	0.02390
2807.21	0.02331
2803.1	0.02269
2798.98	0.02220
2794.86	0.02179
2790.74	0.02128
2786.62	0.02068
2782.5	0.01980
2778.38	0.01953
2774.26	0.01879
2770.14	0.01834
2766.02	0.01764
2761.9	0.01730
2757.78	0.01703
2753.67	0.01640
2749.55	0.01590
2745.43	0.01578
2741.31	0.01561
2737.19	0.01535
2733.07	0.01499
2728.95	0.01456
2724.83	0.01471
2720.71	0.01460
2716.59	0.01440
2712.47	0.01392
2708.35	0.01354
2704.24	0.01340
2700.12	0.01328
2696	0.01327
2691.88	0.01312
2687.76	0.01291
2683.64	0.01308
2679.52	0.01294
2675.4	0.01273
2671.28	0.01243
2667.16	0.01260
2663.04	0.01287
2658.92	0.01265
2654.81	0.01239
2650.69	0.01215
2646.57	0.01227
2642.45	0.01212
2638.33	0.01179
2634.21	0.01174
2630.09	0.01190
2625.97	0.01173
2621.85	0.01151
2617.73	0.01125
2613.61	0.01083
2609.49	0.01172
2605.38	0.01106
2601.26	0.01002
2597.14	0.01055
2593.02	0.01024
2588.9	0.00984
2584.78	0.00970
2580.66	0.00961
2576.54	0.00912
2572.42	0.00924
2568.3	0.00893
2564.18	0.00845
2560.06	0.00899
2555.95	0.00837
2551.83	0.00808
2547.71	0.00827
2543.59	0.00813
2539.47	0.00823
2535.35	0.00768
2531.23	0.00778
2527.11	0.00767
2522.99	0.00757
2518.87	0.00709
2514.75	0.00759
2510.63	0.00742
2506.52	0.00783
2502.4	0.00762
2498.28	0.00797
2494.16	0.00735
2490.04	0.00685
2485.92	0.00719
2481.8	0.00757
2477.68	0.00721
2473.56	0.00641
2469.44	0.00645
2465.32	0.00720
2461.2	0.00700
2457.09	0.00690
2452.97	0.00717
2448.85	0.00697
2444.73	0.00727
2440.61	0.00694
2436.49	0.00676
2432.37	0.00688
2428.25	0.00687
2424.13	0.00643
2420.01	0.00680
2415.89	0.00655
2411.77	0.00634
2407.66	0.00635
2403.54	0.00689
2399.42	0.00645
2395.3	0.00614
2391.18	0.00641
2387.06	0.00613
2382.94	0.00651
2378.82	0.00684
2374.7	0.00673
2370.58	0.00554
2366.46	0.00653
2362.34	0.00442
2358.23	0.00679
2354.11	0.00737
2349.99	0.00541
2345.87	0.00427
2341.75	0.01066
2337.63	-0.01177
2333.51	0.02217
2329.39	0.01754
2325.27	-0.00600
2321.15	-0.00988
2317.03	-0.00360
2312.91	0.00096
2308.8	0.00255
2304.68	0.00356
2300.56	0.00539
2296.44	0.00673
2292.32	0.00744
2288.2	0.00768
2284.08	0.00790
2279.96	0.00786
2275.84	0.00689
2271.72	0.00578
2267.6	0.00568
2263.48	0.00517
2259.36	0.00566
2255.25	0.00598
2251.13	0.00550
2247.01	0.00562
2242.89	0.00527
2238.77	0.00624
2234.65	0.00585
2230.53	0.00584
2226.41	0.00499
2222.29	0.00549
2218.17	0.00554
2214.05	0.00585
2209.93	0.00595
2205.82	0.00496
2201.7	0.00556
2197.58	0.00769
2193.46	0.00804
2189.34	0.00685
2185.22	0.00618
2181.1	0.00546
2176.98	0.00649
2172.86	0.00498
2168.74	0.00657
2164.62	0.00574
2160.5	0.00416
2156.39	0.00162
2152.27	0.00268
2148.15	0.00288
2144.03	0.00264
2139.91	0.00285
2135.79	0.00350
2131.67	0.00461
2127.55	0.00611
2123.43	0.00579
2119.31	0.00485
2115.19	0.00497
2111.07	0.00596
2106.96	0.00511
2102.84	0.00559
2098.72	0.00567
2094.6	0.00494
2090.48	0.00488
2086.36	0.00591
2082.24	0.00536
2078.12	0.00557
2074	0.00563
2069.88	0.00513
2065.76	0.00499
2061.64	0.00564
2057.53	0.00593
2053.41	0.00691
2049.29	0.00770
2045.17	0.00521
2041.05	0.00401
2036.93	0.00435
2032.81	0.00378
2028.69	0.00372
2024.57	0.00264
2020.45	0.00222
2016.33	0.00294
2012.21	0.00290
2008.1	0.00250
2003.98	0.00263
1999.86	0.00404
1995.74	0.00409
1991.62	0.00314
1987.5	0.00396
1983.38	0.00745
1979.26	0.00391
1975.14	0.00336
1971.02	0.00463
1966.9	0.00389
1962.78	0.00238
1958.67	0.00279
1954.55	0.00383
1950.43	0.00319
1946.31	0.00439
1942.19	0.00394
1938.07	0.00370
1933.95	0.00347
1929.83	0.00267
1925.71	0.00334
1921.59	0.00366
1917.47	0.00346
1913.35	0.00276
1909.24	0.00286
1905.12	0.00370
1901	0.00360
1896.88	0.00388
1892.76	0.00443
1888.64	0.00466
1884.52	0.00421
1880.4	0.00395
1876.28	0.00358
1872.16	0.00374
1868.04	0.00434
1863.92	0.00425
1859.81	0.00406
1855.69	0.00414
1851.57	0.00394
1847.45	0.00387
1843.33	0.00426
1839.21	0.00463
1835.09	0.00460
1830.97	0.00440
1826.85	0.00399
1822.73	0.00427
1818.61	0.00457
1814.49	0.00458
1810.38	0.00441
1806.26	0.00484
1802.14	0.00496
1798.02	0.00492
1793.9	0.00515
1789.78	0.00562
1785.66	0.00581
1781.54	0.00597
1777.42	0.00603
1773.3	0.00584
1769.18	0.00598
1765.06	0.00602
1760.95	0.00655
1756.83	0.00687
1752.71	0.00719
1748.59	0.00757
1744.47	0.00778
1740.35	0.00825
1736.23	0.00842
1732.11	0.00868
1727.99	0.00982
1723.87	0.01080
1719.75	0.01187
1715.63	0.01400
1711.52	0.01741
1707.4	0.02306
1703.28	0.03037
1699.16	0.04018
1695.04	0.05143
1690.92	0.06024
1686.8	0.06918
1682.68	0.08201
1678.56	0.09202
1674.44	0.10217
1670.32	0.11369
1666.2	0.12558
1662.09	0.13665
1657.97	0.14642
1653.85	0.15534
1649.73	0.16553
1645.61	0.17164
1641.49	0.17565
1637.37	0.17695
1633.25	0.17546
1629.13	0.17148
1625.01	0.16289
1620.89	0.15089
1616.77	0.13744
1612.66	0.12308
1608.54	0.10834
1604.42	0.09451
1600.3	0.08533
1596.18	0.07955
1592.06	0.07530
1587.94	0.07314
1583.82	0.07391
1579.7	0.07665
1575.58	0.08215
1571.46	0.08912
1567.34	0.09824
1563.23	0.10614
1559.11	0.11596
1554.99	0.12754
1550.87	0.13564
1546.75	0.14320
1542.63	0.15005
1538.51	0.15640
1534.39	0.16008
1530.27	0.16296
1526.15	0.16470
1522.03	0.16607
1517.91	0.16932
1513.8	0.17223
1509.68	0.16965
1505.56	0.15798
1501.44	0.14874
1497.32	0.13561
1493.2	0.12221
1489.08	0.10844
1484.96	0.09569
1480.84	0.08708
1476.72	0.08081
1472.6	0.07680
1468.48	0.07603
1464.37	0.07752
1460.25	0.08036
1456.13	0.08507
1452.01	0.08753
1447.89	0.08597
1443.77	0.08122
1439.65	0.07560
1435.53	0.06980
1431.41	0.06682
1427.29	0.06650
1423.17	0.06922
1419.05	0.07347
1414.94	0.07783
1410.82	0.07985
1406.7	0.07908
1402.58	0.07612
1398.46	0.07378
1394.34	0.07353
1390.22	0.07495
1386.1	0.07662
1381.98	0.07737
1377.86	0.07713
1373.74	0.07503
1369.62	0.07100
1365.5	0.06581
1361.39	0.06083
1357.27	0.05786
1353.15	0.05691
1349.03	0.05803
1344.91	0.06099
1340.79	0.06460
1336.67	0.06751
1332.55	0.06819
1328.43	0.06608
1324.31	0.06275
1320.19	0.05993
1316.07	0.05875
1311.96	0.05903
1307.84	0.05989
1303.72	0.06102
1299.6	0.06237
1295.48	0.06388
1291.36	0.06501
1287.24	0.06610
1283.12	0.06733
1279	0.06917
1274.88	0.07170
1270.76	0.07476
1266.64	0.07797
1262.53	0.08112
1258.41	0.08438
1254.29	0.08824
1250.17	0.09261
1246.05	0.09656
1241.93	0.10059
1237.81	0.10321
1233.69	0.10417
1229.57	0.10272
1225.45	0.09829
1221.33	0.09152
1217.21	0.08361
1213.1	0.07566
1208.98	0.06838
1204.86	0.06226
1200.74	0.05707
1196.62	0.05278
1192.5	0.05015
1188.38	0.04886
1184.26	0.04877
1180.14	0.05056
1176.02	0.05335
1171.9	0.05557
1167.78	0.05622
1163.67	0.05575
1159.55	0.05421
1155.43	0.05229
1151.31	0.04994
1147.19	0.04743
1143.07	0.04529
1138.95	0.04386
1134.83	0.04277
1130.71	0.04236
1126.59	0.04225
1122.47	0.04218
1118.35	0.04203
1114.24	0.04179
1110.12	0.04214
1106	0.04244
1101.88	0.04194
1097.76	0.04084
1093.64	0.04021
1089.52	0.04121
1085.4	0.04353
1081.28	0.04678
1077.16	0.04932
1073.04	0.05123
1068.92	0.05208
1064.81	0.05202
1060.69	0.05262
1056.57	0.05331
1052.45	0.05282
1048.33	0.05044
1044.21	0.04717
1040.09	0.04446
1035.97	0.04292
1031.85	0.04249
1027.73	0.04190
1023.61	0.04198
1019.49	0.04455
1015.38	0.04754
1011.26	0.04651
1007.14	0.04209
1003.02	0.03704
998.899	0.03281
994.78	0.03006
990.66	0.02788
986.541	0.02637
982.422	0.02558
978.303	0.02510
974.184	0.02508
970.065	0.02509
965.945	0.02562
961.826	0.02644
957.707	0.02721
953.588	0.02783
949.469	0.02869
945.35	0.02895
941.23	0.02860
937.111	0.02819
932.992	0.02718
928.873	0.02619
924.754	0.02536
920.635	0.02457
916.515	0.02380
912.396	0.02316
908.277	0.02271
904.158	0.02232
900.039	0.02225
895.92	0.02194
891.8	0.02186
887.681	0.02194
883.562	0.02211
879.443	0.02244
875.324	0.02307
871.205	0.02355
867.085	0.02463
862.966	0.02579
858.847	0.02727
854.728	0.02846
850.609	0.02945
846.49	0.02971
842.37	0.03007
838.251	0.03125
834.132	0.03238
830.013	0.03313
825.894	0.03329
821.774	0.03345
817.655	0.03357
813.536	0.03415
809.417	0.03512
805.298	0.03602
801.179	0.03675
797.059	0.03738
792.94	0.03767
788.821	0.03831
784.702	0.03902
780.583	0.04020
776.464	0.04119
772.344	0.04206
768.225	0.04322
764.106	0.04448
759.987	0.04565
755.868	0.04675
751.749	0.04810
747.629	0.04937
743.51	0.05129
739.391	0.05235
735.272	0.05352
731.153	0.05495
727.034	0.05627
722.914	0.05731
718.795	0.05885
714.676	0.05980
710.557	0.06083
706.438	0.06220
702.319	0.06387
698.199	0.06502
694.08	0.06617
689.961	0.06754
685.842	0.06874
681.723	0.07019
677.604	0.07057
673.484	0.07175
669.365	0.07634
665.246	0.07301
661.127	0.07418
657.008	0.07486
652.889	0.07500
648.769	0.07500
644.65	0.07571
640.531	0.07595
636.412	0.07607
632.293	0.07615
628.173	0.07594
624.054	0.07597
619.935	0.07635
615.816	0.07663
611.697	0.07669
607.578	0.07670
603.458	0.07710
599.339	0.07736
595.22	0.07741
591.101	0.07843
586.982	0.07925
582.863	0.07982
578.743	0.08070
574.624	0.08194
570.505	0.08294
566.386	0.08483
562.267	0.08599
558.148	0.08715
554.028	0.08848
549.909	0.09018
545.79	0.09098
541.671	0.09132
537.552	0.09144
533.433	0.09109
529.313	0.09146
525.194	0.09141
521.075	0.09112
516.956	0.09111
512.837	0.09184
508.718	0.09156
504.598	0.09188
500.479	0.09189
496.36	0.09081
492.241	0.09044
488.122	0.09065
484.003	0.09055
479.883	0.08965
475.764	0.08874
471.645	0.08731
467.526	0.08717
463.407	0.08642
459.288	0.08550
455.168	0.08472
451.049	0.08466
446.93	0.08341
442.811	0.08279
438.692	0.08186
434.572	0.08048
430.453	0.08065
426.334	0.08051
422.215	0.08021
418.096	0.07925
413.977	0.07929
409.857	0.07894
405.738	0.07840
401.619	0.07866
399.56	0.07850