File: FTIR/db-LASE IR data/AgNPr-LASE lasered at 65C/Silk AgNPr film 65C 2 8.26.22.dpt
3997.65	-0.00361
3993.54	-0.00354
3989.42	-0.00258
3985.3	-0.00179
3981.18	-0.00244
3977.06	-0.00284
3972.94	-0.00242
3968.82	-0.00164
3964.7	-0.00226
3960.58	-0.00254
3956.46	-0.00284
3952.34	-0.00346
3948.22	-0.00390
3944.11	-0.00477
3939.99	-0.00416
3935.87	-0.00346
3931.75	-0.00267
3927.63	-0.00363
3923.51	-0.00328
3919.39	-0.00257
3915.27	-0.00316
3911.15	-0.00270
3907.03	-0.00275
3902.91	-0.00253
3898.79	-0.00281
3894.68	-0.00281
3890.56	-0.00145
3886.44	-0.00253
3882.32	-0.00298
3878.2	-0.00304
3874.08	-0.00263
3869.96	-0.00362
3865.84	-0.00250
3861.72	-0.00300
3857.6	-0.00344
3853.48	-0.00208
3849.36	-0.00241
3845.25	-0.00326
3841.13	-0.00200
3837.01	-0.00331
3832.89	-0.00417
3828.77	-0.00317
3824.65	-0.00294
3820.53	-0.00348
3816.41	-0.00413
3812.29	-0.00491
3808.17	-0.00427
3804.05	-0.00439
3799.93	-0.00372
3795.82	-0.00397
3791.7	-0.00339
3787.58	-0.00225
3783.46	-0.00376
3779.34	-0.00366
3775.22	-0.00175
3771.1	-0.00273
3766.98	-0.00262
3762.86	-0.00312
3758.74	-0.00240
3754.62	-0.00123
3750.5	-0.00163
3746.39	-0.00139
3742.27	-0.00083
3738.15	0.00010
3734.03	0.00174
3729.91	-0.00030
3725.79	-0.00052
3721.67	-0.00025
3717.55	-0.00138
3713.43	-0.00034
3709.31	0.00005
3705.19	-0.00066
3701.07	-0.00082
3696.96	-0.00040
3692.84	-0.00044
3688.72	0.00203
3684.6	0.00214
3680.48	0.00338
3676.36	0.00418
3672.24	0.00591
3668.12	0.00703
3664	0.00954
3659.88	0.01088
3655.76	0.01487
3651.64	0.01666
3647.53	0.02003
3643.41	0.02278
3639.29	0.02417
3635.17	0.02916
3631.05	0.03383
3626.93	0.03677
3622.81	0.03900
3618.69	0.04466
3614.57	0.04697
3610.45	0.04935
3606.33	0.05440
3602.21	0.05688
3598.1	0.06077
3593.98	0.06518
3589.86	0.06893
3585.74	0.07357
3581.62	0.07608
3577.5	0.08065
3573.38	0.08630
3569.26	0.09073
3565.14	0.09701
3561.02	0.10085
3556.9	0.10512
3552.78	0.10850
3548.67	0.11410
3544.55	0.11928
3540.43	0.12238
3536.31	0.12732
3532.19	0.13199
3528.07	0.13604
3523.95	0.14151
3519.83	0.14475
3515.71	0.14775
3511.59	0.15188
3507.47	0.15513
3503.35	0.15781
3499.24	0.16156
3495.12	0.16363
3491	0.16591
3486.88	0.16989
3482.76	0.17168
3478.64	0.17482
3474.52	0.17720
3470.4	0.17926
3466.28	0.18110
3462.16	0.18363
3458.04	0.18555
3453.92	0.18903
3449.81	0.18956
3445.69	0.19191
3441.57	0.19543
3437.45	0.19784
3433.33	0.20046
3429.21	0.20341
3425.09	0.20701
3420.97	0.20956
3416.85	0.21413
3412.73	0.21873
3408.61	0.22328
3404.49	0.22631
3400.38	0.23076
3396.26	0.23577
3392.14	0.24019
3388.02	0.24411
3383.9	0.24950
3379.78	0.25548
3375.66	0.26068
3371.54	0.26564
3367.42	0.27127
3363.3	0.27690
3359.18	0.28335
3355.06	0.29112
3350.95	0.29807
3346.83	0.30482
3342.71	0.31262
3338.59	0.32215
3334.47	0.33118
3330.35	0.34012
3326.23	0.34996
3322.11	0.36013
3317.99	0.37069
3313.87	0.38173
3309.75	0.39284
3305.63	0.40525
3301.52	0.41650
3297.4	0.42819
3293.28	0.43942
3289.16	0.44710
3285.04	0.45392
3280.92	0.45951
3276.8	0.46085
3272.68	0.45907
3268.56	0.45232
3264.44	0.44251
3260.32	0.43271
3256.2	0.42177
3252.09	0.41064
3247.97	0.40057
3243.85	0.38993
3239.73	0.37997
3235.61	0.37147
3231.49	0.36111
3227.37	0.35154
3223.25	0.34390
3219.13	0.33471
3215.01	0.32610
3210.89	0.31687
3206.77	0.30765
3202.65	0.29850
3198.54	0.28872
3194.42	0.27967
3190.3	0.26984
3186.18	0.26039
3182.06	0.25086
3177.94	0.24131
3173.82	0.23135
3169.7	0.22230
3165.58	0.21377
3161.46	0.20471
3157.34	0.19689
3153.22	0.18984
3149.11	0.18383
3144.99	0.17785
3140.87	0.17261
3136.75	0.16865
3132.63	0.16505
3128.51	0.16258
3124.39	0.15992
3120.27	0.16043
3116.15	0.16085
3112.03	0.16141
3107.91	0.16302
3103.79	0.16369
3099.68	0.16637
3095.56	0.16920
3091.44	0.17357
3087.32	0.17727
3083.2	0.17981
3079.08	0.18155
3074.96	0.18159
3070.84	0.18113
3066.72	0.18094
3062.6	0.17761
3058.48	0.17299
3054.36	0.16822
3050.25	0.16278
3046.13	0.15527
3042.01	0.14894
3037.89	0.14104
3033.77	0.13484
3029.65	0.12909
3025.53	0.12385
3021.41	0.11874
3017.29	0.11443
3013.17	0.11083
3009.05	0.10784
3004.93	0.10617
3000.82	0.10697
2996.7	0.10968
2992.58	0.11302
2988.46	0.11648
2984.34	0.11959
2980.22	0.12132
2976.1	0.11985
2971.98	0.11757
2967.86	0.11511
2963.74	0.11305
2959.62	0.11058
2955.5	0.10848
2951.39	0.11100
2947.27	0.11677
2943.15	0.12321
2939.03	0.12785
2934.91	0.12745
2930.79	0.12155
2926.67	0.10957
2922.55	0.09167
2918.43	0.06887
2914.31	0.05786
2910.19	0.06826
2906.07	0.07257
2901.96	0.07123
2897.84	0.07041
2893.72	0.06941
2889.6	0.06872
2885.48	0.07008
2881.36	0.07191
2877.24	0.07272
2873.12	0.07063
2869	0.06652
2864.88	0.06227
2860.76	0.05839
2856.64	0.05385
2852.53	0.04256
2848.41	0.02771
2844.29	0.03694
2840.17	0.04596
2836.05	0.04892
2831.93	0.04926
2827.81	0.04981
2823.69	0.04892
2819.57	0.04912
2815.45	0.04832
2811.33	0.04717
2807.21	0.04634
2803.1	0.04560
2798.98	0.04417
2794.86	0.04307
2790.74	0.04176
2786.62	0.03993
2782.5	0.03823
2778.38	0.03725
2774.26	0.03576
2770.14	0.03475
2766.02	0.03319
2761.9	0.03213
2757.78	0.03122
2753.67	0.02956
2749.55	0.02889
2745.43	0.02818
2741.31	0.02710
2737.19	0.02598
2733.07	0.02500
2728.95	0.02466
2724.83	0.02448
2720.71	0.02340
2716.59	0.02277
2712.47	0.02189
2708.35	0.02175
2704.24	0.02147
2700.12	0.02087
2696	0.02085
2691.88	0.02032
2687.76	0.02001
2683.64	0.01991
2679.52	0.01920
2675.4	0.01919
2671.28	0.01874
2667.16	0.01835
2663.04	0.01877
2658.92	0.01839
2654.81	0.01807
2650.69	0.01769
2646.57	0.01770
2642.45	0.01761
2638.33	0.01743
2634.21	0.01661
2630.09	0.01660
2625.97	0.01684
2621.85	0.01643
2617.73	0.01638
2613.61	0.01593
2609.49	0.01606
2605.38	0.01533
2601.26	0.01428
2597.14	0.01365
2593.02	0.01416
2588.9	0.01379
2584.78	0.01305
2580.66	0.01253
2576.54	0.01207
2572.42	0.01236
2568.3	0.01121
2564.18	0.01102
2560.06	0.01052
2555.95	0.00993
2551.83	0.00983
2547.71	0.00945
2543.59	0.00966
2539.47	0.00873
2535.35	0.00953
2531.23	0.00999
2527.11	0.00895
2522.99	0.00858
2518.87	0.00934
2514.75	0.00945
2510.63	0.00927
2506.52	0.00823
2502.4	0.00823
2498.28	0.00736
2494.16	0.00721
2490.04	0.00813
2485.92	0.00815
2481.8	0.00818
2477.68	0.00757
2473.56	0.00708
2469.44	0.00762
2465.32	0.00738
2461.2	0.00762
2457.09	0.00778
2452.97	0.00716
2448.85	0.00697
2444.73	0.00719
2440.61	0.00699
2436.49	0.00682
2432.37	0.00649
2428.25	0.00694
2424.13	0.00700
2420.01	0.00647
2415.89	0.00574
2411.77	0.00561
2407.66	0.00579
2403.54	0.00577
2399.42	0.00567
2395.3	0.00570
2391.18	0.00626
2387.06	0.00614
2382.94	0.00610
2378.82	0.00541
2374.7	0.00516
2370.58	0.00491
2366.46	0.00340
2362.34	0.00338
2358.23	0.00435
2354.11	0.00590
2349.99	0.00659
2345.87	0.00588
2341.75	0.00406
2337.63	0.00463
2333.51	0.00493
2329.39	0.00533
2325.27	0.00765
2321.15	0.00722
2317.03	0.00672
2312.91	0.00751
2308.8	0.00766
2304.68	0.00791
2300.56	0.00715
2296.44	0.00742
2292.32	0.00715
2288.2	0.00790
2284.08	0.00794
2279.96	0.00694
2275.84	0.00685
2271.72	0.00684
2267.6	0.00792
2263.48	0.00771
2259.36	0.00681
2255.25	0.00566
2251.13	0.00726
2247.01	0.00756
2242.89	0.00643
2238.77	0.00644
2234.65	0.00673
2230.53	0.00603
2226.41	0.00563
2222.29	0.00472
2218.17	0.00584
2214.05	0.00740
2209.93	0.00668
2205.82	0.00844
2201.7	0.00812
2197.58	0.00674
2193.46	0.00607
2189.34	0.00791
2185.22	0.00836
2181.1	0.00735
2176.98	0.00549
2172.86	0.00455
2168.74	0.00752
2164.62	0.00671
2160.5	0.00791
2156.39	0.00677
2152.27	0.00619
2148.15	0.00560
2144.03	0.00612
2139.91	0.00629
2135.79	0.00489
2131.67	0.00632
2127.55	0.00746
2123.43	0.00733
2119.31	0.00836
2115.19	0.00931
2111.07	0.00883
2106.96	0.00905
2102.84	0.00917
2098.72	0.00946
2094.6	0.00845
2090.48	0.00770
2086.36	0.00724
2082.24	0.00801
2078.12	0.00772
2074	0.00705
2069.88	0.00725
2065.76	0.00838
2061.64	0.00780
2057.53	0.00638
2053.41	0.00611
2049.29	0.00718
2045.17	0.00648
2041.05	0.00618
2036.93	0.00624
2032.81	0.00513
2028.69	0.00406
2024.57	0.00472
2020.45	0.00580
2016.33	0.00389
2012.21	0.00545
2008.1	0.00498
2003.98	0.00316
1999.86	0.00478
1995.74	0.00638
1991.62	0.00501
1987.5	0.00526
1983.38	0.00710
1979.26	0.00715
1975.14	0.00338
1971.02	0.00328
1966.9	0.00333
1962.78	0.00364
1958.67	0.00485
1954.55	0.00502
1950.43	0.00572
1946.31	0.00444
1942.19	0.00383
1938.07	0.00471
1933.95	0.00478
1929.83	0.00426
1925.71	0.00401
1921.59	0.00413
1917.47	0.00566
1913.35	0.00501
1909.24	0.00542
1905.12	0.00582
1901	0.00541
1896.88	0.00577
1892.76	0.00593
1888.64	0.00656
1884.52	0.00630
1880.4	0.00580
1876.28	0.00582
1872.16	0.00653
1868.04	0.00613
1863.92	0.00613
1859.81	0.00608
1855.69	0.00629
1851.57	0.00668
1847.45	0.00647
1843.33	0.00689
1839.21	0.00717
1835.09	0.00732
1830.97	0.00727
1826.85	0.00769
1822.73	0.00821
1818.61	0.00816
1814.49	0.00867
1810.38	0.00874
1806.26	0.00932
1802.14	0.00970
1798.02	0.00992
1793.9	0.01050
1789.78	0.01118
1785.66	0.01134
1781.54	0.01197
1777.42	0.01222
1773.3	0.01274
1769.18	0.01338
1765.06	0.01399
1760.95	0.01481
1756.83	0.01531
1752.71	0.01609
1748.59	0.01715
1744.47	0.01812
1740.35	0.01910
1736.23	0.02030
1732.11	0.02269
1727.99	0.02435
1723.87	0.02674
1719.75	0.03037
1715.63	0.03817
1711.52	0.04883
1707.4	0.06566
1703.28	0.09247
1699.16	0.12366
1695.04	0.15161
1690.92	0.17434
1686.8	0.19893
1682.68	0.23566
1678.56	0.26432
1674.44	0.29774
1670.32	0.33515
1666.2	0.37483
1662.09	0.41330
1657.97	0.45000
1653.85	0.48633
1649.73	0.52621
1645.61	0.55085
1641.49	0.56613
1637.37	0.57232
1633.25	0.57535
1629.13	0.57017
1625.01	0.56188
1620.89	0.54166
1616.77	0.49667
1612.66	0.43625
1608.54	0.37115
1604.42	0.31034
1600.3	0.26827
1596.18	0.24197
1592.06	0.22247
1587.94	0.21058
1583.82	0.20845
1579.7	0.21395
1575.58	0.23070
1571.46	0.25183
1567.34	0.28230
1563.23	0.30952
1559.11	0.34417
1554.99	0.38703
1550.87	0.41555
1546.75	0.44311
1542.63	0.46768
1538.51	0.50148
1534.39	0.52056
1530.27	0.54016
1526.15	0.55148
1522.03	0.56264
1517.91	0.58113
1513.8	0.59143
1509.68	0.57590
1505.56	0.53098
1501.44	0.48872
1497.32	0.43586
1493.2	0.38378
1489.08	0.33393
1484.96	0.29018
1480.84	0.26025
1476.72	0.23884
1472.6	0.22541
1468.48	0.22105
1464.37	0.22346
1460.25	0.23182
1456.13	0.25053
1452.01	0.26217
1447.89	0.26227
1443.77	0.25197
1439.65	0.23635
1435.53	0.21733
1431.41	0.20363
1427.29	0.19862
1423.17	0.20243
1419.05	0.21361
1414.94	0.22624
1410.82	0.23244
1406.7	0.23111
1402.58	0.22285
1398.46	0.21463
1394.34	0.21270
1390.22	0.21562
1386.1	0.21958
1381.98	0.22063
1377.86	0.21839
1373.74	0.21236
1369.62	0.20189
1365.5	0.18765
1361.39	0.17285
1357.27	0.16327
1353.15	0.15974
1349.03	0.16188
1344.91	0.16909
1340.79	0.17882
1336.67	0.18709
1332.55	0.18812
1328.43	0.18195
1324.31	0.17200
1320.19	0.16415
1316.07	0.16079
1311.96	0.16110
1307.84	0.16317
1303.72	0.16579
1299.6	0.16855
1295.48	0.17164
1291.36	0.17472
1287.24	0.17775
1283.12	0.18159
1279	0.18788
1274.88	0.19719
1270.76	0.20854
1266.64	0.21917
1262.53	0.22805
1258.41	0.23697
1254.29	0.24714
1250.17	0.25887
1246.05	0.27171
1241.93	0.28410
1237.81	0.29396
1233.69	0.29879
1229.57	0.29538
1225.45	0.28237
1221.33	0.26190
1217.21	0.23747
1213.1	0.21215
1208.98	0.18934
1204.86	0.16985
1200.74	0.15323
1196.62	0.14049
1192.5	0.13219
1188.38	0.12791
1184.26	0.12724
1180.14	0.13120
1176.02	0.13993
1171.9	0.14775
1167.78	0.15044
1163.67	0.14939
1159.55	0.14534
1155.43	0.13893
1151.31	0.13093
1147.19	0.12288
1143.07	0.11589
1138.95	0.11072
1134.83	0.10712
1130.71	0.10512
1126.59	0.10398
1122.47	0.10357
1118.35	0.10267
1114.24	0.10211
1110.12	0.10232
1106	0.10344
1101.88	0.10275
1097.76	0.09961
1093.64	0.09836
1089.52	0.10147
1085.4	0.10891
1081.28	0.11822
1077.16	0.12668
1073.04	0.13245
1068.92	0.13496
1064.81	0.13551
1060.69	0.13639
1056.57	0.13698
1052.45	0.13384
1048.33	0.12750
1044.21	0.11951
1040.09	0.11253
1035.97	0.10744
1031.85	0.10437
1027.73	0.10198
1023.61	0.10122
1019.49	0.10675
1015.38	0.11375
1011.26	0.11165
1007.14	0.10210
1003.02	0.09232
998.899	0.08455
994.78	0.07771
990.66	0.07118
986.541	0.06624
982.422	0.06481
978.303	0.06511
974.184	0.06502
970.065	0.06396
965.945	0.06357
961.826	0.06449
957.707	0.06544
953.588	0.06666
949.469	0.06753
945.35	0.06765
941.23	0.06681
937.111	0.06515
932.992	0.06311
928.873	0.06121
924.754	0.05914
920.635	0.05680
916.515	0.05446
912.396	0.05270
908.277	0.05122
904.158	0.05016
900.039	0.04970
895.92	0.04920
891.8	0.04886
887.681	0.04896
883.562	0.04971
879.443	0.05022
875.324	0.05081
871.205	0.05190
867.085	0.05374
862.966	0.05681
858.847	0.06028
854.728	0.06382
850.609	0.06564
846.49	0.06569
842.37	0.06661
838.251	0.06919
834.132	0.07194
830.013	0.07392
825.894	0.07412
821.774	0.07347
817.655	0.07380
813.536	0.07539
809.417	0.07711
805.298	0.07855
801.179	0.07980
797.059	0.08041
792.94	0.08184
788.821	0.08371
784.702	0.08634
780.583	0.08891
776.464	0.09138
772.344	0.09407
768.225	0.09667
764.106	0.09936
759.987	0.10197
755.868	0.10505
751.749	0.10873
747.629	0.11243
743.51	0.11557
739.391	0.11899
735.272	0.12305
731.153	0.12651
727.034	0.12971
722.914	0.13309
718.795	0.13611
714.676	0.13971
710.557	0.14354
706.438	0.14742
702.319	0.15143
698.199	0.15435
694.08	0.15700
689.961	0.15937
685.842	0.16215
681.723	0.16440
677.604	0.16653
673.484	0.16818
669.365	0.16977
665.246	0.17197
661.127	0.17301
657.008	0.17397
652.889	0.17504
648.769	0.17572
644.65	0.17598
640.531	0.17608
636.412	0.17619
632.293	0.17627
628.173	0.17604
624.054	0.17592
619.935	0.17598
615.816	0.17591
611.697	0.17616
607.578	0.17649
603.458	0.17600
599.339	0.17527
595.22	0.17503
591.101	0.17495
586.982	0.17575
582.863	0.17694
578.743	0.17891
574.624	0.18073
570.505	0.18303
566.386	0.18547
562.267	0.18867
558.148	0.19300
554.028	0.19736
549.909	0.20062
545.79	0.20238
541.671	0.20240
537.552	0.20105
533.433	0.19951
529.313	0.19834
525.194	0.19619
521.075	0.19545
516.956	0.19516
512.837	0.19437
508.718	0.19347
504.598	0.19173
500.479	0.19010
496.36	0.18870
492.241	0.18821
488.122	0.18710
484.003	0.18451
479.883	0.18176
475.764	0.17871
471.645	0.17706
467.526	0.17477
463.407	0.17185
459.288	0.16937
455.168	0.16661
451.049	0.16490
446.93	0.16283
442.811	0.16048
438.692	0.15919
434.572	0.15636
430.453	0.15558
426.334	0.15535
422.215	0.15411
418.096	0.15320
413.977	0.15152
409.857	0.14993
405.738	0.14830
401.619	0.14622
399.56	0.14501