File: DSC/JLY_CBD_Xtal_KY1_Heating1.csv
Filename,JLY_CBD_Xtal_KY1
Instrument name,DSC2A-00468 (192.168.1.101)
Operator,JLY
rundate,1/26/2018
proceduresegments,Data Off ; Equilibrate -50.00 °C; Isothermal 1.0 min; Data On ; Ramp 10.00 °C/min to 110.00 °C; Data Off ; Isothermal 1.0 min; Data On ; Ramp 10.00 °C/min to -50.00 °C; Data Off ; Isothermal 1.0 min; Data On ; Ramp 10.00 °C/min to 110.00 °C; Data Off ; Isothermal 1.0 min; Data On ; Ramp 10.00 °C/min to -50.00 °C; Data Off ; Isothermal 1.0 min; Data On ; Ramp 5.00 °C/min to 110.00 °C; Data Off ; Isothermal 1.0 min; Data On ; Ramp 10.00 °C/min to -50.00 °C; Data Off ; Isothermal 1.0 min; Data On ; Ramp 5.00 °C/min to 110.00 °C; Data Off ; Jump 25.00 °C
[step]
Ramp 10 °C/min to 110.00 °C
Time,Temperature,Heat Flow (Normalized)
min,°C,W/g
0.00,-49.92,-0.013
0.01,-49.92,-0.013
0.02,-49.92,-0.013
0.03,-49.92,-0.013
0.05,-49.91,-0.013
0.06,-49.90,-0.014
0.07,-49.90,-0.019
0.08,-49.88,-0.029
0.09,-49.86,-0.040
0.11,-49.83,-0.050
0.12,-49.79,-0.055
0.13,-49.75,-0.060
0.14,-49.70,-0.060
0.15,-49.64,-0.061
0.16,-49.57,-0.059
0.18,-49.50,-0.056
0.19,-49.42,-0.046
0.20,-49.33,-0.026
0.21,-49.24,-0.014
0.22,-49.15,-0.005
0.23,-49.06,0.013
0.24,-48.96,0.021
0.26,-48.86,0.035
0.27,-48.76,0.045
0.28,-48.66,0.055
0.29,-48.55,0.062
0.30,-48.44,0.073
0.31,-48.34,0.079
0.33,-48.23,0.087
0.34,-48.12,0.094
0.35,-48.01,0.097
0.36,-47.90,0.104
0.37,-47.79,0.107
0.39,-47.68,0.114
0.40,-47.57,0.117
0.41,-47.46,0.119
0.42,-47.34,0.122
0.43,-47.23,0.127
0.44,-47.12,0.129
0.45,-47.01,0.131
0.47,-46.89,0.132
0.48,-46.78,0.134
0.49,-46.66,0.136
0.50,-46.55,0.139
0.51,-46.43,0.140
0.53,-46.32,0.141
0.54,-46.21,0.143
0.55,-46.09,0.144
0.56,-45.98,0.145
0.57,-45.86,0.146
0.58,-45.75,0.148
0.60,-45.63,0.148
0.61,-45.51,0.148
0.62,-45.40,0.149
0.63,-45.28,0.150
0.64,-45.17,0.150
0.65,-45.05,0.150
0.67,-44.94,0.151
0.68,-44.82,0.151
0.69,-44.71,0.151
0.70,-44.59,0.152
0.71,-44.48,0.152
0.72,-44.36,0.152
0.73,-44.24,0.153
0.75,-44.13,0.153
0.76,-44.01,0.153
0.77,-43.89,0.153
0.78,-43.78,0.154
0.79,-43.66,0.154
0.80,-43.55,0.154
0.82,-43.43,0.155
0.83,-43.32,0.155
0.84,-43.20,0.155
0.85,-43.08,0.155
0.86,-42.97,0.156
0.88,-42.85,0.156
0.89,-42.73,0.156
0.90,-42.62,0.156
0.91,-42.50,0.157
0.92,-42.39,0.157
0.93,-42.27,0.157
0.95,-42.15,0.157
0.96,-42.04,0.157
0.97,-41.92,0.158
0.98,-41.80,0.158
0.99,-41.69,0.158
1.00,-41.57,0.158
1.02,-41.46,0.158
1.03,-41.34,0.158
1.04,-41.22,0.158
1.05,-41.11,0.159
1.06,-40.99,0.161
1.07,-40.87,0.166
1.08,-40.76,0.166
1.10,-40.64,0.166
1.11,-40.53,0.166
1.12,-40.41,0.166
1.13,-40.29,0.166
1.14,-40.18,0.166
1.16,-40.06,0.166
1.17,-39.94,0.166
1.18,-39.83,0.166
1.19,-39.71,0.166
1.20,-39.60,0.165
1.21,-39.48,0.165
1.23,-39.36,0.165
1.24,-39.24,0.165
1.25,-39.13,0.165
1.26,-39.01,0.165
1.27,-38.90,0.165
1.28,-38.78,0.165
1.29,-38.66,0.165
1.31,-38.55,0.165
1.32,-38.43,0.165
1.33,-38.32,0.164
1.34,-38.20,0.164
1.35,-38.08,0.164
1.37,-37.96,0.164
1.38,-37.85,0.164
1.39,-37.73,0.164
1.40,-37.62,0.164
1.41,-37.50,0.164
1.42,-37.38,0.164
1.43,-37.26,0.164
1.45,-37.15,0.164
1.46,-37.03,0.164
1.47,-36.91,0.164
1.48,-36.80,0.164
1.49,-36.68,0.164
1.51,-36.56,0.164
1.52,-36.45,0.164
1.53,-36.33,0.164
1.54,-36.22,0.164
1.55,-36.10,0.164
1.56,-35.98,0.164
1.58,-35.86,0.164
1.59,-35.75,0.164
1.60,-35.63,0.164
1.61,-35.51,0.164
1.62,-35.40,0.164
1.63,-35.28,0.164
1.64,-35.16,0.164
1.66,-35.05,0.164
1.67,-34.93,0.164
1.68,-34.82,0.164
1.69,-34.70,0.164
1.70,-34.58,0.164
1.72,-34.47,0.164
1.73,-34.35,0.164
1.74,-34.23,0.164
1.75,-34.12,0.164
1.76,-34.00,0.164
1.77,-33.88,0.164
1.78,-33.77,0.164
1.80,-33.65,0.164
1.81,-33.53,0.164
1.82,-33.41,0.164
1.83,-33.30,0.164
1.84,-33.18,0.164
1.86,-33.07,0.164
1.87,-32.95,0.164
1.88,-32.83,0.164
1.89,-32.71,0.164
1.90,-32.60,0.164
1.91,-32.48,0.164
1.93,-32.36,0.164
1.94,-32.25,0.165
1.95,-32.13,0.164
1.96,-32.02,0.164
1.97,-31.90,0.164
1.98,-31.78,0.165
1.99,-31.66,0.165
2.01,-31.55,0.165
2.02,-31.43,0.165
2.03,-31.31,0.165
2.04,-31.20,0.165
2.05,-31.08,0.165
2.07,-30.96,0.165
2.08,-30.85,0.165
2.09,-30.73,0.165
2.10,-30.61,0.165
2.11,-30.50,0.165
2.12,-30.38,0.165
2.14,-30.26,0.165
2.15,-30.15,0.165
2.16,-30.03,0.165
2.17,-29.91,0.165
2.18,-29.80,0.165
2.19,-29.68,0.165
2.21,-29.56,0.165
2.22,-29.45,0.166
2.23,-29.33,0.166
2.24,-29.21,0.165
2.25,-29.10,0.166
2.26,-28.98,0.166
2.28,-28.86,0.166
2.29,-28.75,0.166
2.30,-28.63,0.166
2.31,-28.51,0.166
2.32,-28.40,0.166
2.33,-28.28,0.166
2.34,-28.16,0.166
2.36,-28.05,0.166
2.37,-27.93,0.166
2.38,-27.81,0.166
2.39,-27.69,0.166
2.40,-27.58,0.166
2.41,-27.46,0.166
2.43,-27.34,0.166
2.44,-27.23,0.166
2.45,-27.11,0.166
2.46,-26.99,0.166
2.47,-26.88,0.166
2.49,-26.76,0.166
2.50,-26.64,0.166
2.51,-26.53,0.167
2.52,-26.41,0.166
2.53,-26.29,0.167
2.54,-26.18,0.167
2.56,-26.06,0.167
2.57,-25.94,0.167
2.58,-25.83,0.167
2.59,-25.71,0.167
2.60,-25.59,0.167
2.61,-25.48,0.167
2.63,-25.36,0.167
2.64,-25.24,0.167
2.65,-25.13,0.167
2.66,-25.01,0.167
2.67,-24.89,0.167
2.68,-24.78,0.167
2.69,-24.66,0.167
2.71,-24.54,0.167
2.72,-24.42,0.167
2.73,-24.31,0.167
2.74,-24.19,0.167
2.75,-24.07,0.167
2.76,-23.96,0.167
2.78,-23.84,0.168
2.79,-23.72,0.168
2.80,-23.61,0.168
2.81,-23.49,0.168
2.82,-23.37,0.168
2.84,-23.26,0.168
2.85,-23.14,0.168
2.86,-23.02,0.168
2.87,-22.91,0.168
2.88,-22.79,0.168
2.89,-22.67,0.168
2.91,-22.56,0.168
2.92,-22.44,0.168
2.93,-22.32,0.168
2.94,-22.21,0.168
2.95,-22.09,0.168
2.96,-21.97,0.168
2.98,-21.86,0.168
2.99,-21.74,0.168
3.00,-21.62,0.168
3.01,-21.51,0.168
3.02,-21.39,0.168
3.03,-21.27,0.168
3.04,-21.16,0.168
3.06,-21.04,0.169
3.07,-20.92,0.168
3.08,-20.80,0.168
3.09,-20.69,0.169
3.10,-20.57,0.169
3.11,-20.46,0.169
3.13,-20.34,0.169
3.14,-20.22,0.169
3.15,-20.10,0.169
3.16,-19.99,0.169
3.17,-19.87,0.169
3.19,-19.75,0.169
3.20,-19.64,0.169
3.21,-19.52,0.169
3.22,-19.40,0.169
3.23,-19.29,0.169
3.24,-19.17,0.169
3.26,-19.05,0.169
3.27,-18.94,0.169
3.28,-18.82,0.169
3.29,-18.70,0.169
3.30,-18.59,0.169
3.31,-18.47,0.169
3.33,-18.35,0.169
3.34,-18.24,0.169
3.35,-18.12,0.170
3.36,-18.00,0.170
3.37,-17.88,0.170
3.38,-17.77,0.170
3.39,-17.65,0.170
3.41,-17.54,0.170
3.42,-17.42,0.170
3.43,-17.30,0.170
3.44,-17.18,0.170
3.45,-17.07,0.170
3.46,-16.95,0.170
3.48,-16.83,0.170
3.49,-16.72,0.170
3.50,-16.60,0.170
3.51,-16.48,0.170
3.52,-16.37,0.170
3.54,-16.25,0.170
3.55,-16.13,0.170
3.56,-16.02,0.170
3.57,-15.90,0.170
3.58,-15.78,0.170
3.59,-15.67,0.170
3.61,-15.55,0.171
3.62,-15.43,0.171
3.63,-15.32,0.171
3.64,-15.20,0.171
3.65,-15.08,0.171
3.66,-14.97,0.171
3.68,-14.85,0.171
3.69,-14.73,0.171
3.70,-14.62,0.171
3.71,-14.50,0.171
3.72,-14.38,0.171
3.73,-14.27,0.171
3.74,-14.15,0.171
3.76,-14.03,0.171
3.77,-13.91,0.171
3.78,-13.80,0.171
3.79,-13.68,0.171
3.80,-13.56,0.171
3.81,-13.45,0.171
3.83,-13.33,0.171
3.84,-13.21,0.172
3.85,-13.10,0.172
3.86,-12.98,0.172
3.87,-12.86,0.172
3.89,-12.75,0.172
3.90,-12.63,0.172
3.91,-12.51,0.172
3.92,-12.40,0.172
3.93,-12.28,0.172
3.94,-12.16,0.172
3.96,-12.05,0.172
3.97,-11.93,0.172
3.98,-11.81,0.172
3.99,-11.70,0.172
4.00,-11.58,0.172
4.01,-11.46,0.172
4.03,-11.34,0.172
4.04,-11.23,0.172
4.05,-11.11,0.172
4.06,-11.00,0.172
4.07,-10.88,0.172
4.08,-10.76,0.172
4.09,-10.65,0.173
4.11,-10.53,0.172
4.12,-10.41,0.172
4.13,-10.29,0.172
4.14,-10.18,0.173
4.15,-10.06,0.173
4.16,-9.94,0.173
4.18,-9.83,0.173
4.19,-9.71,0.195
4.20,-9.60,0.202
4.21,-9.48,0.199
4.22,-9.36,0.196
4.24,-9.25,0.196
4.25,-9.13,0.195
4.26,-9.01,0.195
4.27,-8.90,0.194
4.28,-8.78,0.192
4.29,-8.66,0.192
4.30,-8.55,0.190
4.32,-8.43,0.190
4.33,-8.31,0.189
4.34,-8.20,0.189
4.35,-8.08,0.188
4.36,-7.96,0.188
4.38,-7.85,0.187
4.39,-7.73,0.187
4.40,-7.61,0.186
4.41,-7.50,0.186
4.42,-7.38,0.185
4.43,-7.26,0.184
4.45,-7.14,0.184
4.46,-7.03,0.184
4.47,-6.91,0.183
4.48,-6.79,0.183
4.49,-6.68,0.183
4.50,-6.56,0.182
4.51,-6.44,0.182
4.53,-6.33,0.182
4.54,-6.21,0.181
4.55,-6.09,0.181
4.56,-5.98,0.181
4.57,-5.86,0.181
4.59,-5.74,0.180
4.60,-5.63,0.180
4.61,-5.51,0.180
4.62,-5.39,0.180
4.63,-5.27,0.180
4.64,-5.16,0.179
4.65,-5.04,0.179
4.67,-4.92,0.179
4.68,-4.81,0.179
4.69,-4.69,0.179
4.70,-4.57,0.179
4.71,-4.46,0.179
4.73,-4.34,0.178
4.74,-4.22,0.178
4.75,-4.11,0.178
4.76,-3.99,0.178
4.77,-3.87,0.178
4.78,-3.76,0.178
4.80,-3.64,0.178
4.81,-3.52,0.178
4.82,-3.41,0.178
4.83,-3.29,0.178
4.84,-3.17,0.178
4.85,-3.06,0.178
4.86,-2.94,0.178
4.88,-2.82,0.178
4.89,-2.70,0.178
4.90,-2.59,0.178
4.91,-2.47,0.178
4.92,-2.35,0.178
4.94,-2.24,0.178
4.95,-2.12,0.178
4.96,-2.00,0.178
4.97,-1.89,0.178
4.98,-1.77,0.178
4.99,-1.65,0.178
5.00,-1.54,0.178
5.02,-1.42,0.178
5.03,-1.30,0.178
5.04,-1.19,0.178
5.05,-1.07,0.178
5.06,-0.95,0.178
5.08,-0.84,0.178
5.09,-0.72,0.178
5.10,-0.60,0.178
5.11,-0.48,0.178
5.12,-0.37,0.178
5.13,-0.25,0.178
5.15,-0.14,0.178
5.16,-0.02,0.178
5.17,0.10,0.178
5.18,0.21,0.178
5.19,0.33,0.178
5.20,0.45,0.179
5.21,0.56,0.179
5.23,0.68,0.179
5.24,0.80,0.179
5.25,0.92,0.179
5.26,1.03,0.179
5.27,1.15,0.179
5.29,1.27,0.179
5.30,1.38,0.179
5.31,1.50,0.179
5.32,1.62,0.179
5.33,1.73,0.179
5.34,1.85,0.179
5.35,1.97,0.179
5.37,2.08,0.179
5.38,2.20,0.179
5.39,2.32,0.179
5.40,2.43,0.179
5.41,2.55,0.179
5.43,2.67,0.179
5.44,2.78,0.179
5.45,2.90,0.180
5.46,3.02,0.180
5.47,3.13,0.180
5.48,3.25,0.180
5.50,3.37,0.180
5.51,3.48,0.180
5.52,3.60,0.180
5.53,3.72,0.180
5.54,3.83,0.180
5.55,3.95,0.180
5.56,4.07,0.180
5.58,4.18,0.180
5.59,4.30,0.180
5.60,4.42,0.180
5.61,4.53,0.180
5.62,4.65,0.180
5.64,4.77,0.180
5.65,4.88,0.181
5.66,5.00,0.181
5.67,5.12,0.181
5.68,5.24,0.181
5.69,5.35,0.181
5.70,5.47,0.181
5.72,5.58,0.181
5.73,5.70,0.181
5.74,5.82,0.181
5.75,5.94,0.181
5.76,6.05,0.181
5.78,6.17,0.181
5.79,6.29,0.181
5.80,6.40,0.181
5.81,6.52,0.181
5.82,6.64,0.181
5.83,6.75,0.182
5.85,6.87,0.182
5.86,6.99,0.182
5.87,7.10,0.182
5.88,7.22,0.182
5.89,7.34,0.182
5.90,7.45,0.182
5.91,7.57,0.182
5.93,7.69,0.182
5.94,7.80,0.182
5.95,7.92,0.182
5.96,8.04,0.182
5.97,8.16,0.182
5.99,8.27,0.182
6.00,8.39,0.183
6.01,8.51,0.183
6.02,8.62,0.183
6.03,8.74,0.183
6.04,8.86,0.183
6.05,8.97,0.183
6.07,9.09,0.183
6.08,9.21,0.183
6.09,9.32,0.183
6.10,9.44,0.183
6.11,9.56,0.183
6.13,9.67,0.183
6.14,9.79,0.183
6.15,9.91,0.183
6.16,10.02,0.183
6.17,10.14,0.183
6.18,10.26,0.183
6.20,10.37,0.183
6.21,10.49,0.184
6.22,10.61,0.184
6.23,10.72,0.184
6.24,10.84,0.184
6.25,10.96,0.184
6.26,11.07,0.184
6.28,11.19,0.184
6.29,11.31,0.184
6.30,11.42,0.184
6.31,11.54,0.184
6.32,11.66,0.184
6.34,11.77,0.184
6.35,11.89,0.184
6.36,12.01,0.184
6.37,12.13,0.185
6.38,12.24,0.185
6.39,12.36,0.185
6.40,12.48,0.185
6.42,12.59,0.185
6.43,12.71,0.185
6.44,12.83,0.185
6.45,12.94,0.185
6.46,13.06,0.185
6.48,13.18,0.185
6.49,13.29,0.185
6.50,13.41,0.185
6.51,13.53,0.185
6.52,13.64,0.185
6.53,13.76,0.185
6.55,13.88,0.186
6.56,13.99,0.185
6.57,14.11,0.186
6.58,14.23,0.186
6.59,14.34,0.186
6.60,14.46,0.186
6.61,14.58,0.186
6.63,14.69,0.186
6.64,14.81,0.186
6.65,14.93,0.186
6.66,15.04,0.186
6.67,15.16,0.186
6.69,15.28,0.186
6.70,15.39,0.186
6.71,15.51,0.186
6.72,15.63,0.186
6.73,15.74,0.187
6.74,15.86,0.187
6.75,15.98,0.187
6.77,16.09,0.187
6.78,16.21,0.187
6.79,16.33,0.187
6.80,16.44,0.187
6.81,16.56,0.187
6.83,16.68,0.187
6.84,16.80,0.187
6.85,16.91,0.187
6.86,17.03,0.187
6.87,17.15,0.187
6.88,17.26,0.188
6.90,17.38,0.188
6.91,17.50,0.188
6.92,17.61,0.188
6.93,17.73,0.188
6.94,17.85,0.188
6.95,17.96,0.188
6.96,18.08,0.188
6.98,18.20,0.188
6.99,18.31,0.188
7.00,18.43,0.188
7.01,18.55,0.189
7.02,18.66,0.189
7.04,18.78,0.189
7.05,18.90,0.189
7.06,19.01,0.189
7.07,19.13,0.189
7.08,19.25,0.189
7.09,19.36,0.189
7.10,19.48,0.189
7.12,19.60,0.189
7.13,19.71,0.189
7.14,19.83,0.189
7.15,19.95,0.189
7.16,20.06,0.190
7.18,20.18,0.190
7.19,20.30,0.190
7.20,20.42,0.190
7.21,20.53,0.190
7.22,20.65,0.190
7.23,20.77,0.190
7.25,20.88,0.190
7.26,21.00,0.190
7.27,21.11,0.190
7.28,21.23,0.191
7.29,21.35,0.191
7.30,21.47,0.191
7.31,21.58,0.191
7.33,21.70,0.191
7.34,21.82,0.191
7.35,21.93,0.191
7.36,22.05,0.191
7.37,22.17,0.191
7.39,22.28,0.192
7.40,22.40,0.192
7.41,22.52,0.192
7.42,22.63,0.192
7.43,22.75,0.192
7.44,22.87,0.192
7.45,22.98,0.192
7.47,23.10,0.192
7.48,23.22,0.192
7.49,23.33,0.192
7.50,23.45,0.192
7.51,23.57,0.193
7.53,23.68,0.193
7.54,23.80,0.193
7.55,23.92,0.193
7.56,24.03,0.193
7.57,24.15,0.193
7.58,24.27,0.193
7.60,24.38,0.193
7.61,24.50,0.193
7.62,24.62,0.194
7.63,24.73,0.194
7.64,24.85,0.194
7.65,24.97,0.194
7.66,25.09,0.194
7.68,25.20,0.194
7.69,25.32,0.194
7.70,25.43,0.194
7.71,25.55,0.194
7.72,25.67,0.194
7.74,25.79,0.195
7.75,25.90,0.195
7.76,26.02,0.195
7.77,26.13,0.195
7.78,26.25,0.195
7.79,26.37,0.195
7.80,26.49,0.195
7.82,26.60,0.195
7.83,26.72,0.195
7.84,26.84,0.195
7.85,26.95,0.195
7.86,27.07,0.196
7.88,27.19,0.196
7.89,27.30,0.196
7.90,27.42,0.196
7.91,27.54,0.196
7.92,27.65,0.196
7.93,27.77,0.196
7.95,27.89,0.196
7.96,28.00,0.196
7.97,28.12,0.197
7.98,28.24,0.197
7.99,28.35,0.197
8.00,28.47,0.197
8.01,28.59,0.197
8.03,28.70,0.197
8.04,28.82,0.197
8.05,28.94,0.197
8.06,29.05,0.197
8.07,29.17,0.198
8.09,29.29,0.198
8.10,29.40,0.198
8.11,29.52,0.198
8.12,29.64,0.198
8.13,29.76,0.198
8.14,29.87,0.198
8.15,29.99,0.198
8.17,30.11,0.198
8.18,30.22,0.198
8.19,30.34,0.199
8.20,30.46,0.199
8.21,30.57,0.199
8.23,30.69,0.199
8.24,30.81,0.199
8.25,30.92,0.199
8.26,31.04,0.199
8.27,31.16,0.199
8.28,31.27,0.199
8.30,31.39,0.199
8.31,31.51,0.199
8.32,31.62,0.199
8.33,31.74,0.200
8.34,31.86,0.200
8.35,31.97,0.200
8.36,32.09,0.200
8.38,32.21,0.200
8.39,32.32,0.200
8.40,32.44,0.200
8.41,32.56,0.200
8.42,32.67,0.200
8.44,32.79,0.200
8.45,32.91,0.200
8.46,33.02,0.200
8.47,33.14,0.201
8.48,33.26,0.201
8.49,33.37,0.201
8.50,33.49,0.201
8.52,33.61,0.201
8.53,33.72,0.201
8.54,33.84,0.201
8.55,33.96,0.201
8.56,34.08,0.201
8.58,34.19,0.201
8.59,34.31,0.201
8.60,34.43,0.201
8.61,34.54,0.202
8.62,34.66,0.202
8.63,34.77,0.202
8.65,34.89,0.202
8.66,35.01,0.202
8.67,35.13,0.202
8.68,35.24,0.202
8.69,35.36,0.202
8.70,35.48,0.202
8.72,35.59,0.202
8.73,35.71,0.202
8.74,35.83,0.202
8.75,35.94,0.203
8.76,36.06,0.203
8.77,36.18,0.203
8.78,36.29,0.203
8.80,36.41,0.203
8.81,36.53,0.203
8.82,36.64,0.203
8.83,36.76,0.203
8.84,36.88,0.203
8.85,36.99,0.203
8.87,37.11,0.203
8.88,37.23,0.203
8.89,37.34,0.203
8.90,37.46,0.204
8.91,37.58,0.204
8.93,37.69,0.204
8.94,37.81,0.204
8.95,37.93,0.204
8.96,38.04,0.204
8.97,38.16,0.204
8.98,38.28,0.204
9.00,38.39,0.204
9.01,38.51,0.204
9.02,38.63,0.204
9.03,38.74,0.204
9.04,38.86,0.205
9.05,38.98,0.205
9.07,39.10,0.205
9.08,39.21,0.205
9.09,39.33,0.205
9.10,39.45,0.205
9.11,39.56,0.205
9.12,39.68,0.205
9.13,39.80,0.205
9.15,39.91,0.205
9.16,40.03,0.205
9.17,40.15,0.205
9.18,40.26,0.206
9.19,40.38,0.206
9.20,40.50,0.206
9.22,40.61,0.206
9.23,40.73,0.206
9.24,40.85,0.206
9.25,40.96,0.206
9.26,41.08,0.206
9.28,41.20,0.206
9.29,41.31,0.206
9.30,41.43,0.206
9.31,41.55,0.207
9.32,41.66,0.207
9.33,41.78,0.207
9.35,41.90,0.207
9.36,42.01,0.207
9.37,42.13,0.207
9.38,42.25,0.207
9.39,42.36,0.207
9.40,42.48,0.207
9.42,42.60,0.207
9.43,42.71,0.207
9.44,42.83,0.208
9.45,42.95,0.208
9.46,43.06,0.208
9.47,43.18,0.208
9.48,43.30,0.208
9.50,43.41,0.208
9.51,43.53,0.208
9.52,43.65,0.208
9.53,43.77,0.208
9.54,43.88,0.208
9.55,44.00,0.208
9.57,44.12,0.208
9.58,44.23,0.209
9.59,44.35,0.209
9.60,44.47,0.209
9.61,44.58,0.209
9.63,44.70,0.209
9.64,44.82,0.209
9.65,44.93,0.209
9.66,45.05,0.209
9.67,45.17,0.209
9.68,45.28,0.209
9.70,45.40,0.209
9.71,45.52,0.210
9.72,45.63,0.210
9.73,45.75,0.210
9.74,45.87,0.210
9.75,45.98,0.210
9.77,46.10,0.210
9.78,46.22,0.210
9.79,46.33,0.210
9.80,46.45,0.210
9.81,46.57,0.210
9.82,46.68,0.211
9.83,46.80,0.211
9.85,46.92,0.211
9.86,47.03,0.211
9.87,47.15,0.211
9.88,47.27,0.211
9.89,47.38,0.211
9.90,47.50,0.211
9.92,47.62,0.211
9.93,47.73,0.211
9.94,47.85,0.212
9.95,47.97,0.212
9.96,48.09,0.212
9.98,48.20,0.212
9.99,48.32,0.212
10.00,48.44,0.212
10.01,48.55,0.212
10.02,48.67,0.212
10.03,48.79,0.212
10.05,48.90,0.213
10.06,49.02,0.213
10.07,49.14,0.213
10.08,49.25,0.213
10.09,49.37,0.213
10.10,49.48,0.213
10.12,49.60,0.213
10.13,49.72,0.213
10.14,49.84,0.213
10.15,49.95,0.213
10.16,50.07,0.214
10.17,50.19,0.214
10.18,50.30,0.214
10.20,50.42,0.214
10.21,50.54,0.214
10.22,50.65,0.214
10.23,50.77,0.214
10.24,50.89,0.214
10.25,51.00,0.215
10.27,51.12,0.215
10.28,51.24,0.215
10.29,51.35,0.215
10.30,51.47,0.215
10.31,51.59,0.215
10.33,51.70,0.215
10.34,51.82,0.215
10.35,51.94,0.215
10.36,52.05,0.216
10.37,52.17,0.216
10.38,52.29,0.216
10.40,52.40,0.216
10.41,52.52,0.216
10.42,52.64,0.216
10.43,52.75,0.217
10.44,52.87,0.217
10.45,52.99,0.217
10.47,53.10,0.217
10.48,53.22,0.217
10.49,53.34,0.217
10.50,53.45,0.217
10.51,53.57,0.218
10.52,53.69,0.218
10.53,53.80,0.218
10.55,53.92,0.218
10.56,54.04,0.218
10.57,54.15,0.218
10.58,54.27,0.219
10.59,54.39,0.219
10.60,54.51,0.219
10.62,54.62,0.219
10.63,54.74,0.219
10.64,54.86,0.219
10.65,54.97,0.219
10.66,55.09,0.220
10.68,55.21,0.220
10.69,55.32,0.220
10.70,55.44,0.220
10.71,55.56,0.220
10.72,55.67,0.220
10.73,55.79,0.221
10.75,55.91,0.221
10.76,56.02,0.221
10.77,56.14,0.221
10.78,56.26,0.221
10.79,56.37,0.221
10.80,56.49,0.222
10.82,56.61,0.222
10.83,56.72,0.223
10.84,56.84,0.223
10.85,56.96,0.223
10.86,57.07,0.223
10.87,57.19,0.223
10.88,57.31,0.223
10.90,57.42,0.224
10.91,57.54,0.224
10.92,57.66,0.224
10.93,57.77,0.225
10.94,57.89,0.225
10.95,58.01,0.225
10.97,58.12,0.225
10.98,58.24,0.226
10.99,58.36,0.226
11.00,58.47,0.226
11.01,58.59,0.226
11.03,58.71,0.226
11.04,58.82,0.227
11.05,58.94,0.227
11.06,59.06,0.227
11.07,59.17,0.227
11.08,59.29,0.228
11.10,59.41,0.228
11.11,59.52,0.228
11.12,59.64,0.228
11.13,59.76,0.229
11.14,59.87,0.229
11.15,59.99,0.229
11.17,60.11,0.230
11.18,60.22,0.230
11.19,60.34,0.230
11.20,60.46,0.231
11.21,60.57,0.231
11.22,60.69,0.231
11.23,60.81,0.232
11.25,60.92,0.232
11.26,61.04,0.232
11.27,61.16,0.233
11.28,61.27,0.233
11.29,61.39,0.234
11.30,61.51,0.234
11.32,61.62,0.235
11.33,61.74,0.235
11.34,61.86,0.235
11.35,61.97,0.237
11.36,62.09,0.237
11.38,62.21,0.238
11.39,62.32,0.239
11.40,62.44,0.240
11.41,62.56,0.241
11.42,62.67,0.241
11.43,62.79,0.242
11.45,62.91,0.243
11.46,63.02,0.244
11.47,63.14,0.244
11.48,63.26,0.246
11.49,63.37,0.247
11.50,63.49,0.248
11.52,63.61,0.250
11.53,63.72,0.251
11.54,63.84,0.252
11.55,63.95,0.254
11.56,64.07,0.257
11.57,64.19,0.260
11.58,64.30,0.264
11.60,64.42,0.267
11.61,64.54,0.269
11.62,64.65,0.273
11.63,64.77,0.277
11.64,64.89,0.280
11.65,65.00,0.283
11.67,65.12,0.288
11.68,65.24,0.294
11.69,65.35,0.299
11.70,65.47,0.303
11.71,65.58,0.311
11.73,65.70,0.318
11.74,65.81,0.325
11.75,65.93,0.335
11.76,66.05,0.344
11.77,66.16,0.356
11.78,66.27,0.371
11.80,66.39,0.386
11.81,66.50,0.404
11.82,66.62,0.425
11.83,66.73,0.440
11.84,66.84,0.465
11.85,66.96,0.488
11.87,67.07,0.515
11.88,67.18,0.545
11.89,67.29,0.580
11.90,67.41,0.619
11.91,67.51,0.668
11.92,67.63,0.726
11.93,67.73,0.775
11.95,67.84,0.823
11.96,67.95,0.878
11.97,68.05,0.932
11.98,68.16,0.993
11.99,68.27,1.061
12.00,68.37,1.130
12.02,68.48,1.204
12.03,68.58,1.275
12.04,68.68,1.342
12.05,68.78,1.405
12.06,68.89,1.467
12.08,68.99,1.525
12.09,69.09,1.585
12.10,69.20,1.642
12.11,69.30,1.704
12.12,69.40,1.755
12.13,69.51,1.809
12.15,69.61,1.849
12.16,69.72,1.892
12.17,69.82,1.940
12.18,69.93,1.973
12.19,70.03,2.026
12.20,70.14,2.184
12.22,70.24,2.247
12.23,70.34,2.297
12.24,70.44,2.343
12.25,70.55,2.381
12.26,70.65,2.415
12.27,70.76,2.445
12.28,70.86,2.481
12.30,70.97,2.524
12.31,71.08,2.571
12.32,71.18,2.581
12.33,71.29,2.602
12.34,71.40,2.708
12.35,71.50,2.775
12.37,71.61,2.766
12.38,71.72,2.720
12.39,71.83,2.714
12.40,71.94,2.784
12.41,72.06,2.738
12.43,72.17,2.677
12.44,72.29,2.609
12.45,72.41,2.520
12.46,72.54,2.415
12.47,72.67,2.305
12.48,72.80,2.202
12.50,72.93,2.107
12.51,73.06,2.023
12.52,73.20,1.921
12.53,73.33,1.794
12.54,73.47,1.654
12.55,73.61,1.433
12.57,73.76,1.221
12.58,73.91,1.025
12.59,74.06,0.888
12.60,74.21,0.763
12.61,74.35,0.687
12.62,74.50,0.633
12.63,74.64,0.588
12.65,74.78,0.556
12.66,74.91,0.522
12.67,75.04,0.497
12.68,75.17,0.473
12.69,75.30,0.449
12.70,75.43,0.434
12.72,75.56,0.416
12.73,75.68,0.404
12.74,75.80,0.388
12.75,75.93,0.380
12.76,76.05,0.369
12.78,76.17,0.364
12.79,76.29,0.355
12.80,76.41,0.347
12.81,76.53,0.343
12.82,76.65,0.339
12.83,76.77,0.334
12.85,76.89,0.331
12.86,77.01,0.328
12.87,77.13,0.326
12.88,77.25,0.323
12.89,77.36,0.320
12.90,77.48,0.319
12.92,77.60,0.318
12.93,77.72,0.318
12.94,77.84,0.317
12.95,77.95,0.316
12.96,78.07,0.315
12.97,78.19,0.314
12.98,78.30,0.313
13.00,78.42,0.313
13.01,78.54,0.312
13.02,78.66,0.312
13.03,78.77,0.312
13.04,78.89,0.311
13.05,79.01,0.311
13.07,79.13,0.311
13.08,79.24,0.311
13.09,79.36,0.310
13.10,79.47,0.310
13.11,79.59,0.310
13.13,79.71,0.310
13.14,79.83,0.310
13.15,79.94,0.309
13.16,80.06,0.309
13.17,80.18,0.309
13.18,80.29,0.309
13.20,80.41,0.309
13.21,80.53,0.309
13.22,80.64,0.308
13.23,80.76,0.308
13.24,80.88,0.308
13.25,80.99,0.308
13.27,81.11,0.308
13.28,81.23,0.308
13.29,81.34,0.308
13.30,81.46,0.308
13.31,81.58,0.308
13.32,81.69,0.307
13.33,81.81,0.307
13.35,81.93,0.307
13.36,82.04,0.307
13.37,82.16,0.307
13.38,82.28,0.307
13.39,82.39,0.307
13.40,82.51,0.307
13.42,82.63,0.307
13.43,82.74,0.307
13.44,82.86,0.307
13.45,82.98,0.307
13.46,83.09,0.307
13.48,83.21,0.307
13.49,83.33,0.307
13.50,83.44,0.307
13.51,83.56,0.307
13.52,83.68,0.307
13.53,83.79,0.307
13.55,83.91,0.307
13.56,84.03,0.307
13.57,84.15,0.307
13.58,84.26,0.307
13.59,84.38,0.307
13.60,84.50,0.307
13.62,84.61,0.307
13.63,84.73,0.307
13.64,84.85,0.307
13.65,84.96,0.307
13.66,85.08,0.307
13.67,85.20,0.307
13.68,85.31,0.307
13.70,85.43,0.307
13.71,85.55,0.307
13.72,85.66,0.307
13.73,85.78,0.307
13.74,85.90,0.307
13.75,86.01,0.307
13.77,86.13,0.307
13.78,86.25,0.307
13.79,86.36,0.307
13.80,86.48,0.307
13.81,86.60,0.307
13.83,86.71,0.307
13.84,86.83,0.307
13.85,86.95,0.307
13.86,87.06,0.307
13.87,87.18,0.308
13.88,87.30,0.308
13.90,87.41,0.308
13.91,87.53,0.308
13.92,87.65,0.308
13.93,87.77,0.308
13.94,87.88,0.308
13.95,88.00,0.308
13.97,88.12,0.308
13.98,88.23,0.308
13.99,88.35,0.308
14.00,88.47,0.308
14.01,88.58,0.308
14.02,88.70,0.308
14.03,88.82,0.308
14.05,88.93,0.308
14.06,89.05,0.308
14.07,89.17,0.308
14.08,89.28,0.308
14.09,89.40,0.308
14.10,89.52,0.308
14.12,89.63,0.309
14.13,89.75,0.309
14.14,89.87,0.309
14.15,89.98,0.309
14.16,90.10,0.309
14.18,90.22,0.309
14.19,90.33,0.309
14.20,90.45,0.309
14.21,90.57,0.309
14.22,90.68,0.309
14.23,90.80,0.309
14.25,90.92,0.309
14.26,91.04,0.309
14.27,91.15,0.309
14.28,91.27,0.309
14.29,91.38,0.309
14.30,91.50,0.309
14.32,91.62,0.309
14.33,91.73,0.309
14.34,91.85,0.309
14.35,91.97,0.310
14.36,92.09,0.310
14.37,92.20,0.310
14.38,92.32,0.310
14.40,92.44,0.310
14.41,92.55,0.310
14.42,92.67,0.310
14.43,92.79,0.310
14.44,92.90,0.310
14.45,93.02,0.310
14.47,93.14,0.310
14.48,93.25,0.310
14.49,93.37,0.310
14.50,93.49,0.310
14.51,93.60,0.310
14.53,93.72,0.310
14.54,93.84,0.310
14.55,93.95,0.310
14.56,94.07,0.310
14.57,94.19,0.310
14.58,94.30,0.311
14.60,94.42,0.311
14.61,94.54,0.311
14.62,94.65,0.311
14.63,94.77,0.311
14.64,94.89,0.311
14.65,95.00,0.311
14.67,95.12,0.311
14.68,95.24,0.311
14.69,95.35,0.311
14.70,95.47,0.311
14.71,95.59,0.311
14.72,95.70,0.311
14.73,95.82,0.311
14.75,95.94,0.311
14.76,96.05,0.311
14.77,96.17,0.311
14.78,96.29,0.311
14.79,96.40,0.311
14.80,96.52,0.311
14.82,96.64,0.311
14.83,96.76,0.311
14.84,96.87,0.311
14.85,96.99,0.311
14.86,97.11,0.312
14.88,97.22,0.312
14.89,97.34,0.312
14.90,97.46,0.312
14.91,97.57,0.312
14.92,97.69,0.312
14.93,97.81,0.312
14.95,97.92,0.312
14.96,98.04,0.312
14.97,98.16,0.312
14.98,98.27,0.312
14.99,98.39,0.312
15.00,98.51,0.312
15.02,98.62,0.312
15.03,98.74,0.312
15.04,98.86,0.312
15.05,98.97,0.312
15.06,99.09,0.313
15.07,99.21,0.313
15.08,99.32,0.313
15.10,99.44,0.313
15.11,99.56,0.313
15.12,99.67,0.313
15.13,99.79,0.313
15.14,99.91,0.313
15.15,100.02,0.313
15.17,100.14,0.313
15.18,100.26,0.313
15.19,100.37,0.313
15.20,100.49,0.313
15.21,100.61,0.313
15.23,100.72,0.313
15.24,100.84,0.313
15.25,100.96,0.313
15.26,101.07,0.313
15.27,101.19,0.313
15.28,101.31,0.314
15.30,101.43,0.314
15.31,101.54,0.314
15.32,101.66,0.314
15.33,101.77,0.314
15.34,101.89,0.314
15.35,102.01,0.314
15.37,102.13,0.314
15.38,102.24,0.314
15.39,102.36,0.314
15.40,102.47,0.314
15.41,102.59,0.314
15.42,102.71,0.314
15.43,102.83,0.314
15.45,102.94,0.314
15.46,103.06,0.314
15.47,103.18,0.314
15.48,103.29,0.314
15.49,103.41,0.314
15.50,103.52,0.314
15.52,103.64,0.314
15.53,103.76,0.314
15.54,103.88,0.314
15.55,103.99,0.315
15.56,104.11,0.315
15.58,104.23,0.315
15.59,104.34,0.315
15.60,104.46,0.315
15.61,104.58,0.315
15.62,104.69,0.315
15.63,104.81,0.315
15.65,104.93,0.315
15.66,105.04,0.315
15.67,105.16,0.315
15.68,105.28,0.315
15.69,105.39,0.315
15.70,105.51,0.315
15.72,105.63,0.315
15.73,105.74,0.315
15.74,105.86,0.315
15.75,105.98,0.315
15.76,106.09,0.315
15.77,106.21,0.316
15.78,106.33,0.316
15.80,106.44,0.316
15.81,106.56,0.316
15.82,106.68,0.316
15.83,106.80,0.316
15.84,106.91,0.316
15.85,107.03,0.316
15.87,107.14,0.316
15.88,107.26,0.316
15.89,107.38,0.316
15.90,107.49,0.316
15.91,107.61,0.316
15.93,107.73,0.316
15.94,107.85,0.316
15.95,107.96,
15.96,108.08,
15.97,108.20,
15.98,108.31,
16.00,,
16.00,,