File: DSC/JLY_CBD_Xtal_KY1_Cooling1.csv
Filename,JLY_CBD_Xtal_KY1
Instrument name,DSC2A-00468 (192.168.1.101)
Operator,JLY
rundate,1/26/2018
proceduresegments,Data Off ; Equilibrate -50.00 °C; Isothermal 1.0 min; Data On ; Ramp 10.00 °C/min to 110.00 °C; Data Off ; Isothermal 1.0 min; Data On ; Ramp 10.00 °C/min to -50.00 °C; Data Off ; Isothermal 1.0 min; Data On ; Ramp 10.00 °C/min to 110.00 °C; Data Off ; Isothermal 1.0 min; Data On ; Ramp 10.00 °C/min to -50.00 °C; Data Off ; Isothermal 1.0 min; Data On ; Ramp 5.00 °C/min to 110.00 °C; Data Off ; Isothermal 1.0 min; Data On ; Ramp 10.00 °C/min to -50.00 °C; Data Off ; Isothermal 1.0 min; Data On ; Ramp 5.00 °C/min to 110.00 °C; Data Off ; Jump 25.00 °C
[step]
Ramp 10 °C/min to -50.00 °C
Time,Temperature,Heat Flow (Normalized)
min,°C,W/g
17.00,110.03,-0.043
17.01,110.03,-0.043
17.02,110.03,-0.043
17.03,110.03,-0.043
17.05,110.02,-0.043
17.06,110.01,-0.042
17.07,110.00,-0.034
17.08,109.98,-0.028
17.09,109.95,-0.026
17.11,109.91,-0.027
17.12,109.86,-0.053
17.13,109.80,-0.084
17.14,109.73,-0.114
17.15,109.66,-0.149
17.16,109.58,-0.181
17.18,109.50,-0.207
17.19,109.41,-0.235
17.20,109.32,-0.255
17.21,109.22,-0.275
17.22,109.12,-0.290
17.23,109.02,-0.304
17.24,108.92,-0.318
17.26,108.82,-0.328
17.27,108.71,-0.337
17.28,108.61,-0.345
17.29,108.50,-0.354
17.30,108.39,-0.359
17.32,108.28,-0.367
17.33,108.17,-0.371
17.34,108.06,-0.376
17.35,107.94,-0.380
17.36,107.83,-0.384
17.37,107.72,-0.387
17.38,107.60,-0.390
17.40,107.49,-0.391
17.41,107.38,-0.394
17.42,107.26,-0.395
17.43,107.15,-0.396
17.44,107.03,-0.397
17.46,106.92,-0.398
17.47,106.80,-0.399
17.48,106.69,-0.400
17.49,106.57,-0.400
17.50,106.46,-0.401
17.51,106.34,-0.401
17.53,106.22,-0.402
17.54,106.11,-0.402
17.55,105.99,-0.402
17.56,105.88,-0.403
17.57,105.76,-0.403
17.58,105.65,-0.403
17.59,105.53,-0.403
17.61,105.41,-0.403
17.62,105.30,-0.404
17.63,105.18,-0.404
17.64,105.06,-0.404
17.65,104.95,-0.404
17.67,104.83,-0.404
17.68,104.72,-0.404
17.69,104.60,-0.404
17.70,104.48,-0.405
17.71,104.37,-0.405
17.72,104.25,-0.405
17.73,104.14,-0.405
17.75,104.02,-0.405
17.76,103.90,-0.405
17.77,103.79,-0.405
17.78,103.67,-0.405
17.79,103.55,-0.405
17.81,103.44,-0.405
17.82,103.32,-0.405
17.83,103.21,-0.405
17.84,103.09,-0.405
17.85,102.97,-0.405
17.86,102.86,-0.405
17.88,102.74,-0.405
17.89,102.63,-0.405
17.90,102.51,-0.405
17.91,102.39,-0.405
17.92,102.28,-0.405
17.93,102.16,-0.405
17.94,102.04,-0.405
17.96,101.93,-0.405
17.97,101.81,-0.405
17.98,101.69,-0.405
17.99,101.58,-0.405
18.00,101.46,-0.405
18.02,101.35,-0.405
18.03,101.23,-0.405
18.04,101.11,-0.405
18.05,101.00,-0.404
18.06,100.88,-0.404
18.07,100.76,-0.404
18.08,100.65,-0.404
18.10,100.53,-0.404
18.11,100.41,-0.404
18.12,100.30,-0.404
18.13,100.18,-0.404
18.14,100.06,-0.404
18.16,99.95,-0.404
18.17,99.83,-0.403
18.18,99.72,-0.403
18.19,99.60,-0.403
18.20,99.48,-0.403
18.21,99.37,-0.403
18.23,99.25,-0.403
18.24,99.13,-0.403
18.25,99.02,-0.403
18.26,98.90,-0.403
18.27,98.79,-0.403
18.28,98.67,-0.403
18.29,98.55,-0.403
18.31,98.44,-0.402
18.32,98.32,-0.402
18.33,98.20,-0.402
18.34,98.09,-0.402
18.35,97.97,-0.402
18.37,97.85,-0.402
18.38,97.74,-0.402
18.39,97.62,-0.402
18.40,97.50,-0.402
18.41,97.39,-0.401
18.42,97.27,-0.401
18.43,97.15,-0.401
18.45,97.04,-0.401
18.46,96.92,-0.401
18.47,96.81,-0.401
18.48,96.69,-0.401
18.49,96.57,-0.401
18.51,96.46,-0.400
18.52,96.34,-0.400
18.53,96.22,-0.400
18.54,96.11,-0.400
18.55,95.99,-0.400
18.56,95.88,-0.400
18.58,95.76,-0.400
18.59,95.64,-0.400
18.60,95.53,-0.400
18.61,95.41,-0.400
18.62,95.29,-0.399
18.63,95.18,-0.399
18.64,95.06,-0.399
18.66,94.94,-0.399
18.67,94.83,-0.399
18.68,94.71,-0.399
18.69,94.59,-0.399
18.70,94.48,-0.399
18.72,94.36,-0.399
18.73,94.24,-0.398
18.74,94.13,-0.398
18.75,94.01,-0.398
18.76,93.89,-0.398
18.77,93.78,-0.398
18.78,93.66,-0.398
18.80,93.55,-0.398
18.81,93.43,-0.398
18.82,93.31,-0.398
18.83,93.20,-0.397
18.84,93.08,-0.397
18.86,92.96,-0.397
18.87,92.85,-0.397
18.88,92.73,-0.397
18.89,92.61,-0.397
18.90,92.50,-0.397
18.91,92.38,-0.397
18.93,92.27,-0.396
18.94,92.15,-0.396
18.95,92.03,-0.396
18.96,91.92,-0.396
18.97,91.80,-0.396
18.98,91.68,-0.396
18.99,91.57,-0.396
19.01,91.45,-0.396
19.02,91.33,-0.395
19.03,91.21,-0.395
19.04,91.10,-0.395
19.05,90.98,-0.395
19.07,90.87,-0.395
19.08,90.75,-0.395
19.09,90.63,-0.395
19.10,90.52,-0.395
19.11,90.40,-0.395
19.12,90.28,-0.395
19.13,90.17,-0.394
19.15,90.05,-0.394
19.16,89.93,-0.394
19.17,89.82,-0.394
19.18,89.70,-0.394
19.19,89.58,-0.394
19.21,89.47,-0.394
19.22,89.35,-0.394
19.23,89.23,-0.394
19.24,89.12,-0.394
19.25,89.00,-0.393
19.26,88.89,-0.393
19.28,88.77,-0.393
19.29,88.65,-0.393
19.30,88.54,-0.393
19.31,88.42,-0.393
19.32,88.30,-0.393
19.33,88.19,-0.393
19.34,88.07,-0.392
19.36,87.95,-0.392
19.37,87.84,-0.392
19.38,87.72,-0.392
19.39,87.60,-0.392
19.40,87.49,-0.392
19.42,87.37,-0.392
19.43,87.25,-0.392
19.44,87.14,-0.392
19.45,87.02,-0.392
19.46,86.90,-0.392
19.47,86.79,-0.392
19.48,86.67,-0.391
19.50,86.55,-0.391
19.51,86.44,-0.391
19.52,86.32,-0.391
19.53,86.21,-0.391
19.54,86.09,-0.391
19.56,85.97,-0.391
19.57,85.86,-0.391
19.58,85.74,-0.390
19.59,85.62,-0.390
19.60,85.51,-0.390
19.61,85.39,-0.390
19.63,85.27,-0.390
19.64,85.16,-0.390
19.65,85.04,-0.390
19.66,84.92,-0.390
19.67,84.81,-0.390
19.68,84.69,-0.390
19.69,84.57,-0.390
19.71,84.46,-0.389
19.72,84.34,-0.389
19.73,84.22,-0.389
19.74,84.11,-0.389
19.75,83.99,-0.389
19.77,83.88,-0.389
19.78,83.76,-0.389
19.79,83.64,-0.389
19.80,83.53,-0.389
19.81,83.41,-0.389
19.82,83.29,-0.389
19.83,83.18,-0.388
19.85,83.06,-0.388
19.86,82.94,-0.388
19.87,82.83,-0.388
19.88,82.71,-0.388
19.89,82.59,-0.388
19.91,82.48,-0.388
19.92,82.36,-0.388
19.93,82.24,-0.388
19.94,82.13,-0.388
19.95,82.01,-0.388
19.96,81.89,-0.388
19.98,81.78,-0.387
19.99,81.66,-0.387
20.00,81.54,-0.387
20.01,81.43,-0.387
20.02,81.31,-0.387
20.03,81.19,-0.387
20.04,81.08,-0.387
20.06,80.96,-0.387
20.07,80.84,-0.387
20.08,80.73,-0.387
20.09,80.61,-0.387
20.10,80.50,-0.386
20.12,80.38,-0.386
20.13,80.26,-0.386
20.14,80.15,-0.386
20.15,80.03,-0.386
20.16,79.91,-0.386
20.17,79.80,-0.386
20.18,79.68,-0.386
20.20,79.56,-0.386
20.21,79.45,-0.386
20.22,79.33,-0.386
20.23,79.21,-0.385
20.24,79.10,-0.385
20.26,78.98,-0.385
20.27,78.86,-0.385
20.28,78.75,-0.385
20.29,78.63,-0.385
20.30,78.52,-0.385
20.31,78.40,-0.385
20.33,78.28,-0.385
20.34,78.17,-0.385
20.35,78.05,-0.385
20.36,77.93,-0.385
20.37,77.82,-0.384
20.38,77.70,-0.384
20.39,77.58,-0.384
20.41,77.47,-0.384
20.42,77.35,-0.384
20.43,77.23,-0.384
20.44,77.12,-0.384
20.45,77.00,-0.384
20.47,76.88,-0.384
20.48,76.77,-0.384
20.49,76.65,-0.384
20.50,76.53,-0.383
20.51,76.42,-0.384
20.52,76.30,-0.383
20.53,76.18,-0.383
20.55,76.07,-0.383
20.56,75.95,-0.383
20.57,75.83,-0.383
20.58,75.72,-0.383
20.59,75.60,-0.382
20.61,75.48,-0.382
20.62,75.37,-0.382
20.63,75.25,-0.382
20.64,75.13,-0.382
20.65,75.02,-0.382
20.66,74.90,-0.382
20.68,74.79,-0.382
20.69,74.67,-0.382
20.70,74.55,-0.382
20.71,74.44,-0.381
20.72,74.32,-0.381
20.73,74.20,-0.381
20.74,74.09,-0.381
20.76,73.97,-0.381
20.77,73.85,-0.381
20.78,73.74,-0.381
20.79,73.62,-0.381
20.80,73.50,-0.381
20.82,73.39,-0.381
20.83,73.27,-0.381
20.84,73.15,-0.381
20.85,73.04,-0.381
20.86,72.92,-0.381
20.87,72.80,-0.380
20.88,72.69,-0.380
20.90,72.57,-0.380
20.91,72.45,-0.380
20.92,72.34,-0.380
20.93,72.22,-0.380
20.94,72.11,-0.380
20.96,71.99,-0.380
20.97,71.87,-0.380
20.98,71.76,-0.380
20.99,71.64,-0.380
21.00,71.52,-0.379
21.01,71.41,-0.379
21.03,71.29,-0.379
21.04,71.17,-0.379
21.05,71.06,-0.379
21.06,70.94,-0.379
21.07,70.82,-0.379
21.08,70.71,-0.379
21.09,70.59,-0.379
21.11,70.47,-0.379
21.12,70.36,-0.378
21.13,70.24,-0.378
21.14,70.12,-0.378
21.15,70.01,-0.378
21.17,69.89,-0.378
21.18,69.78,-0.378
21.19,69.66,-0.378
21.20,69.54,-0.378
21.21,69.42,-0.378
21.22,69.31,-0.378
21.23,69.19,-0.378
21.25,69.08,-0.378
21.26,68.96,-0.377
21.27,68.84,-0.377
21.28,68.73,-0.377
21.29,68.61,-0.377
21.31,68.49,-0.377
21.32,68.38,-0.377
21.33,68.26,-0.377
21.34,68.14,-0.377
21.35,68.03,-0.377
21.36,67.91,-0.377
21.38,67.79,-0.377
21.39,67.68,-0.376
21.40,67.56,-0.376
21.41,67.44,-0.376
21.42,67.33,-0.376
21.43,67.21,-0.376
21.44,67.09,-0.376
21.46,66.98,-0.376
21.47,66.86,-0.376
21.48,66.74,-0.376
21.49,66.63,-0.375
21.50,66.51,-0.375
21.52,66.40,-0.375
21.53,66.28,-0.375
21.54,66.16,-0.375
21.55,66.05,-0.375
21.56,65.93,-0.375
21.57,65.81,-0.375
21.58,65.70,-0.375
21.60,65.58,-0.375
21.61,65.46,-0.375
21.62,65.35,-0.374
21.63,65.23,-0.374
21.64,65.11,-0.374
21.66,65.00,-0.374
21.67,64.88,-0.374
21.68,64.76,-0.374
21.69,64.65,-0.374
21.70,64.53,-0.374
21.71,64.41,-0.374
21.73,64.30,-0.373
21.74,64.18,-0.373
21.75,64.06,-0.373
21.76,63.95,-0.373
21.77,63.83,-0.373
21.78,63.72,-0.373
21.79,63.60,-0.373
21.81,63.48,-0.373
21.82,63.37,-0.372
21.83,63.25,-0.372
21.84,63.13,-0.372
21.85,63.02,-0.372
21.87,62.90,-0.372
21.88,62.78,-0.372
21.89,62.67,-0.372
21.90,62.55,-0.372
21.91,62.43,-0.372
21.92,62.32,-0.371
21.93,62.20,-0.371
21.95,62.08,-0.371
21.96,61.97,-0.371
21.97,61.85,-0.371
21.98,61.74,-0.371
21.99,61.62,-0.371
22.01,61.50,-0.371
22.02,61.39,-0.371
22.03,61.27,-0.370
22.04,61.15,-0.370
22.05,61.03,-0.370
22.06,60.92,-0.370
22.08,60.80,-0.370
22.09,60.68,-0.370
22.10,60.57,-0.370
22.11,60.45,-0.370
22.12,60.34,-0.369
22.13,60.22,-0.369
22.14,60.10,-0.369
22.16,59.99,-0.369
22.17,59.87,-0.369
22.18,59.75,-0.369
22.19,59.64,-0.368
22.20,59.52,-0.368
22.22,59.40,-0.368
22.23,59.29,-0.368
22.24,59.17,-0.368
22.25,59.05,-0.368
22.26,58.94,-0.368
22.27,58.82,-0.368
22.28,58.70,-0.367
22.30,58.59,-0.367
22.31,58.47,-0.367
22.32,58.35,-0.367
22.33,58.24,-0.367
22.34,58.12,-0.367
22.36,58.00,-0.367
22.37,57.89,-0.367
22.38,57.77,-0.367
22.39,57.65,-0.367
22.40,57.54,-0.367
22.41,57.42,-0.367
22.43,57.30,-0.366
22.44,57.19,-0.366
22.45,57.07,-0.366
22.46,56.96,-0.366
22.47,56.84,-0.366
22.48,56.72,-0.366
22.49,56.61,-0.366
22.51,56.49,-0.366
22.52,56.37,-0.366
22.53,56.26,-0.366
22.54,56.14,-0.366
22.55,56.02,-0.365
22.57,55.91,-0.365
22.58,55.79,-0.365
22.59,55.67,-0.365
22.60,55.56,-0.365
22.61,55.44,-0.365
22.62,55.32,-0.365
22.63,55.21,-0.365
22.65,55.09,-0.365
22.66,54.98,-0.364
22.67,54.86,-0.364
22.68,54.74,-0.364
22.69,54.63,-0.364
22.71,54.51,-0.364
22.72,54.39,-0.364
22.73,54.28,-0.364
22.74,54.16,-0.364
22.75,54.04,-0.363
22.76,53.93,-0.363
22.78,53.81,-0.363
22.79,53.69,-0.363
22.80,53.58,-0.363
22.81,53.46,-0.363
22.82,53.34,-0.362
22.83,53.23,-0.363
22.84,53.11,-0.362
22.86,52.99,-0.362
22.87,52.88,-0.362
22.88,52.76,-0.362
22.89,52.65,-0.362
22.90,52.53,-0.362
22.92,52.41,-0.362
22.93,52.30,-0.362
22.94,52.18,-0.361
22.95,52.06,-0.361
22.96,51.95,-0.361
22.97,51.83,-0.361
22.98,51.71,-0.361
23.00,51.60,-0.361
23.01,51.48,-0.361
23.02,51.36,-0.361
23.03,51.25,-0.361
23.04,51.13,-0.361
23.06,51.01,-0.361
23.07,50.90,-0.361
23.08,50.78,-0.361
23.09,50.67,-0.361
23.10,50.55,-0.360
23.11,50.43,-0.360
23.13,50.31,-0.360
23.14,50.20,-0.360
23.15,50.08,-0.360
23.16,49.97,-0.360
23.17,49.85,-0.360
23.18,49.73,-0.360
23.19,49.62,-0.360
23.21,49.50,-0.360
23.22,49.38,-0.360
23.23,49.27,-0.359
23.24,49.15,-0.359
23.25,49.03,-0.359
23.27,48.92,-0.359
23.28,48.80,-0.359
23.29,48.68,-0.359
23.30,48.57,-0.359
23.31,48.45,-0.359
23.32,48.33,-0.359
23.33,48.22,-0.359
23.35,48.10,-0.359
23.36,47.98,-0.359
23.37,47.87,-0.358
23.38,47.75,-0.358
23.39,47.63,-0.358
23.41,47.52,-0.358
23.42,47.40,-0.358
23.43,47.29,-0.358
23.44,47.17,-0.358
23.45,47.05,-0.358
23.46,46.94,-0.358
23.48,46.82,-0.358
23.49,46.70,-0.358
23.50,46.59,-0.358
23.51,46.47,-0.358
23.52,46.35,-0.357
23.53,46.24,-0.357
23.54,46.12,-0.357
23.56,46.01,-0.357
23.57,45.89,-0.357
23.58,45.77,-0.357
23.59,45.65,-0.357
23.60,45.54,-0.357
23.62,45.42,-0.357
23.63,45.31,-0.357
23.64,45.19,-0.357
23.65,45.07,-0.356
23.66,44.96,-0.356
23.67,44.84,-0.356
23.68,44.72,-0.356
23.70,44.61,-0.356
23.71,44.49,-0.356
23.72,44.37,-0.356
23.73,44.26,-0.356
23.74,44.14,-0.356
23.76,44.02,-0.356
23.77,43.91,-0.356
23.78,43.79,-0.356
23.79,43.67,-0.355
23.80,43.56,-0.355
23.81,43.44,-0.355
23.83,43.32,-0.355
23.84,43.21,-0.355
23.85,43.09,-0.355
23.86,42.98,-0.355
23.87,42.86,-0.355
23.88,42.74,-0.355
23.89,42.63,-0.355
23.91,42.51,-0.355
23.92,42.39,-0.355
23.93,42.28,-0.355
23.94,42.16,-0.355
23.95,42.04,-0.354
23.97,41.93,-0.354
23.98,41.81,-0.354
23.99,41.69,-0.354
24.00,41.58,-0.354
24.01,41.46,-0.354
24.02,41.35,-0.354
24.03,41.23,-0.354
24.05,41.11,-0.354
24.06,41.00,-0.354
24.07,40.88,-0.354
24.08,40.76,-0.354
24.09,40.65,-0.354
24.11,40.53,-0.353
24.12,40.41,-0.353
24.13,40.30,-0.353
24.14,40.18,-0.353
24.15,40.06,-0.353
24.16,39.95,-0.353
24.18,39.83,-0.353
24.19,39.71,-0.353
24.20,39.60,-0.353
24.21,39.48,-0.353
24.22,39.36,-0.353
24.23,39.25,-0.352
24.24,39.13,-0.352
24.26,39.01,-0.352
24.27,38.90,-0.352
24.28,38.78,-0.352
24.29,38.67,-0.352
24.30,38.55,-0.352
24.32,38.43,-0.352
24.33,38.32,-0.352
24.34,38.20,-0.352
24.35,38.08,-0.352
24.36,37.97,-0.352
24.37,37.85,-0.352
24.38,37.73,-0.352
24.40,37.62,-0.351
24.41,37.50,-0.351
24.42,37.38,-0.351
24.43,37.27,-0.351
24.44,37.15,-0.351
24.46,37.03,-0.351
24.47,36.92,-0.351
24.48,36.80,-0.351
24.49,36.68,-0.351
24.50,36.57,-0.351
24.51,36.45,-0.351
24.53,36.34,-0.351
24.54,36.22,-0.351
24.55,36.10,-0.351
24.56,35.99,-0.351
24.57,35.87,-0.350
24.58,35.75,-0.350
24.59,35.64,-0.350
24.61,35.52,-0.350
24.62,35.40,-0.350
24.63,35.29,-0.350
24.64,35.17,-0.350
24.65,35.05,-0.350
24.67,34.94,-0.349
24.68,34.82,-0.349
24.69,34.70,-0.349
24.70,34.59,-0.349
24.71,34.47,-0.349
24.72,34.35,-0.349
24.73,34.24,-0.349
24.75,34.12,-0.349
24.76,34.01,-0.349
24.77,33.89,-0.349
24.78,33.77,-0.349
24.79,33.66,-0.349
24.81,33.54,-0.349
24.82,33.42,-0.349
24.83,33.31,-0.348
24.84,33.19,-0.348
24.85,33.07,-0.348
24.86,32.96,-0.348
24.88,32.84,-0.348
24.89,32.72,-0.348
24.90,32.61,-0.348
24.91,32.49,-0.348
24.92,32.38,-0.348
24.93,32.26,-0.348
24.94,32.14,-0.348
24.96,32.03,-0.348
24.97,31.91,-0.348
24.98,31.79,-0.348
24.99,31.68,-0.347
25.00,31.56,-0.347
25.02,31.44,-0.347
25.03,31.33,-0.347
25.04,31.21,-0.347
25.05,31.09,-0.347
25.06,30.98,-0.347
25.07,30.86,-0.347
25.08,30.74,-0.347
25.10,30.63,-0.347
25.11,30.51,-0.347
25.12,30.39,-0.347
25.13,30.28,-0.347
25.14,30.16,-0.346
25.16,30.04,-0.346
25.17,29.93,-0.346
25.18,29.81,-0.346
25.19,29.70,-0.346
25.20,29.58,-0.346
25.21,29.46,-0.346
25.23,29.35,-0.346
25.24,29.23,-0.346
25.25,29.11,-0.346
25.26,29.00,-0.345
25.27,28.88,-0.345
25.28,28.76,-0.345
25.29,28.65,-0.345
25.31,28.53,-0.345
25.32,28.41,-0.345
25.33,28.30,-0.345
25.34,28.18,-0.345
25.35,28.06,-0.345
25.37,27.95,-0.345
25.38,27.83,-0.344
25.39,27.72,-0.344
25.40,27.60,-0.344
25.41,27.48,-0.344
25.42,27.37,-0.344
25.43,27.25,-0.344
25.45,27.13,-0.344
25.46,27.02,-0.344
25.47,26.90,-0.344
25.48,26.78,-0.344
25.49,26.67,-0.343
25.51,26.55,-0.343
25.52,26.43,-0.343
25.53,26.32,-0.343
25.54,26.20,-0.343
25.55,26.08,-0.343
25.56,25.97,-0.343
25.58,25.85,-0.343
25.59,25.74,-0.342
25.60,25.62,-0.342
25.61,25.50,-0.342
25.62,25.38,-0.342
25.63,25.27,-0.342
25.64,25.15,-0.341
25.66,25.04,-0.341
25.67,24.92,-0.341
25.68,24.80,-0.341
25.69,24.69,-0.341
25.70,24.57,-0.341
25.72,24.45,-0.341
25.73,24.34,-0.340
25.74,24.22,-0.340
25.75,24.10,-0.340
25.76,23.99,-0.340
25.77,23.87,-0.340
25.78,23.76,-0.340
25.80,23.64,-0.340
25.81,23.52,-0.340
25.82,23.41,-0.340
25.83,23.29,-0.339
25.84,23.17,-0.339
25.86,23.06,-0.339
25.87,22.94,-0.339
25.88,22.82,-0.339
25.89,22.71,-0.339
25.90,22.59,-0.339
25.91,22.47,-0.339
25.93,22.36,-0.338
25.94,22.24,-0.338
25.95,22.12,-0.338
25.96,22.01,-0.338
25.97,21.89,-0.338
25.98,21.78,-0.338
25.99,21.66,-0.338
26.01,21.54,-0.338
26.02,21.43,-0.338
26.03,21.31,-0.337
26.04,21.19,-0.337
26.05,21.08,-0.337
26.07,20.96,-0.337
26.08,20.84,-0.337
26.09,20.73,-0.337
26.10,20.61,-0.337
26.11,20.49,-0.336
26.12,20.38,-0.336
26.13,20.26,-0.336
26.15,20.15,-0.336
26.16,20.03,-0.336
26.17,19.91,-0.336
26.18,19.80,-0.336
26.19,19.68,-0.336
26.21,19.56,-0.335
26.22,19.45,-0.335
26.23,19.33,-0.335
26.24,19.21,-0.335
26.25,19.10,-0.335
26.26,18.98,-0.335
26.28,18.86,-0.335
26.29,18.75,-0.334
26.30,18.63,-0.334
26.31,18.51,-0.334
26.32,18.40,-0.334
26.33,18.28,-0.334
26.34,18.17,-0.334
26.36,18.05,-0.334
26.37,17.93,-0.334
26.38,17.82,-0.334
26.39,17.70,-0.334
26.40,17.58,-0.333
26.42,17.47,-0.333
26.43,17.35,-0.333
26.44,17.24,-0.333
26.45,17.12,-0.333
26.46,17.00,-0.333
26.47,16.89,-0.333
26.48,16.77,-0.332
26.50,16.65,-0.332
26.51,16.54,-0.332
26.52,16.42,-0.332
26.53,16.30,-0.332
26.54,16.19,-0.332
26.56,16.07,-0.332
26.57,15.95,-0.331
26.58,15.84,-0.331
26.59,15.72,-0.331
26.60,15.61,-0.331
26.61,15.49,-0.331
26.63,15.37,-0.331
26.64,15.26,-0.331
26.65,15.14,-0.331
26.66,15.02,-0.330
26.67,14.91,-0.330
26.68,14.79,-0.330
26.69,14.67,-0.330
26.71,14.56,-0.330
26.72,14.44,-0.330
26.73,14.32,-0.330
26.74,14.21,-0.330
26.75,14.09,-0.329
26.77,13.97,-0.329
26.78,13.86,-0.329
26.79,13.74,-0.329
26.80,13.63,-0.329
26.81,13.51,-0.329
26.82,13.39,-0.329
26.83,13.28,-0.329
26.85,13.16,-0.329
26.86,13.04,-0.329
26.87,12.93,-0.328
26.88,12.81,-0.328
26.89,12.69,-0.328
26.91,12.58,-0.328
26.92,12.46,-0.328
26.93,12.34,-0.328
26.94,12.23,-0.328
26.95,12.11,-0.328
26.96,11.99,-0.328
26.98,11.88,-0.328
26.99,11.76,-0.328
27.00,11.65,-0.327
27.01,11.53,-0.327
27.02,11.41,-0.327
27.03,11.30,-0.327
27.04,11.18,-0.327
27.06,11.06,-0.327
27.07,10.95,-0.327
27.08,10.83,-0.327
27.09,10.71,-0.327
27.10,10.60,-0.327
27.12,10.48,-0.326
27.13,10.36,-0.326
27.14,10.25,-0.326
27.15,10.13,-0.326
27.16,10.01,-0.326
27.17,9.90,-0.326
27.18,9.78,-0.326
27.20,9.66,-0.326
27.21,9.54,-0.326
27.22,9.43,-0.326
27.23,9.31,-0.325
27.24,9.20,-0.325
27.26,9.08,-0.325
27.27,8.96,-0.325
27.28,8.85,-0.325
27.29,8.73,-0.325
27.30,8.61,-0.325
27.31,8.50,-0.325
27.33,8.38,-0.325
27.34,8.26,-0.324
27.35,8.15,-0.324
27.36,8.03,-0.324
27.37,7.91,-0.324
27.38,7.80,-0.324
27.39,7.68,-0.324
27.41,7.56,-0.324
27.42,7.45,-0.324
27.43,7.33,-0.324
27.44,7.21,-0.324
27.45,7.10,-0.324
27.47,6.98,-0.324
27.48,6.86,-0.324
27.49,6.75,-0.324
27.50,6.63,-0.324
27.51,6.51,-0.323
27.52,6.40,-0.323
27.53,6.28,-0.323
27.55,6.16,-0.323
27.56,6.04,-0.323
27.57,5.93,-0.323
27.58,5.81,-0.322
27.59,5.70,-0.322
27.61,5.58,-0.322
27.62,5.46,-0.322
27.63,5.34,-0.322
27.64,5.23,-0.322
27.65,5.11,-0.322
27.66,5.00,-0.322
27.68,4.88,-0.322
27.69,4.76,-0.322
27.70,4.65,-0.322
27.71,4.53,-0.322
27.72,4.41,-0.322
27.73,4.30,-0.321
27.74,4.18,-0.321
27.76,4.06,-0.321
27.77,3.94,-0.321
27.78,3.83,-0.321
27.79,3.71,-0.321
27.80,3.59,-0.321
27.82,3.48,-0.321
27.83,3.36,-0.321
27.84,3.24,-0.321
27.85,3.13,-0.320
27.86,3.01,-0.320
27.87,2.90,-0.320
27.88,2.78,-0.320
27.90,2.66,-0.320
27.91,2.54,-0.320
27.92,2.43,-0.320
27.93,2.31,-0.320
27.94,2.20,-0.320
27.96,2.08,-0.320
27.97,1.96,-0.320
27.98,1.84,-0.319
27.99,1.73,-0.319
28.00,1.61,-0.319
28.01,1.49,-0.319
28.03,1.38,-0.319
28.04,1.26,-0.319
28.05,1.14,-0.319
28.06,1.03,-0.319
28.07,0.91,-0.319
28.08,0.79,-0.319
28.09,0.67,-0.319
28.11,0.56,-0.318
28.12,0.44,-0.318
28.13,0.33,-0.318
28.14,0.21,-0.318
28.15,0.09,-0.318
28.17,-0.02,-0.318
28.18,-0.14,-0.318
28.19,-0.26,-0.318
28.20,-0.37,-0.318
28.21,-0.49,-0.318
28.22,-0.61,-0.317
28.23,-0.72,-0.317
28.25,-0.84,-0.317
28.26,-0.96,-0.317
28.27,-1.08,-0.317
28.28,-1.19,-0.317
28.29,-1.31,-0.317
28.31,-1.43,-0.317
28.32,-1.54,-0.317
28.33,-1.66,-0.317
28.34,-1.78,-0.316
28.35,-1.89,-0.316
28.36,-2.01,-0.316
28.38,-2.13,-0.316
28.39,-2.24,-0.316
28.40,-2.36,-0.316
28.41,-2.48,-0.316
28.42,-2.59,-0.316
28.43,-2.71,-0.316
28.44,-2.83,-0.316
28.46,-2.94,-0.316
28.47,-3.06,-0.315
28.48,-3.18,-0.315
28.49,-3.29,-0.315
28.50,-3.41,-0.315
28.52,-3.53,-0.315
28.53,-3.64,-0.315
28.54,-3.76,-0.315
28.55,-3.88,-0.315
28.56,-3.99,-0.315
28.57,-4.11,-0.314
28.58,-4.23,-0.314
28.60,-4.34,-0.314
28.61,-4.46,-0.314
28.62,-4.58,-0.314
28.63,-4.69,-0.314
28.64,-4.81,-0.314
28.66,-4.93,-0.314
28.67,-5.04,-0.313
28.68,-5.16,-0.313
28.69,-5.28,-0.313
28.70,-5.39,-0.313
28.71,-5.51,-0.313
28.73,-5.63,-0.313
28.74,-5.74,-0.313
28.75,-5.86,-0.313
28.76,-5.98,-0.313
28.77,-6.09,-0.312
28.78,-6.21,-0.312
28.79,-6.33,-0.312
28.81,-6.44,-0.312
28.82,-6.56,-0.312
28.83,-6.68,-0.312
28.84,-6.79,-0.312
28.85,-6.91,-0.312
28.87,-7.03,-0.311
28.88,-7.14,-0.311
28.89,-7.26,-0.311
28.90,-7.38,-0.311
28.91,-7.49,-0.311
28.92,-7.61,-0.311
28.93,-7.73,-0.310
28.95,-7.84,-0.310
28.96,-7.96,-0.310
28.97,-8.08,-0.310
28.98,-8.19,-0.310
28.99,-8.31,-0.310
29.01,-8.43,-0.309
29.02,-8.54,-0.309
29.03,-8.66,-0.309
29.04,-8.78,-0.309
29.05,-8.89,-0.309
29.06,-9.01,-0.309
29.08,-9.13,-0.308
29.09,-9.24,-0.308
29.10,-9.36,-0.308
29.11,-9.48,-0.308
29.12,-9.60,-0.307
29.13,-9.71,-0.307
29.14,-9.83,-0.307
29.16,-9.94,-0.307
29.17,-10.06,-0.306
29.18,-10.18,-0.306
29.19,-10.29,-0.306
29.20,-10.41,-0.305
29.22,-10.53,-0.305
29.23,-10.64,-0.305
29.24,-10.76,-0.305
29.25,-10.88,-0.304
29.26,-10.99,-0.304
29.27,-11.11,-0.304
29.28,-11.23,-0.303
29.30,-11.35,-0.303
29.31,-11.46,-0.303
29.32,-11.58,-0.302
29.33,-11.70,-0.302
29.34,-11.81,-0.301
29.36,-11.93,-0.301
29.37,-12.04,-0.301
29.38,-12.16,-0.300
29.39,-12.28,-0.300
29.40,-12.40,-0.300
29.41,-12.51,-0.299
29.43,-12.63,-0.299
29.44,-12.75,-0.298
29.45,-12.86,-0.297
29.46,-12.98,-0.297
29.47,-13.10,-0.297
29.48,-13.21,-0.295
29.49,-13.33,-0.294
29.51,-13.45,-0.294
29.52,-13.56,-0.293
29.53,-13.68,-0.293
29.54,-13.80,-0.292
29.55,-13.91,-0.291
29.57,-14.03,-0.290
29.58,-14.15,-0.290
29.59,-14.26,-0.289
29.60,-14.38,-0.288
29.61,-14.50,-0.288
29.62,-14.61,-0.287
29.63,-14.73,-0.287
29.65,-14.85,-0.286
29.66,-14.96,-0.285
29.67,-15.08,-0.284
29.68,-15.20,-0.284
29.69,-15.31,-0.283
29.71,-15.43,-0.282
29.72,-15.55,-0.282
29.73,-15.66,-0.281
29.74,-15.78,-0.280
29.75,-15.90,-0.280
29.76,-16.01,-0.279
29.78,-16.13,-0.278
29.79,-16.25,-0.278
29.80,-16.36,-0.277
29.81,-16.48,-0.276
29.82,-16.60,-0.275
29.83,-16.71,-0.275
29.84,-16.83,-0.274
29.86,-16.95,-0.273
29.87,-17.07,-0.273
29.88,-17.18,-0.272
29.89,-17.30,-0.272
29.90,-17.42,-0.271
29.92,-17.53,-0.270
29.93,-17.65,-0.270
29.94,-17.77,-0.269
29.95,-17.88,-0.268
29.96,-18.00,-0.268
29.97,-18.12,-0.267
29.98,-18.23,-0.267
30.00,-18.35,-0.266
30.01,-18.47,-0.265
30.02,-18.58,-0.264
30.03,-18.70,-0.263
30.04,-18.82,-0.263
30.06,-18.93,-0.262
30.07,-19.05,-0.262
30.08,-19.17,-0.261
30.09,-19.28,-0.261
30.10,-19.40,-0.260
30.11,-19.52,-0.259
30.13,-19.63,-0.259
30.14,-19.75,-0.259
30.15,-19.87,-0.258
30.16,-19.98,-0.258
30.17,-20.10,-0.257
30.18,-20.22,-0.256
30.19,-20.33,-0.256
30.21,-20.45,-0.255
30.22,-20.57,-0.255
30.23,-20.68,-0.254
30.24,-20.80,-0.254
30.25,-20.92,-0.252
30.27,-21.03,-0.252
30.28,-21.15,-0.252
30.29,-21.27,-0.251
30.30,-21.38,-0.251
30.31,-21.50,-0.250
30.32,-21.62,-0.249
30.33,-21.73,-0.248
30.35,-21.85,-0.248
30.36,-21.97,-0.248
30.37,-22.08,-0.247
30.38,-22.20,-0.247
30.39,-22.32,-0.246
30.41,-22.44,-0.246
30.42,-22.55,-0.245
30.43,-22.67,-0.244
30.44,-22.79,-0.244
30.45,-22.90,-0.244
30.46,-23.02,-0.243
30.48,-23.14,-0.243
30.49,-23.25,-0.242
30.50,-23.37,-0.242
30.51,-23.49,-0.242
30.52,-23.60,-0.241
30.53,-23.72,-0.241
30.54,-23.84,-0.240
30.56,-23.95,-0.240
30.57,-24.07,-0.240
30.58,-24.18,-0.239
30.59,-24.30,-0.239
30.60,-24.42,-0.238
30.62,-24.54,-0.237
30.63,-24.65,-0.236
30.64,-24.77,-0.236
30.65,-24.88,-0.236
30.66,-25.00,-0.235
30.67,-25.12,-0.235
30.68,-25.24,-0.235
30.70,-25.35,-0.234
30.71,-25.47,-0.234
30.72,-25.58,-0.234
30.73,-25.70,-0.234
30.74,-25.82,-0.233
30.76,-25.93,-0.233
30.77,-26.05,-0.232
30.78,-26.17,-0.232
30.79,-26.28,-0.232
30.80,-26.40,-0.231
30.81,-26.52,-0.231
30.83,-26.63,-0.231
30.84,-26.75,-0.230
30.85,-26.87,-0.230
30.86,-26.99,-0.230
30.87,-27.10,-0.229
30.88,-27.22,-0.229
30.89,-27.34,-0.229
30.91,-27.45,-0.229
30.92,-27.57,-0.228
30.93,-27.69,-0.228
30.94,-27.80,-0.228
30.95,-27.92,-0.227
30.97,-28.04,-0.227
30.98,-28.15,-0.227
30.99,-28.27,-0.227
31.00,-28.38,-0.226
31.01,-28.50,-0.226
31.02,-28.62,-0.226
31.03,-28.73,-0.225
31.05,-28.85,-0.225
31.06,-28.97,-0.225
31.07,-29.08,-0.225
31.08,-29.20,-0.224
31.09,-29.32,-0.224
31.11,-29.44,-0.224
31.12,-29.55,-0.224
31.13,-29.67,-0.224
31.14,-29.79,-0.223
31.15,-29.90,-0.223
31.16,-30.02,-0.223
31.18,-30.13,-0.222
31.19,-30.25,-0.222
31.20,-30.37,-0.222
31.21,-30.49,-0.221
31.22,-30.60,-0.221
31.23,-30.72,-0.221
31.24,-30.83,-0.221
31.26,-30.95,-0.220
31.27,-31.07,-0.220
31.28,-31.18,-0.220
31.29,-31.30,-0.220
31.30,-31.42,-0.219
31.32,-31.53,-0.219
31.33,-31.65,-0.219
31.34,-31.77,-0.219
31.35,-31.88,-0.218
31.36,-32.00,-0.218
31.37,-32.12,-0.218
31.38,-32.23,-0.218
31.40,-32.35,-0.217
31.41,-32.47,-0.217
31.42,-32.59,-0.217
31.43,-32.70,-0.217
31.44,-32.82,-0.217
31.46,-32.93,-0.216
31.47,-33.05,-0.216
31.48,-33.17,-0.216
31.49,-33.28,-0.215
31.50,-33.40,-0.215
31.51,-33.52,-0.215
31.53,-33.63,-0.215
31.54,-33.75,-0.215
31.55,-33.87,-0.214
31.56,-33.98,-0.214
31.57,-34.10,-0.214
31.58,-34.22,-0.214
31.59,-34.33,-0.213
31.61,-34.45,-0.213
31.62,-34.57,-0.213
31.63,-34.68,-0.213
31.64,-34.80,-0.212
31.65,-34.92,-0.212
31.67,-35.03,-0.212
31.68,-35.15,-0.212
31.69,-35.27,-0.211
31.70,-35.38,-0.211
31.71,-35.50,-0.211
31.72,-35.62,-0.211
31.73,-35.73,-0.211
31.75,-35.85,-0.210
31.76,-35.97,-0.210
31.77,-36.08,-0.210
31.78,-36.20,-0.210
31.79,-36.32,-0.210
31.81,-36.43,-0.209
31.82,-36.55,-0.209
31.83,-36.67,-0.209
31.84,-36.78,-0.209
31.85,-36.90,-0.208
31.86,-37.02,-0.208
31.88,-37.13,-0.208
31.89,-37.25,-0.208
31.90,-37.37,-0.208
31.91,-37.48,-0.207
31.92,-37.60,-0.207
31.93,-37.72,-0.207
31.94,-37.83,-0.207
31.96,-37.95,-0.206
31.97,-38.07,-0.206
31.98,-38.18,-0.206
31.99,-38.30,-0.206
32.00,-38.41,-0.205
32.02,-38.53,-0.205
32.03,-38.65,-0.205
32.04,-38.76,-0.205
32.05,-38.88,-0.205
32.06,-39.00,-0.205
32.07,-39.11,-0.204
32.08,-39.23,-0.204
32.10,-39.35,-0.204
32.11,-39.46,-0.204
32.12,-39.58,-0.203
32.13,-39.70,-0.203
32.14,-39.81,-0.203
32.16,-39.93,-0.203
32.17,-40.05,-0.203
32.18,-40.16,-0.202
32.19,-40.28,-0.202
32.20,-40.40,-0.202
32.21,-40.51,-0.202
32.23,-40.63,-0.202
32.24,-40.75,-0.202
32.25,-40.86,-0.201
32.26,-40.98,-0.201
32.27,-41.10,-0.201
32.28,-41.21,-0.201
32.29,-41.33,-0.201
32.31,-41.45,-0.201
32.32,-41.56,-0.200
32.33,-41.68,-0.200
32.34,-41.80,-0.200
32.35,-41.91,-0.200
32.37,-42.03,-0.200
32.38,-42.15,-0.200
32.39,-42.26,-0.199
32.40,-42.38,-0.199
32.41,-42.50,-0.199
32.42,-42.61,-0.198
32.43,-42.73,-0.198
32.45,-42.85,-0.198
32.46,-42.96,-0.198
32.47,-43.08,-0.198
32.48,-43.20,-0.198
32.49,-43.31,-0.197
32.51,-43.43,-0.197
32.52,-43.54,-0.197
32.53,-43.66,-0.197
32.54,-43.78,-0.197
32.55,-43.89,-0.197
32.56,-44.01,-0.196
32.58,-44.13,-0.196
32.59,-44.25,-0.196
32.60,-44.36,-0.196
32.61,-44.48,-0.196
32.62,-44.60,-0.195
32.63,-44.71,-0.195
32.64,-44.83,-0.195
32.66,-44.95,-0.195
32.67,-45.06,-0.195
32.68,-45.18,-0.195
32.69,-45.29,-0.194
32.70,-45.41,-0.194
32.72,-45.53,-0.194
32.73,-45.64,-0.194
32.74,-45.76,-0.194
32.75,-45.88,-0.193
32.76,-45.99,-0.193
32.77,-46.11,-0.193
32.78,-46.23,-0.193
32.80,-46.34,-0.192
32.81,-46.46,-0.192
32.82,-46.58,-0.192
32.83,-46.69,-0.192
32.84,-46.81,-0.192
32.86,-46.93,-0.191
32.87,-47.04,-0.191
32.88,-47.16,-0.191
32.89,-47.28,-0.191
32.90,-47.39,-0.191
32.91,-47.51,-0.190
32.93,-47.63,-0.190
32.94,-47.74,-0.190
32.95,-47.86,
32.96,-47.98,
32.97,-48.09,
32.98,-48.21,
32.99,,
33.00,,