File: DSC/JLY_CBD_Xtal_KY1_Cooling2.csv
Filename,JLY_CBD_Xtal_KY1
Instrument name,DSC2A-00468 (192.168.1.101)
Operator,JLY
rundate,1/26/2018
proceduresegments,Data Off ; Equilibrate -50.00 °C; Isothermal 1.0 min; Data On ; Ramp 10.00 °C/min to 110.00 °C; Data Off ; Isothermal 1.0 min; Data On ; Ramp 10.00 °C/min to -50.00 °C; Data Off ; Isothermal 1.0 min; Data On ; Ramp 10.00 °C/min to 110.00 °C; Data Off ; Isothermal 1.0 min; Data On ; Ramp 10.00 °C/min to -50.00 °C; Data Off ; Isothermal 1.0 min; Data On ; Ramp 5.00 °C/min to 110.00 °C; Data Off ; Isothermal 1.0 min; Data On ; Ramp 10.00 °C/min to -50.00 °C; Data Off ; Isothermal 1.0 min; Data On ; Ramp 5.00 °C/min to 110.00 °C; Data Off ; Jump 25.00 °C
[step]
Ramp 10 °C/min to -50.00 °C
Time,Temperature,Heat Flow (Normalized)
min,°C,W/g
51.00,110.03,-0.043
51.01,110.03,-0.043
51.02,110.03,-0.043
51.04,110.03,-0.043
51.05,110.02,-0.043
51.06,110.01,-0.042
51.07,110.00,-0.038
51.08,109.98,-0.035
51.09,109.95,-0.034
51.11,109.91,-0.037
51.12,109.86,-0.064
51.13,109.80,-0.093
51.14,109.74,-0.122
51.15,109.66,-0.156
51.16,109.58,-0.187
51.18,109.50,-0.213
51.19,109.41,-0.240
51.20,109.32,-0.262
51.21,109.22,-0.278
51.22,109.13,-0.294
51.23,109.03,-0.307
51.24,108.92,-0.320
51.26,108.82,-0.330
51.27,108.71,-0.339
51.28,108.61,-0.349
51.29,108.50,-0.356
51.30,108.39,-0.363
51.31,108.28,-0.369
51.33,108.17,-0.371
51.34,108.06,-0.380
51.35,107.95,-0.382
51.36,107.83,-0.385
51.37,107.72,-0.389
51.39,107.61,-0.390
51.40,107.49,-0.392
51.41,107.38,-0.393
51.42,107.26,-0.395
51.43,107.15,-0.398
51.44,107.03,-0.398
51.46,106.92,-0.399
51.47,106.80,-0.400
51.48,106.69,-0.401
51.49,106.57,-0.401
51.50,106.46,-0.401
51.51,106.34,-0.402
51.53,106.22,-0.402
51.54,106.11,-0.402
51.55,105.99,-0.403
51.56,105.88,-0.403
51.57,105.76,-0.403
51.58,105.64,-0.403
51.59,105.53,-0.403
51.61,105.41,-0.404
51.62,105.30,-0.404
51.63,105.18,-0.404
51.64,105.06,-0.404
51.65,104.95,-0.404
51.66,104.83,-0.404
51.68,104.72,-0.404
51.69,104.60,-0.405
51.70,104.48,-0.405
51.71,104.37,-0.405
51.72,104.25,-0.405
51.74,104.13,-0.405
51.75,104.02,-0.405
51.76,103.90,-0.405
51.77,103.79,-0.405
51.78,103.67,-0.405
51.79,103.55,-0.405
51.81,103.44,-0.405
51.82,103.32,-0.405
51.83,103.21,-0.405
51.84,103.09,-0.405
51.85,102.97,-0.405
51.86,102.86,-0.405
51.88,102.74,-0.405
51.89,102.62,-0.405
51.90,102.51,-0.405
51.91,102.39,-0.405
51.92,102.28,-0.405
51.93,102.16,-0.405
51.94,102.04,-0.405
51.96,101.93,-0.405
51.97,101.81,-0.405
51.98,101.69,-0.405
51.99,101.58,-0.405
52.00,101.46,-0.405
52.01,101.35,-0.405
52.03,101.23,-0.405
52.04,101.11,-0.405
52.05,101.00,-0.405
52.06,100.88,-0.404
52.07,100.76,-0.404
52.09,100.65,-0.404
52.10,100.53,-0.404
52.11,100.41,-0.404
52.12,100.30,-0.404
52.13,100.18,-0.404
52.14,100.06,-0.404
52.16,99.95,-0.404
52.17,99.83,-0.403
52.18,99.72,-0.403
52.19,99.60,-0.403
52.20,99.48,-0.403
52.21,99.37,-0.403
52.23,99.25,-0.403
52.24,99.13,-0.403
52.25,99.02,-0.403
52.26,98.90,-0.403
52.27,98.79,-0.403
52.28,98.67,-0.402
52.29,98.55,-0.402
52.31,98.44,-0.402
52.32,98.32,-0.402
52.33,98.20,-0.402
52.34,98.09,-0.402
52.35,97.97,-0.402
52.36,97.85,-0.402
52.38,97.74,-0.402
52.39,97.62,-0.402
52.40,97.50,-0.401
52.41,97.39,-0.401
52.42,97.27,-0.401
52.44,97.16,-0.401
52.45,97.04,-0.401
52.46,96.92,-0.401
52.47,96.81,-0.401
52.48,96.69,-0.401
52.49,96.57,-0.401
52.51,96.46,-0.401
52.52,96.34,-0.400
52.53,96.22,-0.400
52.54,96.11,-0.400
52.55,95.99,-0.400
52.56,95.88,-0.400
52.58,95.76,-0.400
52.59,95.64,-0.399
52.60,95.53,-0.399
52.61,95.41,-0.399
52.62,95.29,-0.399
52.63,95.18,-0.399
52.64,95.06,-0.399
52.66,94.94,-0.399
52.67,94.83,-0.399
52.68,94.71,-0.399
52.69,94.59,-0.399
52.70,94.48,-0.398
52.71,94.36,-0.398
52.73,94.24,-0.398
52.74,94.13,-0.398
52.75,94.01,-0.398
52.76,93.89,-0.398
52.77,93.78,-0.398
52.79,93.66,-0.398
52.80,93.55,-0.397
52.81,93.43,-0.397
52.82,93.31,-0.397
52.83,93.20,-0.397
52.84,93.08,-0.397
52.86,92.96,-0.397
52.87,92.85,-0.397
52.88,92.73,-0.397
52.89,92.61,-0.396
52.90,92.50,-0.396
52.91,92.38,-0.396
52.93,92.26,-0.396
52.94,92.15,-0.396
52.95,92.03,-0.396
52.96,91.92,-0.396
52.97,91.80,-0.396
52.98,91.68,-0.396
52.99,91.57,-0.396
53.01,91.45,-0.396
53.02,91.33,-0.395
53.03,91.22,-0.395
53.04,91.10,-0.395
53.05,90.98,-0.395
53.06,90.87,-0.395
53.08,90.75,-0.395
53.09,90.63,-0.395
53.10,90.52,-0.395
53.11,90.40,-0.395
53.12,90.28,-0.394
53.14,90.17,-0.394
53.15,90.05,-0.394
53.16,89.93,-0.394
53.17,89.82,-0.394
53.18,89.70,-0.394
53.19,89.58,-0.394
53.21,89.47,-0.394
53.22,89.35,-0.394
53.23,89.23,-0.393
53.24,89.12,-0.393
53.25,89.00,-0.393
53.26,88.88,-0.393
53.28,88.77,-0.393
53.29,88.65,-0.393
53.30,88.54,-0.393
53.31,88.42,-0.393
53.32,88.30,-0.393
53.33,88.19,-0.393
53.34,88.07,-0.392
53.36,87.95,-0.392
53.37,87.84,-0.392
53.38,87.72,-0.392
53.39,87.60,-0.392
53.40,87.49,-0.392
53.41,87.37,-0.392
53.43,87.25,-0.392
53.44,87.14,-0.391
53.45,87.02,-0.391
53.46,86.90,-0.391
53.47,86.79,-0.391
53.49,86.67,-0.391
53.50,86.55,-0.391
53.51,86.44,-0.391
53.52,86.32,-0.391
53.53,86.21,-0.391
53.54,86.09,-0.391
53.56,85.97,-0.391
53.57,85.86,-0.390
53.58,85.74,-0.390
53.59,85.62,-0.390
53.60,85.51,-0.390
53.61,85.39,-0.390
53.63,85.27,-0.390
53.64,85.16,-0.390
53.65,85.04,-0.390
53.66,84.92,-0.390
53.67,84.81,-0.390
53.68,84.69,-0.390
53.69,84.57,-0.389
53.71,84.46,-0.389
53.72,84.34,-0.389
53.73,84.22,-0.389
53.74,84.11,-0.389
53.75,83.99,-0.389
53.76,83.87,-0.389
53.78,83.76,-0.389
53.79,83.64,-0.389
53.80,83.52,-0.389
53.81,83.41,-0.388
53.82,83.29,-0.388
53.84,83.18,-0.388
53.85,83.06,-0.388
53.86,82.94,-0.388
53.87,82.83,-0.388
53.88,82.71,-0.388
53.89,82.59,-0.388
53.91,82.48,-0.388
53.92,82.36,-0.388
53.93,82.24,-0.388
53.94,82.13,-0.387
53.95,82.01,-0.387
53.96,81.89,-0.387
53.98,81.78,-0.387
53.99,81.66,-0.387
54.00,81.54,-0.387
54.01,81.43,-0.387
54.02,81.31,-0.387
54.03,81.19,-0.387
54.04,81.08,-0.387
54.06,80.96,-0.387
54.07,80.84,-0.387
54.08,80.73,-0.386
54.09,80.61,-0.386
54.10,80.50,-0.386
54.11,80.38,-0.386
54.13,80.26,-0.386
54.14,80.15,-0.386
54.15,80.03,-0.386
54.16,79.91,-0.386
54.17,79.80,-0.386
54.19,79.68,-0.386
54.20,79.56,-0.386
54.21,79.45,-0.385
54.22,79.33,-0.385
54.23,79.21,-0.385
54.24,79.10,-0.385
54.26,78.98,-0.385
54.27,78.86,-0.385
54.28,78.75,-0.385
54.29,78.63,-0.385
54.30,78.51,-0.385
54.31,78.40,-0.385
54.33,78.28,-0.385
54.34,78.17,-0.385
54.35,78.05,-0.384
54.36,77.93,-0.384
54.37,77.81,-0.384
54.38,77.70,-0.384
54.39,77.58,-0.384
54.41,77.47,-0.384
54.42,77.35,-0.384
54.43,77.23,-0.384
54.44,77.12,-0.384
54.45,77.00,-0.384
54.46,76.88,-0.383
54.48,76.77,-0.383
54.49,76.65,-0.383
54.50,76.53,-0.383
54.51,76.42,-0.383
54.52,76.30,-0.383
54.54,76.18,-0.383
54.55,76.07,-0.383
54.56,75.95,-0.383
54.57,75.83,-0.383
54.58,75.72,-0.383
54.59,75.60,-0.382
54.61,75.48,-0.382
54.62,75.37,-0.382
54.63,75.25,-0.382
54.64,75.14,-0.382
54.65,75.02,-0.382
54.66,74.90,-0.382
54.68,74.79,-0.382
54.69,74.67,-0.382
54.70,74.55,-0.382
54.71,74.44,-0.382
54.72,74.32,-0.382
54.73,74.20,-0.381
54.74,74.09,-0.381
54.76,73.97,-0.381
54.77,73.85,-0.381
54.78,73.74,-0.381
54.79,73.62,-0.381
54.80,73.50,-0.381
54.81,73.39,-0.381
54.83,73.27,-0.381
54.84,73.15,-0.381
54.85,73.04,-0.381
54.86,72.92,-0.380
54.87,72.80,-0.380
54.89,72.69,-0.380
54.90,72.57,-0.380
54.91,72.45,-0.380
54.92,72.34,-0.380
54.93,72.22,-0.380
54.94,72.11,-0.380
54.96,71.99,-0.380
54.97,71.87,-0.380
54.98,71.76,-0.380
54.99,71.64,-0.380
55.00,71.52,-0.380
55.01,71.41,-0.379
55.03,71.29,-0.379
55.04,71.17,-0.379
55.05,71.06,-0.379
55.06,70.94,-0.379
55.07,70.82,-0.379
55.08,70.71,-0.379
55.09,70.59,-0.379
55.11,70.47,-0.379
55.12,70.36,-0.379
55.13,70.24,-0.378
55.14,70.12,-0.378
55.15,70.01,-0.378
55.16,69.89,-0.378
55.18,69.77,-0.378
55.19,69.66,-0.378
55.20,69.54,-0.378
55.21,69.42,-0.378
55.22,69.31,-0.378
55.24,69.19,-0.378
55.25,69.07,-0.378
55.26,68.96,-0.378
55.27,68.84,-0.377
55.28,68.72,-0.377
55.29,68.61,-0.377
55.31,68.49,-0.377
55.32,68.38,-0.377
55.33,68.26,-0.377
55.34,68.14,-0.377
55.35,68.03,-0.377
55.36,67.91,-0.377
55.38,67.79,-0.377
55.39,67.68,-0.376
55.40,67.56,-0.376
55.41,67.44,-0.376
55.42,67.33,-0.376
55.43,67.21,-0.376
55.44,67.09,-0.376
55.46,66.98,-0.376
55.47,66.86,-0.376
55.48,66.74,-0.375
55.49,66.63,-0.375
55.50,66.51,-0.375
55.51,66.39,-0.375
55.53,66.28,-0.375
55.54,66.16,-0.375
55.55,66.05,-0.375
55.56,65.93,-0.375
55.57,65.81,-0.375
55.59,65.70,-0.374
55.60,65.58,-0.374
55.61,65.46,-0.374
55.62,65.35,-0.374
55.63,65.23,-0.374
55.64,65.11,-0.374
55.66,65.00,-0.374
55.67,64.88,-0.374
55.68,64.76,-0.374
55.69,64.65,-0.374
55.70,64.53,-0.373
55.71,64.41,-0.373
55.73,64.30,-0.373
55.74,64.18,-0.373
55.75,64.06,-0.373
55.76,63.95,-0.373
55.77,63.83,-0.373
55.78,63.71,-0.373
55.79,63.60,-0.372
55.81,63.48,-0.372
55.82,63.37,-0.372
55.83,63.25,-0.372
55.84,63.13,-0.372
55.85,63.02,-0.372
55.86,62.90,-0.372
55.88,62.78,-0.372
55.89,62.67,-0.371
55.90,62.55,-0.371
55.91,62.43,-0.371
55.92,62.32,-0.371
55.94,62.20,-0.371
55.95,62.08,-0.371
55.96,61.97,-0.371
55.97,61.85,-0.370
55.98,61.73,-0.370
55.99,61.62,-0.370
56.01,61.50,-0.370
56.02,61.38,-0.370
56.03,61.27,-0.370
56.04,61.15,-0.370
56.05,61.03,-0.370
56.06,60.92,-0.370
56.08,60.80,-0.370
56.09,60.68,-0.370
56.10,60.57,-0.369
56.11,60.45,-0.369
56.12,60.33,-0.369
56.13,60.22,-0.369
56.14,60.10,-0.369
56.16,59.99,-0.369
56.17,59.87,-0.369
56.18,59.75,-0.369
56.19,59.64,-0.369
56.20,59.52,-0.368
56.21,59.40,-0.368
56.23,59.29,-0.368
56.24,59.17,-0.368
56.25,59.05,-0.368
56.26,58.94,-0.368
56.27,58.82,-0.368
56.29,58.70,-0.368
56.30,58.59,-0.367
56.31,58.47,-0.367
56.32,58.36,-0.367
56.33,58.24,-0.367
56.34,58.12,-0.367
56.36,58.01,-0.367
56.37,57.89,-0.367
56.38,57.77,-0.367
56.39,57.66,-0.367
56.40,57.54,-0.367
56.41,57.42,-0.366
56.43,57.31,-0.366
56.44,57.19,-0.366
56.45,57.07,-0.366
56.46,56.96,-0.366
56.47,56.84,-0.366
56.48,56.72,-0.366
56.49,56.61,-0.366
56.51,56.49,-0.366
56.52,56.37,-0.365
56.53,56.26,-0.365
56.54,56.14,-0.365
56.55,56.02,-0.365
56.56,55.91,-0.365
56.58,55.79,-0.365
56.59,55.68,-0.365
56.60,55.56,-0.365
56.61,55.44,-0.365
56.62,55.33,-0.364
56.64,55.21,-0.364
56.65,55.09,-0.364
56.66,54.98,-0.364
56.67,54.86,-0.364
56.68,54.74,-0.364
56.69,54.63,-0.364
56.71,54.51,-0.364
56.72,54.39,-0.364
56.73,54.28,-0.364
56.74,54.16,-0.364
56.75,54.04,-0.363
56.76,53.93,-0.363
56.78,53.81,-0.363
56.79,53.70,-0.363
56.80,53.58,-0.363
56.81,53.46,-0.363
56.82,53.34,-0.363
56.83,53.23,-0.363
56.84,53.11,-0.363
56.86,53.00,-0.363
56.87,52.88,-0.362
56.88,52.76,-0.362
56.89,52.65,-0.362
56.90,52.53,-0.362
56.91,52.41,-0.362
56.93,52.30,-0.362
56.94,52.18,-0.362
56.95,52.06,-0.362
56.96,51.95,-0.362
56.97,51.83,-0.361
56.99,51.71,-0.361
57.00,51.60,-0.361
57.01,51.48,-0.361
57.02,51.36,-0.361
57.03,51.25,-0.361
57.04,51.13,-0.361
57.06,51.01,-0.361
57.07,50.90,-0.361
57.08,50.78,-0.361
57.09,50.67,-0.360
57.10,50.55,-0.360
57.11,50.43,-0.360
57.13,50.31,-0.360
57.14,50.20,-0.360
57.15,50.08,-0.360
57.16,49.97,-0.360
57.17,49.85,-0.360
57.18,49.73,-0.360
57.19,49.62,-0.360
57.21,49.50,-0.360
57.22,49.38,-0.359
57.23,49.27,-0.359
57.24,49.15,-0.359
57.25,49.03,-0.359
57.26,48.92,-0.359
57.28,48.80,-0.359
57.29,48.68,-0.359
57.30,48.57,-0.359
57.31,48.45,-0.359
57.32,48.33,-0.358
57.34,48.22,-0.358
57.35,48.10,-0.358
57.36,47.98,-0.358
57.37,47.87,-0.358
57.38,47.75,-0.358
57.39,47.64,-0.358
57.41,47.52,-0.358
57.42,47.40,-0.358
57.43,47.29,-0.358
57.44,47.17,-0.358
57.45,47.05,-0.358
57.46,46.94,-0.357
57.48,46.82,-0.357
57.49,46.71,-0.357
57.50,46.59,-0.357
57.51,46.47,-0.357
57.52,46.35,-0.357
57.53,46.24,-0.357
57.54,46.12,-0.357
57.56,46.01,-0.357
57.57,45.89,-0.357
57.58,45.77,-0.357
57.59,45.66,-0.357
57.60,45.54,-0.356
57.61,45.42,-0.356
57.63,45.31,-0.356
57.64,45.19,-0.356
57.65,45.07,-0.356
57.66,44.96,-0.356
57.67,44.84,-0.356
57.69,44.72,-0.356
57.70,44.61,-0.356
57.71,44.49,-0.356
57.72,44.37,-0.356
57.73,44.26,-0.356
57.74,44.14,-0.356
57.76,44.02,-0.355
57.77,43.91,-0.355
57.78,43.79,-0.355
57.79,43.67,-0.355
57.80,43.56,-0.355
57.81,43.44,-0.355
57.83,43.33,-0.355
57.84,43.21,-0.355
57.85,43.09,-0.355
57.86,42.98,-0.355
57.87,42.86,-0.355
57.88,42.74,-0.355
57.89,42.63,-0.354
57.91,42.51,-0.354
57.92,42.39,-0.354
57.93,42.28,-0.354
57.94,42.16,-0.354
57.95,42.04,-0.354
57.96,41.93,-0.354
57.98,41.81,-0.354
57.99,41.69,-0.354
58.00,41.58,-0.354
58.01,41.46,-0.354
58.02,41.34,-0.354
58.04,41.23,-0.353
58.05,41.11,-0.353
58.06,40.99,-0.353
58.07,40.88,-0.353
58.08,40.76,-0.353
58.09,40.64,-0.353
58.11,40.53,-0.353
58.12,40.41,-0.353
58.13,40.30,-0.353
58.14,40.18,-0.353
58.15,40.06,-0.353
58.16,39.95,-0.353
58.18,39.83,-0.352
58.19,39.71,-0.352
58.20,39.60,-0.352
58.21,39.48,-0.352
58.22,39.36,-0.352
58.23,39.25,-0.352
58.24,39.13,-0.352
58.26,39.01,-0.352
58.27,38.90,-0.352
58.28,38.78,-0.352
58.29,38.67,-0.351
58.30,38.55,-0.351
58.31,38.43,-0.351
58.33,38.32,-0.351
58.34,38.20,-0.351
58.35,38.08,-0.351
58.36,37.97,-0.351
58.37,37.85,-0.351
58.39,37.73,-0.351
58.40,37.62,-0.351
58.41,37.50,-0.351
58.42,37.38,-0.351
58.43,37.27,-0.351
58.44,37.15,-0.351
58.46,37.03,-0.350
58.47,36.92,-0.350
58.48,36.80,-0.350
58.49,36.68,-0.350
58.50,36.57,-0.350
58.51,36.45,-0.350
58.53,36.34,-0.350
58.54,36.22,-0.350
58.55,36.10,-0.350
58.56,35.99,-0.350
58.57,35.87,-0.350
58.58,35.75,-0.350
58.59,35.64,-0.350
58.61,35.52,-0.350
58.62,35.40,-0.350
58.63,35.29,-0.349
58.64,35.17,-0.349
58.65,35.05,-0.349
58.66,34.94,-0.349
58.68,34.82,-0.349
58.69,34.70,-0.349
58.70,34.59,-0.349
58.71,34.47,-0.349
58.72,34.35,-0.349
58.74,34.24,-0.349
58.75,34.12,-0.349
58.76,34.00,-0.349
58.77,33.89,-0.349
58.78,33.77,-0.349
58.79,33.65,-0.348
58.81,33.54,-0.348
58.82,33.42,-0.348
58.83,33.31,-0.348
58.84,33.19,-0.348
58.85,33.07,-0.348
58.86,32.96,-0.348
58.88,32.84,-0.348
58.89,32.72,-0.348
58.90,32.61,-0.348
58.91,32.49,-0.348
58.92,32.37,-0.347
58.93,32.26,-0.347
58.94,32.14,-0.347
58.96,32.02,-0.347
58.97,31.91,-0.347
58.98,31.79,-0.347
58.99,31.68,-0.347
59.00,31.56,-0.347
59.01,31.44,-0.346
59.03,31.33,-0.347
59.04,31.21,-0.346
59.05,31.09,-0.346
59.06,30.98,-0.346
59.07,30.86,-0.346
59.09,30.74,-0.346
59.10,30.63,-0.346
59.11,30.51,-0.346
59.12,30.39,-0.346
59.13,30.28,-0.346
59.14,30.16,-0.346
59.16,30.04,-0.346
59.17,29.93,-0.346
59.18,29.81,-0.345
59.19,29.69,-0.345
59.20,29.58,-0.345
59.21,29.46,-0.345
59.23,29.35,-0.345
59.24,29.23,-0.345
59.25,29.11,-0.345
59.26,29.00,-0.345
59.27,28.88,-0.345
59.28,28.76,-0.344
59.29,28.65,-0.344
59.31,28.53,-0.344
59.32,28.41,-0.344
59.33,28.30,-0.344
59.34,28.18,-0.344
59.35,28.06,-0.344
59.36,27.95,-0.344
59.38,27.83,-0.344
59.39,27.72,-0.343
59.40,27.60,-0.342
59.41,27.48,-0.342
59.42,27.37,-0.342
59.44,27.25,-0.342
59.45,27.13,-0.342
59.46,27.02,-0.342
59.47,26.90,-0.342
59.48,26.78,-0.342
59.49,26.67,-0.342
59.51,26.55,-0.342
59.52,26.43,-0.342
59.53,26.32,-0.342
59.54,26.20,-0.342
59.55,26.09,-0.341
59.56,25.97,-0.341
59.58,25.85,-0.341
59.59,25.74,-0.341
59.60,25.62,-0.341
59.61,25.50,-0.341
59.62,25.39,-0.341
59.63,25.27,-0.341
59.64,25.15,-0.341
59.66,25.04,-0.341
59.67,24.92,-0.340
59.68,24.80,-0.340
59.69,24.69,-0.340
59.70,24.57,-0.340
59.71,24.45,-0.340
59.73,24.34,-0.340
59.74,24.22,-0.340
59.75,24.10,-0.340
59.76,23.99,-0.339
59.77,23.87,-0.339
59.79,23.76,-0.339
59.80,23.64,-0.339
59.81,23.52,-0.339
59.82,23.41,-0.339
59.83,23.29,-0.339
59.84,23.17,-0.339
59.86,23.06,-0.338
59.87,22.94,-0.338
59.88,22.82,-0.338
59.89,22.71,-0.338
59.90,22.59,-0.338
59.91,22.47,-0.338
59.93,22.36,-0.338
59.94,22.24,-0.338
59.95,22.12,-0.338
59.96,22.01,-0.337
59.97,21.89,-0.337
59.98,21.77,-0.337
59.99,21.66,-0.337
60.01,21.54,-0.337
60.02,21.43,-0.337
60.03,21.31,-0.337
60.04,21.19,-0.337
60.05,21.08,-0.337
60.06,20.96,-0.336
60.08,20.84,-0.336
60.09,20.73,-0.336
60.10,20.61,-0.336
60.11,20.49,-0.336
60.12,20.38,-0.336
60.14,20.26,-0.336
60.15,20.14,-0.335
60.16,20.03,-0.335
60.17,19.91,-0.335
60.18,19.79,-0.335
60.19,19.68,-0.335
60.21,19.56,-0.335
60.22,19.45,-0.335
60.23,19.33,-0.334
60.24,19.21,-0.334
60.25,19.10,-0.334
60.26,18.98,-0.334
60.28,18.86,-0.334
60.29,18.75,-0.334
60.30,18.63,-0.334
60.31,18.52,-0.333
60.32,18.40,-0.333
60.33,18.28,-0.333
60.34,18.17,-0.333
60.36,18.05,-0.333
60.37,17.93,-0.333
60.38,17.82,-0.333
60.39,17.70,-0.333
60.40,17.58,-0.332
60.41,17.47,-0.332
60.43,17.35,-0.332
60.44,17.23,-0.332
60.45,17.12,-0.332
60.46,17.00,-0.332
60.47,16.88,-0.332
60.49,16.77,-0.332
60.50,16.65,-0.332
60.51,16.54,-0.331
60.52,16.42,-0.331
60.53,16.30,-0.331
60.54,16.19,-0.331
60.56,16.07,-0.331
60.57,15.95,-0.331
60.58,15.84,-0.331
60.59,15.72,-0.331
60.60,15.60,-0.330
60.61,15.49,-0.330
60.63,15.37,-0.330
60.64,15.26,-0.330
60.65,15.14,-0.330
60.66,15.02,-0.330
60.67,14.91,-0.330
60.68,14.79,-0.329
60.69,14.67,-0.329
60.71,14.56,-0.329
60.72,14.44,-0.329
60.73,14.32,-0.329
60.74,14.21,-0.329
60.75,14.09,-0.329
60.76,13.98,-0.329
60.78,13.86,-0.328
60.79,13.74,-0.329
60.80,13.63,-0.328
60.81,13.51,-0.328
60.82,13.39,-0.328
60.84,13.28,-0.328
60.85,13.16,-0.328
60.86,13.04,-0.328
60.87,12.93,-0.328
60.88,12.81,-0.328
60.89,12.69,-0.328
60.91,12.58,-0.327
60.92,12.46,-0.327
60.93,12.34,-0.327
60.94,12.23,-0.327
60.95,12.11,-0.327
60.96,11.99,-0.327
60.98,11.88,-0.327
60.99,11.76,-0.327
61.00,11.65,-0.327
61.01,11.53,-0.326
61.02,11.41,-0.326
61.03,11.29,-0.326
61.04,11.18,-0.326
61.06,11.06,-0.326
61.07,10.95,-0.326
61.08,10.83,-0.326
61.09,10.71,-0.326
61.10,10.60,-0.326
61.11,10.48,-0.325
61.13,10.36,-0.325
61.14,10.25,-0.325
61.15,10.13,-0.325
61.16,10.01,-0.325
61.17,9.90,-0.325
61.19,9.78,-0.325
61.20,9.66,-0.325
61.21,9.55,-0.325
61.22,9.43,-0.325
61.23,9.31,-0.325
61.24,9.20,-0.324
61.26,9.08,-0.324
61.27,8.96,-0.324
61.28,8.85,-0.324
61.29,8.73,-0.324
61.30,8.61,-0.324
61.31,8.50,-0.324
61.33,8.38,-0.324
61.34,8.26,-0.324
61.35,8.15,-0.324
61.36,8.03,-0.324
61.37,7.91,-0.323
61.38,7.80,-0.323
61.39,7.68,-0.323
61.41,7.56,-0.323
61.42,7.45,-0.323
61.43,7.33,-0.323
61.44,7.21,-0.323
61.45,7.10,-0.323
61.46,6.98,-0.323
61.48,6.86,-0.323
61.49,6.75,-0.323
61.50,6.63,-0.322
61.51,6.51,-0.322
61.52,6.40,-0.322
61.54,6.28,-0.322
61.55,6.16,-0.322
61.56,6.05,-0.322
61.57,5.93,-0.322
61.58,5.81,-0.322
61.59,5.70,-0.322
61.61,5.58,-0.321
61.62,5.46,-0.321
61.63,5.35,-0.321
61.64,5.23,-0.321
61.65,5.11,-0.321
61.66,5.00,-0.321
61.68,4.88,-0.321
61.69,4.76,-0.321
61.70,4.64,-0.321
61.71,4.53,-0.321
61.72,4.41,-0.321
61.73,4.29,-0.321
61.74,4.18,-0.320
61.76,4.06,-0.320
61.77,3.94,-0.320
61.78,3.83,-0.320
61.79,3.71,-0.320
61.80,3.59,-0.320
61.81,3.48,-0.320
61.83,3.36,-0.320
61.84,3.24,-0.320
61.85,3.13,-0.320
61.86,3.01,-0.320
61.87,2.89,-0.319
61.89,2.78,-0.319
61.90,2.66,-0.319
61.91,2.54,-0.319
61.92,2.43,-0.319
61.93,2.31,-0.319
61.94,2.19,-0.319
61.96,2.08,-0.319
61.97,1.96,-0.319
61.98,1.84,-0.319
61.99,1.73,-0.319
62.00,1.61,-0.318
62.01,1.49,-0.319
62.03,1.38,-0.318
62.04,1.26,-0.318
62.05,1.14,-0.318
62.06,1.03,-0.318
62.07,0.91,-0.318
62.08,0.79,-0.318
62.09,0.68,-0.318
62.11,0.56,-0.318
62.12,0.44,-0.318
62.13,0.33,-0.318
62.14,0.21,-0.317
62.15,0.09,-0.317
62.16,-0.02,-0.317
62.18,-0.14,-0.317
62.19,-0.26,-0.317
62.20,-0.37,-0.317
62.21,-0.49,-0.317
62.22,-0.61,-0.317
62.24,-0.72,-0.317
62.25,-0.84,-0.317
62.26,-0.96,-0.317
62.27,-1.08,-0.316
62.28,-1.19,-0.316
62.29,-1.31,-0.316
62.31,-1.42,-0.316
62.32,-1.54,-0.316
62.33,-1.66,-0.316
62.34,-1.78,-0.316
62.35,-1.89,-0.316
62.36,-2.01,-0.315
62.38,-2.12,-0.315
62.39,-2.24,-0.315
62.40,-2.36,-0.315
62.41,-2.47,-0.315
62.42,-2.59,-0.315
62.43,-2.71,-0.315
62.44,-2.83,-0.315
62.46,-2.94,-0.315
62.47,-3.06,-0.315
62.48,-3.18,-0.314
62.49,-3.29,-0.314
62.50,-3.41,-0.314
62.51,-3.53,-0.314
62.53,-3.64,-0.314
62.54,-3.76,-0.314
62.55,-3.87,-0.314
62.56,-3.99,-0.314
62.57,-4.11,-0.314
62.59,-4.23,-0.313
62.60,-4.34,-0.313
62.61,-4.46,-0.313
62.62,-4.58,-0.313
62.63,-4.69,-0.313
62.64,-4.81,-0.313
62.66,-4.93,-0.313
62.67,-5.04,-0.313
62.68,-5.16,-0.313
62.69,-5.28,-0.312
62.70,-5.39,-0.312
62.71,-5.51,-0.312
62.73,-5.63,-0.312
62.74,-5.74,-0.312
62.75,-5.86,-0.312
62.76,-5.97,-0.312
62.77,-6.09,-0.312
62.78,-6.21,-0.311
62.79,-6.32,-0.311
62.81,-6.44,-0.311
62.82,-6.56,-0.311
62.83,-6.67,-0.311
62.84,-6.79,-0.311
62.85,-6.91,-0.311
62.86,-7.03,-0.311
62.88,-7.14,-0.310
62.89,-7.26,-0.310
62.90,-7.38,-0.310
62.91,-7.49,-0.310
62.92,-7.61,-0.310
62.94,-7.73,-0.310
62.95,-7.84,-0.310
62.96,-7.96,-0.309
62.97,-8.08,-0.309
62.98,-8.19,-0.309
62.99,-8.31,-0.308
63.01,-8.43,-0.308
63.02,-8.54,-0.308
63.03,-8.66,-0.308
63.04,-8.78,-0.308
63.05,-8.89,-0.307
63.06,-9.01,-0.307
63.08,-9.13,-0.307
63.09,-9.24,-0.307
63.10,-9.36,-0.307
63.11,-9.48,-0.306
63.12,-9.59,-0.306
63.13,-9.71,-0.306
63.14,-9.83,-0.306
63.16,-9.94,-0.306
63.17,-10.06,-0.305
63.18,-10.18,-0.305
63.19,-10.29,-0.305
63.20,-10.41,-0.305
63.21,-10.53,-0.304
63.23,-10.64,-0.304
63.24,-10.76,-0.304
63.25,-10.88,-0.304
63.26,-10.99,-0.303
63.27,-11.11,-0.303
63.29,-11.23,-0.302
63.30,-11.34,-0.302
63.31,-11.46,-0.302
63.32,-11.58,-0.301
63.33,-11.70,-0.301
63.34,-11.81,-0.301
63.36,-11.93,-0.300
63.37,-12.04,-0.300
63.38,-12.16,-0.299
63.39,-12.28,-0.299
63.40,-12.40,-0.298
63.41,-12.51,-0.298
63.43,-12.63,-0.298
63.44,-12.74,-0.297
63.45,-12.86,-0.297
63.46,-12.98,-0.296
63.47,-13.09,-0.296
63.48,-13.21,-0.295
63.49,-13.33,-0.295
63.51,-13.45,-0.294
63.52,-13.56,-0.293
63.53,-13.68,-0.293
63.54,-13.80,-0.292
63.55,-13.91,-0.291
63.56,-14.03,-0.291
63.58,-14.15,-0.290
63.59,-14.26,-0.290
63.60,-14.38,-0.289
63.61,-14.50,-0.288
63.62,-14.61,-0.288
63.64,-14.73,-0.287
63.65,-14.85,-0.286
63.66,-14.96,-0.286
63.67,-15.08,-0.285
63.68,-15.20,-0.285
63.69,-15.31,-0.284
63.71,-15.43,-0.283
63.72,-15.55,-0.283
63.73,-15.66,-0.282
63.74,-15.78,-0.282
63.75,-15.90,-0.281
63.76,-16.02,-0.280
63.78,-16.13,-0.279
63.79,-16.25,-0.278
63.80,-16.37,-0.278
63.81,-16.48,-0.277
63.82,-16.60,-0.276
63.83,-16.72,-0.276
63.84,-16.83,-0.275
63.86,-16.95,-0.275
63.87,-17.06,-0.274
63.88,-17.18,-0.273
63.89,-17.30,-0.272
63.90,-17.42,-0.269
63.91,-17.53,-0.269
63.93,-17.65,-0.269
63.94,-17.77,-0.268
63.95,-17.88,-0.268
63.96,-18.00,-0.267
63.97,-18.12,-0.265
63.99,-18.23,-0.265
64.00,-18.35,-0.264
64.01,-18.46,-0.264
64.02,-18.58,-0.263
64.03,-18.70,-0.263
64.04,-18.82,-0.262
64.06,-18.93,-0.261
64.07,-19.05,-0.261
64.08,-19.17,-0.260
64.09,-19.28,-0.260
64.10,-19.40,-0.259
64.11,-19.52,-0.259
64.13,-19.63,-0.258
64.14,-19.75,-0.258
64.15,-19.87,-0.257
64.16,-19.98,-0.257
64.17,-20.10,-0.256
64.18,-20.22,-0.256
64.19,-20.33,-0.255
64.21,-20.45,-0.254
64.22,-20.57,-0.254
64.23,-20.68,-0.253
64.24,-20.80,-0.252
64.25,-20.92,-0.252
64.26,-21.03,-0.252
64.28,-21.15,-0.251
64.29,-21.27,-0.251
64.30,-21.39,-0.250
64.31,-21.50,-0.250
64.32,-21.62,-0.249
64.34,-21.74,-0.248
64.35,-21.85,-0.248
64.36,-21.97,-0.247
64.37,-22.08,-0.247
64.38,-22.20,-0.246
64.39,-22.32,-0.246
64.41,-22.44,-0.245
64.42,-22.55,-0.245
64.43,-22.67,-0.245
64.44,-22.78,-0.244
64.45,-22.90,-0.244
64.46,-23.02,-0.243
64.48,-23.14,-0.242
64.49,-23.25,-0.242
64.50,-23.37,-0.241
64.51,-23.48,-0.240
64.52,-23.60,-0.240
64.53,-23.72,-0.239
64.54,-23.83,-0.239
64.56,-23.95,-0.239
64.57,-24.07,-0.238
64.58,-24.19,-0.238
64.59,-24.30,-0.238
64.60,-24.42,-0.237
64.61,-24.53,-0.236
64.63,-24.65,-0.236
64.64,-24.77,-0.235
64.65,-24.89,-0.235
64.66,-25.00,-0.235
64.67,-25.12,-0.234
64.69,-25.23,-0.234
64.70,-25.35,-0.234
64.71,-25.47,-0.233
64.72,-25.59,-0.233
64.73,-25.70,-0.233
64.74,-25.82,-0.232
64.76,-25.94,-0.232
64.77,-26.05,-0.232
64.78,-26.17,-0.231
64.79,-26.28,-0.231
64.80,-26.40,-0.230
64.81,-26.52,-0.230
64.83,-26.64,-0.229
64.84,-26.75,-0.229
64.85,-26.87,-0.229
64.86,-26.98,-0.228
64.87,-27.10,-0.228
64.88,-27.22,-0.228
64.89,-27.34,-0.228
64.91,-27.45,-0.227
64.92,-27.57,-0.227
64.93,-27.68,-0.226
64.94,-27.80,-0.226
64.95,-27.92,-0.226
64.96,-28.03,-0.225
64.98,-28.15,-0.225
64.99,-28.27,-0.224
65.00,-28.38,-0.224
65.01,-28.50,-0.224
65.02,-28.62,-0.224
65.04,-28.74,-0.223
65.05,-28.85,-0.223
65.06,-28.97,-0.223
65.07,-29.08,-0.223
65.08,-29.20,-0.222
65.09,-29.32,-0.222
65.11,-29.43,-0.222
65.12,-29.55,-0.222
65.13,-29.67,-0.221
65.14,-29.79,-0.221
65.15,-29.90,-0.221
65.16,-30.02,-0.221
65.18,-30.13,-0.220
65.19,-30.25,-0.220
65.20,-30.37,-0.220
65.21,-30.48,-0.220
65.22,-30.60,-0.220
65.23,-30.72,-0.219
65.24,-30.83,-0.219
65.26,-30.95,-0.219
65.27,-31.07,-0.218
65.28,-31.18,-0.218
65.29,-31.30,-0.218
65.30,-31.42,-0.218
65.31,-31.53,-0.218
65.33,-31.65,-0.217
65.34,-31.77,-0.217
65.35,-31.88,-0.217
65.36,-32.00,-0.217
65.37,-32.12,-0.216
65.39,-32.23,-0.216
65.40,-32.35,-0.216
65.41,-32.47,-0.216
65.42,-32.58,-0.215
65.43,-32.70,-0.215
65.44,-32.82,-0.215
65.46,-32.93,-0.215
65.47,-33.05,-0.214
65.48,-33.17,-0.214
65.49,-33.28,-0.214
65.50,-33.40,-0.214
65.51,-33.52,-0.213
65.53,-33.63,-0.213
65.54,-33.75,-0.213
65.55,-33.87,-0.213
65.56,-33.98,-0.212
65.57,-34.10,-0.212
65.58,-34.22,-0.212
65.59,-34.33,-0.212
65.61,-34.45,-0.212
65.62,-34.57,-0.211
65.63,-34.68,-0.211
65.64,-34.80,-0.211
65.65,-34.92,-0.211
65.66,-35.03,-0.211
65.68,-35.15,-0.210
65.69,-35.27,-0.210
65.70,-35.38,-0.210
65.71,-35.50,-0.210
65.72,-35.62,-0.210
65.74,-35.73,-0.209
65.75,-35.85,-0.209
65.76,-35.97,-0.209
65.77,-36.08,-0.209
65.78,-36.20,-0.209
65.79,-36.32,-0.208
65.81,-36.43,-0.208
65.82,-36.55,-0.208
65.83,-36.67,-0.208
65.84,-36.78,-0.207
65.85,-36.90,-0.207
65.86,-37.02,-0.207
65.88,-37.13,-0.207
65.89,-37.25,-0.207
65.90,-37.37,-0.206
65.91,-37.48,-0.206
65.92,-37.60,-0.206
65.93,-37.71,-0.206
65.94,-37.83,-0.206
65.96,-37.95,-0.206
65.97,-38.06,-0.205
65.98,-38.18,-0.205
65.99,-38.30,-0.205
66.00,-38.41,-0.205
66.01,-38.53,-0.205
66.03,-38.65,-0.204
66.04,-38.77,-0.204
66.05,-38.88,-0.204
66.06,-39.00,-0.204
66.07,-39.11,-0.203
66.09,-39.23,-0.203
66.10,-39.35,-0.203
66.11,-39.46,-0.203
66.12,-39.58,-0.203
66.13,-39.70,-0.203
66.14,-39.81,-0.202
66.16,-39.93,-0.202
66.17,-40.05,-0.202
66.18,-40.16,-0.202
66.19,-40.28,-0.202
66.20,-40.40,-0.201
66.21,-40.51,-0.201
66.23,-40.63,-0.201
66.24,-40.75,-0.201
66.25,-40.86,-0.201
66.26,-40.98,-0.201
66.27,-41.10,-0.200
66.28,-41.21,-0.200
66.29,-41.33,-0.200
66.31,-41.45,-0.200
66.32,-41.56,-0.200
66.33,-41.68,-0.199
66.34,-41.80,-0.199
66.35,-41.91,-0.199
66.36,-42.03,-0.199
66.38,-42.14,-0.198
66.39,-42.26,-0.198
66.40,-42.38,-0.198
66.41,-42.50,-0.198
66.42,-42.61,-0.198
66.44,-42.73,-0.198
66.45,-42.85,-0.197
66.46,-42.96,-0.197
66.47,-43.08,-0.197
66.48,-43.20,-0.197
66.49,-43.31,-0.197
66.51,-43.43,-0.196
66.52,-43.54,-0.196
66.53,-43.66,-0.196
66.54,-43.78,-0.196
66.55,-43.89,-0.196
66.56,-44.01,-0.195
66.58,-44.13,-0.195
66.59,-44.24,-0.195
66.60,-44.36,-0.195
66.61,-44.48,-0.195
66.62,-44.59,-0.194
66.63,-44.71,-0.194
66.64,-44.83,-0.194
66.66,-44.95,-0.194
66.67,-45.06,-0.194
66.68,-45.18,-0.193
66.69,-45.29,-0.193
66.70,-45.41,-0.193
66.71,-45.53,-0.193
66.73,-45.64,-0.192
66.74,-45.76,-0.192
66.75,-45.88,-0.191
66.76,-45.99,-0.191
66.77,-46.11,-0.191
66.79,-46.23,-0.191
66.80,-46.34,-0.190
66.81,-46.46,-0.190
66.82,-46.58,-0.190
66.83,-46.69,-0.189
66.84,-46.81,-0.189
66.86,-46.93,-0.189
66.87,-47.04,-0.189
66.88,-47.16,-0.188
66.89,-47.28,-0.188
66.90,-47.39,-0.188
66.91,-47.51,-0.188
66.93,-47.63,-0.188
66.94,-47.74,-0.187
66.95,-47.86,
66.96,-47.98,
66.97,-48.09,
66.98,-48.21,
66.99,,
67.00,,