File: DSC/JLY_CBD_Xtal_KY1_Heating2.csv
Filename,JLY_CBD_Xtal_KY1
Instrument name,DSC2A-00468 (192.168.1.101)
Operator,JLY
rundate,1/26/2018
proceduresegments,Data Off ; Equilibrate -50.00 °C; Isothermal 1.0 min; Data On ; Ramp 10.00 °C/min to 110.00 °C; Data Off ; Isothermal 1.0 min; Data On ; Ramp 10.00 °C/min to -50.00 °C; Data Off ; Isothermal 1.0 min; Data On ; Ramp 10.00 °C/min to 110.00 °C; Data Off ; Isothermal 1.0 min; Data On ; Ramp 10.00 °C/min to -50.00 °C; Data Off ; Isothermal 1.0 min; Data On ; Ramp 5.00 °C/min to 110.00 °C; Data Off ; Isothermal 1.0 min; Data On ; Ramp 10.00 °C/min to -50.00 °C; Data Off ; Isothermal 1.0 min; Data On ; Ramp 5.00 °C/min to 110.00 °C; Data Off ; Jump 25.00 °C
[step]
Ramp 10 °C/min to 110.00 °C
Time,Temperature,Heat Flow (Normalized)
min,°C,W/g
34.00,-49.91,-0.017
34.01,-49.91,-0.017
34.02,-49.91,-0.017
34.03,-49.91,-0.017
34.05,-49.91,-0.017
34.06,-49.90,-0.017
34.07,-49.89,-0.017
34.08,-49.87,-0.019
34.09,-49.85,-0.021
34.11,-49.83,-0.023
34.12,-49.79,-0.023
34.13,-49.75,-0.023
34.14,-49.70,-0.022
34.15,-49.64,-0.014
34.16,-49.57,-0.003
34.18,-49.50,0.012
34.19,-49.42,0.027
34.20,-49.34,0.038
34.21,-49.25,0.050
34.22,-49.16,0.062
34.23,-49.07,0.072
34.24,-48.97,0.080
34.26,-48.87,0.089
34.27,-48.77,0.095
34.28,-48.66,0.106
34.29,-48.56,0.109
34.30,-48.45,0.114
34.31,-48.34,0.118
34.33,-48.23,0.121
34.34,-48.12,0.126
34.35,-48.01,0.128
34.36,-47.90,0.129
34.37,-47.79,0.132
34.39,-47.68,0.133
34.40,-47.57,0.136
34.41,-47.46,0.137
34.42,-47.34,0.139
34.43,-47.23,0.140
34.44,-47.11,0.141
34.46,-47.00,0.143
34.47,-46.89,0.144
34.48,-46.77,0.144
34.49,-46.66,0.145
34.50,-46.54,0.146
34.51,-46.43,0.146
34.53,-46.31,0.146
34.54,-46.20,0.147
34.55,-46.08,0.147
34.56,-45.97,0.148
34.57,-45.85,0.148
34.58,-45.74,0.149
34.59,-45.62,0.149
34.61,-45.50,0.150
34.62,-45.39,0.150
34.63,-45.27,0.150
34.64,-45.16,0.150
34.65,-45.04,0.150
34.66,-44.93,0.151
34.68,-44.81,0.151
34.69,-44.69,0.151
34.70,-44.58,0.151
34.71,-44.46,0.152
34.72,-44.35,0.152
34.74,-44.23,0.152
34.75,-44.11,0.152
34.76,-44.00,0.153
34.77,-43.88,0.153
34.78,-43.77,0.153
34.79,-43.65,0.153
34.81,-43.53,0.153
34.82,-43.42,0.154
34.83,-43.30,0.154
34.84,-43.19,0.154
34.85,-43.07,0.154
34.86,-42.95,0.154
34.88,-42.84,0.154
34.89,-42.72,0.155
34.90,-42.61,0.155
34.91,-42.49,0.155
34.92,-42.37,0.155
34.93,-42.26,0.155
34.94,-42.14,0.155
34.96,-42.03,0.155
34.97,-41.91,0.156
34.98,-41.79,0.156
34.99,-41.68,0.156
35.00,-41.56,0.156
35.01,-41.44,0.156
35.03,-41.33,0.156
35.04,-41.21,0.156
35.05,-41.09,0.156
35.06,-40.98,0.157
35.07,-40.86,0.157
35.09,-40.75,0.157
35.10,-40.63,0.157
35.11,-40.51,0.157
35.12,-40.40,0.157
35.13,-40.28,0.157
35.14,-40.16,0.157
35.16,-40.05,0.158
35.17,-39.93,0.158
35.18,-39.81,0.158
35.19,-39.70,0.158
35.20,-39.58,0.158
35.21,-39.47,0.158
35.23,-39.35,0.158
35.24,-39.23,0.158
35.25,-39.12,0.158
35.26,-39.00,0.159
35.27,-38.88,0.159
35.28,-38.77,0.159
35.29,-38.65,0.159
35.31,-38.53,0.159
35.32,-38.42,0.159
35.33,-38.30,0.159
35.34,-38.18,0.159
35.35,-38.07,0.159
35.36,-37.95,0.159
35.38,-37.84,0.159
35.39,-37.72,0.160
35.40,-37.60,0.160
35.41,-37.49,0.160
35.42,-37.37,0.160
35.44,-37.25,0.160
35.45,-37.13,0.160
35.46,-37.02,0.160
35.47,-36.90,0.160
35.48,-36.79,0.160
35.49,-36.67,0.160
35.51,-36.55,0.160
35.52,-36.44,0.160
35.53,-36.32,0.161
35.54,-36.20,0.161
35.55,-36.09,0.161
35.56,-35.97,0.161
35.58,-35.85,0.161
35.59,-35.74,0.161
35.60,-35.62,0.161
35.61,-35.50,0.161
35.62,-35.39,0.161
35.63,-35.27,0.161
35.64,-35.15,0.161
35.66,-35.04,0.161
35.67,-34.92,0.162
35.68,-34.80,0.162
35.69,-34.69,0.162
35.70,-34.57,0.162
35.71,-34.45,0.162
35.73,-34.34,0.162
35.74,-34.22,0.162
35.75,-34.10,0.162
35.76,-33.99,0.162
35.77,-33.87,0.162
35.79,-33.75,0.163
35.80,-33.64,0.163
35.81,-33.52,0.163
35.82,-33.40,0.163
35.83,-33.29,0.163
35.84,-33.17,0.163
35.86,-33.05,0.163
35.87,-32.94,0.163
35.88,-32.82,0.163
35.89,-32.70,0.163
35.90,-32.59,0.163
35.91,-32.47,0.164
35.93,-32.35,0.164
35.94,-32.24,0.164
35.95,-32.12,0.164
35.96,-32.00,0.164
35.97,-31.89,0.164
35.98,-31.77,0.164
35.99,-31.65,0.164
36.01,-31.54,0.164
36.02,-31.42,0.164
36.03,-31.30,0.165
36.04,-31.19,0.165
36.05,-31.07,0.165
36.06,-30.95,0.165
36.08,-30.84,0.165
36.09,-30.72,0.165
36.10,-30.60,0.165
36.11,-30.49,0.165
36.12,-30.37,0.165
36.14,-30.25,0.165
36.15,-30.14,0.166
36.16,-30.02,0.166
36.17,-29.90,0.166
36.18,-29.79,0.166
36.19,-29.67,0.166
36.21,-29.55,0.166
36.22,-29.43,0.166
36.23,-29.32,0.166
36.24,-29.20,0.166
36.25,-29.08,0.166
36.26,-28.97,0.167
36.28,-28.85,0.167
36.29,-28.73,0.167
36.30,-28.62,0.167
36.31,-28.50,0.167
36.32,-28.38,0.167
36.33,-28.27,0.167
36.34,-28.15,0.167
36.36,-28.03,0.167
36.37,-27.92,0.168
36.38,-27.80,0.168
36.39,-27.69,0.168
36.40,-27.57,0.168
36.41,-27.45,0.168
36.43,-27.33,0.168
36.44,-27.22,0.169
36.45,-27.10,0.169
36.46,-26.98,0.169
36.47,-26.87,0.169
36.49,-26.75,0.169
36.50,-26.63,0.169
36.51,-26.52,0.169
36.52,-26.40,0.169
36.53,-26.28,0.170
36.54,-26.17,0.170
36.56,-26.05,0.170
36.57,-25.93,0.170
36.58,-25.82,0.170
36.59,-25.70,0.170
36.60,-25.58,0.170
36.61,-25.47,0.170
36.63,-25.35,0.170
36.64,-25.23,0.171
36.65,-25.12,0.171
36.66,-25.00,0.171
36.67,-24.88,0.171
36.68,-24.77,0.171
36.69,-24.65,0.171
36.71,-24.53,0.171
36.72,-24.42,0.172
36.73,-24.30,0.172
36.74,-24.18,0.172
36.75,-24.07,0.172
36.76,-23.95,0.172
36.78,-23.83,0.172
36.79,-23.72,0.172
36.80,-23.60,0.172
36.81,-23.48,0.173
36.82,-23.37,0.173
36.84,-23.25,0.173
36.85,-23.13,0.173
36.86,-23.01,0.173
36.87,-22.90,0.173
36.88,-22.78,0.173
36.89,-22.67,0.174
36.91,-22.55,0.174
36.92,-22.43,0.174
36.93,-22.32,0.174
36.94,-22.20,0.174
36.95,-22.08,0.175
36.96,-21.96,0.175
36.98,-21.85,0.175
36.99,-21.73,0.175
37.00,-21.61,0.175
37.01,-21.50,0.176
37.02,-21.38,0.176
37.03,-21.26,0.176
37.04,-21.15,0.176
37.06,-21.03,0.177
37.07,-20.91,0.177
37.08,-20.80,0.177
37.09,-20.68,0.177
37.10,-20.56,0.178
37.11,-20.45,0.178
37.13,-20.33,0.178
37.14,-20.21,0.179
37.15,-20.10,0.179
37.16,-19.98,0.179
37.17,-19.86,0.179
37.19,-19.75,0.180
37.20,-19.63,0.180
37.21,-19.51,0.180
37.22,-19.40,0.181
37.23,-19.28,0.181
37.24,-19.16,0.181
37.26,-19.05,0.182
37.27,-18.93,0.182
37.28,-18.81,0.182
37.29,-18.70,0.183
37.30,-18.58,0.183
37.31,-18.46,0.183
37.33,-18.35,0.184
37.34,-18.23,0.184
37.35,-18.11,0.185
37.36,-18.00,0.185
37.37,-17.88,0.185
37.38,-17.76,0.186
37.39,-17.65,0.187
37.41,-17.53,0.187
37.42,-17.41,0.187
37.43,-17.30,0.189
37.44,-17.18,0.190
37.45,-17.06,0.191
37.46,-16.95,0.191
37.48,-16.83,0.192
37.49,-16.71,0.193
37.50,-16.60,0.193
37.51,-16.48,0.193
37.52,-16.36,0.195
37.54,-16.25,0.196
37.55,-16.13,0.196
37.56,-16.01,0.197
37.57,-15.90,0.198
37.58,-15.78,0.199
37.59,-15.67,0.200
37.61,-15.55,0.201
37.62,-15.43,0.203
37.63,-15.31,0.204
37.64,-15.20,0.205
37.65,-15.08,0.207
37.66,-14.96,0.208
37.68,-14.85,0.209
37.69,-14.73,0.211
37.70,-14.62,0.213
37.71,-14.50,0.214
37.72,-14.38,0.216
37.73,-14.27,0.218
37.74,-14.15,0.220
37.76,-14.03,0.222
37.77,-13.92,0.224
37.78,-13.80,0.227
37.79,-13.68,0.229
37.80,-13.57,0.231
37.81,-13.45,0.234
37.83,-13.34,0.235
37.84,-13.22,0.238
37.85,-13.10,0.240
37.86,-12.99,0.243
37.87,-12.87,0.245
37.89,-12.76,0.247
37.90,-12.64,0.248
37.91,-12.52,0.252
37.92,-12.41,0.254
37.93,-12.29,0.258
37.94,-12.17,0.260
37.96,-12.06,0.261
37.97,-11.94,0.264
37.98,-11.83,0.266
37.99,-11.71,0.268
38.00,-11.59,0.270
38.01,-11.47,0.272
38.03,-11.36,0.273
38.04,-11.24,0.274
38.05,-11.13,0.276
38.06,-11.01,0.278
38.07,-10.89,0.278
38.08,-10.78,0.280
38.09,-10.66,0.281
38.11,-10.54,0.282
38.12,-10.43,0.282
38.13,-10.31,0.282
38.14,-10.20,0.283
38.15,-10.08,0.283
38.16,-9.96,0.283
38.18,-9.85,0.284
38.19,-9.73,0.284
38.20,-9.61,0.284
38.21,-9.50,0.284
38.22,-9.38,0.283
38.24,-9.26,0.283
38.25,-9.15,0.283
38.26,-9.03,0.282
38.27,-8.91,0.281
38.28,-8.79,0.281
38.29,-8.68,0.279
38.31,-8.56,0.277
38.32,-8.44,0.276
38.33,-8.32,0.275
38.34,-8.21,0.274
38.35,-8.09,0.273
38.36,-7.97,0.272
38.38,-7.86,0.271
38.39,-7.74,0.269
38.40,-7.62,0.269
38.41,-7.51,0.268
38.42,-7.39,0.267
38.43,-7.27,0.267
38.44,-7.15,0.266
38.46,-7.04,0.266
38.47,-6.92,0.266
38.48,-6.80,0.265
38.49,-6.69,0.264
38.50,-6.57,0.264
38.51,-6.45,0.264
38.53,-6.34,0.264
38.54,-6.22,0.263
38.55,-6.10,0.263
38.56,-5.99,0.263
38.57,-5.87,0.262
38.59,-5.75,0.262
38.60,-5.63,0.262
38.61,-5.52,0.262
38.62,-5.40,0.261
38.63,-5.28,0.261
38.64,-5.17,0.261
38.66,-5.05,0.261
38.67,-4.93,0.260
38.68,-4.82,0.260
38.69,-4.70,0.260
38.70,-4.58,0.260
38.71,-4.47,0.260
38.73,-4.35,0.260
38.74,-4.23,0.259
38.75,-4.12,0.259
38.76,-4.00,0.259
38.77,-3.88,0.259
38.78,-3.77,0.259
38.79,-3.65,0.259
38.81,-3.53,0.259
38.82,-3.42,0.259
38.83,-3.30,0.259
38.84,-3.18,0.258
38.85,-3.06,0.258
38.86,-2.95,0.258
38.88,-2.83,0.258
38.89,-2.71,0.258
38.90,-2.60,0.258
38.91,-2.48,0.258
38.92,-2.37,0.258
38.94,-2.25,0.258
38.95,-2.13,0.258
38.96,-2.01,0.258
38.97,-1.90,0.258
38.98,-1.78,0.258
38.99,-1.66,0.258
39.01,-1.54,0.258
39.02,-1.43,0.258
39.03,-1.31,0.258
39.04,-1.20,0.258
39.05,-1.08,0.258
39.06,-0.96,0.258
39.08,-0.84,0.258
39.09,-0.73,0.258
39.10,-0.61,0.258
39.11,-0.49,0.258
39.12,-0.38,0.258
39.13,-0.26,0.258
39.14,-0.14,0.258
39.16,-0.03,0.258
39.17,0.09,0.258
39.18,0.21,0.258
39.19,0.32,0.258
39.20,0.44,0.258
39.21,0.56,0.258
39.23,0.67,0.258
39.24,0.79,0.258
39.25,0.91,0.258
39.26,1.02,0.258
39.27,1.14,0.259
39.29,1.26,0.259
39.30,1.37,0.259
39.31,1.49,0.259
39.32,1.61,0.259
39.33,1.72,0.259
39.34,1.84,0.259
39.36,1.96,0.259
39.37,2.07,0.259
39.38,2.19,0.259
39.39,2.31,0.259
39.40,2.42,0.259
39.41,2.54,0.259
39.43,2.66,0.259
39.44,2.77,0.259
39.45,2.89,0.259
39.46,3.01,0.259
39.47,3.12,0.259
39.48,3.24,0.259
39.49,3.36,0.259
39.51,3.48,0.260
39.52,3.59,0.260
39.53,3.71,0.260
39.54,3.83,0.260
39.55,3.94,0.260
39.56,4.06,0.260
39.58,4.18,0.260
39.59,4.29,0.260
39.60,4.41,0.260
39.61,4.53,0.260
39.62,4.64,0.260
39.64,4.76,0.260
39.65,4.88,0.260
39.66,4.99,0.260
39.67,5.11,0.260
39.68,5.23,0.260
39.69,5.35,0.261
39.71,5.46,0.261
39.72,5.58,0.261
39.73,5.69,0.261
39.74,5.81,0.261
39.75,5.93,0.261
39.76,6.04,0.261
39.78,6.16,0.261
39.79,6.28,0.261
39.80,6.39,0.261
39.81,6.51,0.261
39.82,6.63,0.261
39.83,6.75,0.261
39.84,6.86,0.261
39.86,6.98,0.261
39.87,7.10,0.261
39.88,7.21,0.261
39.89,7.33,0.262
39.90,7.45,0.262
39.91,7.56,0.262
39.93,7.68,0.262
39.94,7.80,0.262
39.95,7.91,0.262
39.96,8.03,0.262
39.97,8.15,0.262
39.99,8.26,0.262
40.00,8.38,0.262
40.01,8.50,0.262
40.02,8.61,0.262
40.03,8.73,0.262
40.04,8.85,0.262
40.06,8.96,0.262
40.07,9.08,0.263
40.08,9.20,0.263
40.09,9.31,0.263
40.10,9.43,0.263
40.11,9.55,0.263
40.13,9.66,0.263
40.14,9.78,0.263
40.15,9.90,0.263
40.16,10.01,0.263
40.17,10.13,0.263
40.18,10.25,0.263
40.19,10.36,0.263
40.21,10.48,0.263
40.22,10.60,0.263
40.23,10.71,0.264
40.24,10.83,0.264
40.25,10.95,0.264
40.26,11.07,0.264
40.28,11.18,0.264
40.29,11.30,0.264
40.30,11.42,0.264
40.31,11.53,0.264
40.32,11.65,0.264
40.34,11.77,0.264
40.35,11.88,0.264
40.36,12.00,0.264
40.37,12.12,0.264
40.38,12.23,0.264
40.39,12.35,0.264
40.41,12.47,0.264
40.42,12.58,0.264
40.43,12.70,0.265
40.44,12.82,0.265
40.45,12.93,0.265
40.46,13.05,0.265
40.48,13.17,0.265
40.49,13.28,0.265
40.50,13.40,0.265
40.51,13.52,0.265
40.52,13.63,0.265
40.53,13.75,0.265
40.54,13.87,0.265
40.56,13.99,0.265
40.57,14.10,0.265
40.58,14.22,0.265
40.59,14.33,0.265
40.60,14.45,0.266
40.61,14.57,0.266
40.63,14.69,0.266
40.64,14.80,0.266
40.65,14.92,0.266
40.66,15.04,0.266
40.67,15.15,0.266
40.69,15.27,0.266
40.70,15.39,0.266
40.71,15.50,0.266
40.72,15.62,0.266
40.73,15.73,0.266
40.74,15.85,0.267
40.76,15.97,0.267
40.77,16.09,0.267
40.78,16.20,0.267
40.79,16.32,0.267
40.80,16.44,0.267
40.81,16.55,0.267
40.83,16.67,0.267
40.84,16.79,0.267
40.85,16.90,0.267
40.86,17.02,0.267
40.87,17.14,0.267
40.88,17.25,0.267
40.89,17.37,0.267
40.91,17.49,0.268
40.92,17.60,0.268
40.93,17.72,0.268
40.94,17.84,0.268
40.95,17.95,0.268
40.96,18.07,0.268
40.98,18.19,0.268
40.99,18.30,0.268
41.00,18.42,0.268
41.01,18.54,0.268
41.02,18.65,0.269
41.04,18.77,0.269
41.05,18.89,0.269
41.06,19.00,0.269
41.07,19.12,0.269
41.08,19.24,0.269
41.09,19.36,0.269
41.11,19.47,0.269
41.12,19.59,0.269
41.13,19.71,0.269
41.14,19.82,0.269
41.15,19.94,0.269
41.16,20.06,0.270
41.18,20.17,0.270
41.19,20.29,0.270
41.20,20.41,0.270
41.21,20.52,0.270
41.22,20.64,0.270
41.23,20.76,0.270
41.24,20.87,0.270
41.26,20.99,0.270
41.27,21.11,0.270
41.28,21.22,0.270
41.29,21.34,0.271
41.30,21.46,0.271
41.31,21.57,0.271
41.33,21.69,0.271
41.34,21.81,0.271
41.35,21.92,0.271
41.36,22.04,0.271
41.37,22.16,0.271
41.39,22.27,0.271
41.40,22.39,0.271
41.41,22.51,0.271
41.42,22.62,0.271
41.43,22.74,0.272
41.44,22.86,0.272
41.46,22.97,0.272
41.47,23.09,0.272
41.48,23.21,0.272
41.49,23.33,0.272
41.50,23.44,0.272
41.51,23.56,0.272
41.53,23.68,0.272
41.54,23.79,0.272
41.55,23.91,0.272
41.56,24.03,0.273
41.57,24.14,0.273
41.58,24.26,0.273
41.59,24.38,0.273
41.61,24.49,0.273
41.62,24.61,0.273
41.63,24.73,0.273
41.64,24.84,0.273
41.65,24.96,0.273
41.66,25.08,0.273
41.68,25.19,0.274
41.69,25.31,0.274
41.70,25.43,0.274
41.71,25.54,0.274
41.72,25.66,0.274
41.74,25.78,0.274
41.75,25.89,0.274
41.76,26.01,0.274
41.77,26.13,0.274
41.78,26.24,0.274
41.79,26.36,0.274
41.81,26.48,0.275
41.82,26.59,0.275
41.83,26.71,0.275
41.84,26.83,0.275
41.85,26.94,0.275
41.86,27.06,0.275
41.88,27.18,0.275
41.89,27.29,0.275
41.90,27.41,0.275
41.91,27.53,0.275
41.92,27.64,0.276
41.93,27.76,0.276
41.94,27.88,0.276
41.96,27.99,0.276
41.97,28.11,0.276
41.98,28.23,0.276
41.99,28.35,0.276
42.00,28.46,0.276
42.01,28.58,0.276
42.03,28.69,0.276
42.04,28.81,0.277
42.05,28.93,0.277
42.06,29.05,0.277
42.07,29.16,0.277
42.09,29.28,0.277
42.10,29.40,0.277
42.11,29.51,0.277
42.12,29.63,0.277
42.13,29.75,0.277
42.14,29.86,0.277
42.16,29.98,0.277
42.17,30.10,0.277
42.18,30.21,0.277
42.19,30.33,0.277
42.20,30.45,0.278
42.21,30.56,0.278
42.23,30.68,0.278
42.24,30.80,0.278
42.25,30.91,0.278
42.26,31.03,0.278
42.27,31.15,0.278
42.28,31.27,0.278
42.29,31.38,0.278
42.31,31.50,0.278
42.32,31.62,0.278
42.33,31.73,0.278
42.34,31.85,0.278
42.35,31.97,0.278
42.36,32.08,0.278
42.38,32.20,0.279
42.39,32.31,0.279
42.40,32.43,0.279
42.41,32.55,0.279
42.42,32.67,0.279
42.44,32.78,0.279
42.45,32.90,0.279
42.46,33.02,0.279
42.47,33.13,0.279
42.48,33.25,0.279
42.49,33.37,0.279
42.51,33.48,0.279
42.52,33.60,0.279
42.53,33.72,0.279
42.54,33.83,0.280
42.55,33.95,0.280
42.56,34.07,0.280
42.58,34.18,0.280
42.59,34.30,0.280
42.60,34.42,0.280
42.61,34.54,0.280
42.62,34.65,0.280
42.63,34.77,0.280
42.64,34.88,0.280
42.66,35.00,0.280
42.67,35.12,0.280
42.68,35.23,0.280
42.69,35.35,0.280
42.70,35.47,0.280
42.71,35.59,0.280
42.73,35.70,0.281
42.74,35.82,0.281
42.75,35.93,0.281
42.76,36.05,0.281
42.77,36.17,0.281
42.79,36.29,0.281
42.80,36.40,0.281
42.81,36.52,0.281
42.82,36.63,0.281
42.83,36.75,0.281
42.84,36.87,0.281
42.86,36.99,0.281
42.87,37.10,0.281
42.88,37.22,0.281
42.89,37.34,0.281
42.90,37.45,0.281
42.91,37.57,0.282
42.93,37.69,0.282
42.94,37.80,0.282
42.95,37.92,0.282
42.96,38.04,0.282
42.97,38.15,0.282
42.98,38.27,0.282
42.99,38.39,0.282
43.01,38.50,0.282
43.02,38.62,0.282
43.03,38.74,0.282
43.04,38.85,0.282
43.05,38.97,0.282
43.06,39.09,0.282
43.08,39.20,0.283
43.09,39.32,0.283
43.10,39.44,0.283
43.11,39.55,0.283
43.12,39.67,0.283
43.14,39.79,0.283
43.15,39.90,0.283
43.16,40.02,0.283
43.17,40.14,0.283
43.18,40.26,0.283
43.19,40.37,0.283
43.21,40.49,0.283
43.22,40.61,0.283
43.23,40.72,0.283
43.24,40.84,0.283
43.25,40.96,0.283
43.26,41.07,0.283
43.28,41.19,0.283
43.29,41.31,0.284
43.30,41.42,0.284
43.31,41.54,0.284
43.32,41.66,0.284
43.33,41.77,0.284
43.34,41.89,0.284
43.36,42.01,0.284
43.37,42.12,0.284
43.38,42.24,0.284
43.39,42.36,0.284
43.40,42.47,0.284
43.41,42.59,0.284
43.43,42.71,0.284
43.44,42.82,0.284
43.45,42.94,0.284
43.46,43.06,0.284
43.47,43.17,0.284
43.49,43.29,0.284
43.50,43.41,0.284
43.51,43.52,0.284
43.52,43.64,0.285
43.53,43.76,0.285
43.54,43.88,0.285
43.56,43.99,0.285
43.57,44.11,0.285
43.58,44.23,0.285
43.59,44.34,0.285
43.60,44.46,0.285
43.61,44.58,0.285
43.63,44.69,0.285
43.64,44.81,0.285
43.65,44.93,0.285
43.66,45.04,0.285
43.67,45.16,0.285
43.68,45.27,0.285
43.69,45.39,0.285
43.71,45.51,0.285
43.72,45.63,0.285
43.73,45.74,0.286
43.74,45.86,0.286
43.75,45.98,0.286
43.76,46.09,0.286
43.78,46.21,0.286
43.79,46.33,0.286
43.80,46.44,0.286
43.81,46.56,0.286
43.82,46.68,0.286
43.84,46.79,0.286
43.85,46.91,0.286
43.86,47.03,0.286
43.87,47.14,0.286
43.88,47.26,0.286
43.89,47.38,0.286
43.91,47.49,0.286
43.92,47.61,0.286
43.93,47.73,0.286
43.94,47.84,0.287
43.95,47.96,0.287
43.96,48.08,0.287
43.98,48.19,0.287
43.99,48.31,0.287
44.00,48.43,0.287
44.01,48.55,0.287
44.02,48.66,0.287
44.03,48.78,0.287
44.04,48.90,0.287
44.06,49.01,0.287
44.07,49.13,0.287
44.08,49.25,0.287
44.09,49.36,0.287
44.10,49.48,0.287
44.11,49.59,0.287
44.13,49.71,0.288
44.14,49.83,0.288
44.15,49.95,0.288
44.16,50.06,0.288
44.17,50.18,0.288
44.19,50.30,0.288
44.20,50.41,0.288
44.21,50.53,0.288
44.22,50.65,0.288
44.23,50.76,0.288
44.24,50.88,0.288
44.26,51.00,0.288
44.27,51.11,0.288
44.28,51.23,0.288
44.29,51.35,0.288
44.30,51.47,0.288
44.31,51.58,0.289
44.33,51.70,0.289
44.34,51.81,0.289
44.35,51.93,0.289
44.36,52.05,0.289
44.37,52.17,0.289
44.38,52.28,0.289
44.39,52.40,0.289
44.41,52.52,0.289
44.42,52.63,0.289
44.43,52.75,0.289
44.44,52.86,0.289
44.45,52.98,0.289
44.46,53.10,0.289
44.48,53.21,0.289
44.49,53.33,0.289
44.50,53.45,0.289
44.51,53.57,0.290
44.52,53.68,0.290
44.54,53.80,0.290
44.55,53.92,0.290
44.56,54.03,0.290
44.57,54.15,0.290
44.58,54.27,0.290
44.59,54.38,0.290
44.61,54.50,0.290
44.62,54.62,0.290
44.63,54.73,0.290
44.64,54.85,0.290
44.65,54.97,0.290
44.66,55.08,0.291
44.68,55.20,0.291
44.69,55.32,0.291
44.70,55.43,0.291
44.71,55.55,0.291
44.72,55.67,0.291
44.73,55.78,0.291
44.74,55.90,0.291
44.76,56.02,0.291
44.77,56.13,0.291
44.78,56.25,0.291
44.79,56.37,0.291
44.80,56.48,0.291
44.81,56.60,0.291
44.83,56.72,0.292
44.84,56.84,0.292
44.85,56.95,0.292
44.86,57.07,0.292
44.87,57.19,0.292
44.89,57.30,0.292
44.90,57.42,0.292
44.91,57.53,0.292
44.92,57.65,0.292
44.93,57.77,0.292
44.94,57.89,0.292
44.96,58.00,0.292
44.97,58.12,0.292
44.98,58.24,0.292
44.99,58.35,0.293
45.00,58.47,0.293
45.01,58.59,0.293
45.03,58.70,0.293
45.04,58.82,0.293
45.05,58.94,0.293
45.06,59.05,0.293
45.07,59.17,0.293
45.08,59.29,0.293
45.09,59.40,0.293
45.11,59.52,0.293
45.12,59.64,0.294
45.13,59.75,0.294
45.14,59.87,0.294
45.15,59.99,0.294
45.16,60.11,0.294
45.18,60.22,0.294
45.19,60.34,0.294
45.20,60.46,0.294
45.21,60.57,0.294
45.22,60.69,0.294
45.24,60.80,0.294
45.25,60.92,0.294
45.26,61.04,0.294
45.27,61.16,0.294
45.28,61.27,0.294
45.29,61.39,0.295
45.31,61.51,0.295
45.32,61.62,0.295
45.33,61.74,0.295
45.34,61.86,0.295
45.35,61.97,0.295
45.36,62.09,0.295
45.38,62.21,0.295
45.39,62.32,0.295
45.40,62.44,0.295
45.41,62.56,0.295
45.42,62.67,0.295
45.43,62.79,0.295
45.44,62.91,0.295
45.46,63.02,0.296
45.47,63.14,0.296
45.48,63.26,0.296
45.49,63.37,0.296
45.50,63.49,0.296
45.51,63.61,0.296
45.53,63.72,0.296
45.54,63.84,0.296
45.55,63.96,0.296
45.56,64.07,0.296
45.57,64.19,0.296
45.59,64.31,0.296
45.60,64.42,0.297
45.61,64.54,0.297
45.62,64.66,0.297
45.63,64.77,0.297
45.64,64.89,0.297
45.66,65.01,0.297
45.67,65.12,0.297
45.68,65.24,0.297
45.69,65.36,0.297
45.70,65.48,0.297
45.71,65.59,0.298
45.73,65.71,0.298
45.74,65.83,0.298
45.75,65.94,0.298
45.76,66.06,0.298
45.77,66.18,0.298
45.78,66.29,0.298
45.79,66.41,0.298
45.81,66.53,0.298
45.82,66.64,0.298
45.83,66.76,0.298
45.84,66.88,0.298
45.85,66.99,0.298
45.86,67.11,0.298
45.88,67.23,0.299
45.89,67.34,0.299
45.90,67.46,0.299
45.91,67.58,0.299
45.92,67.69,0.299
45.94,67.81,0.299
45.95,67.93,0.299
45.96,68.04,0.299
45.97,68.16,0.299
45.98,68.28,0.299
45.99,68.39,0.299
46.01,68.51,0.299
46.02,68.63,0.300
46.03,68.74,0.300
46.04,68.86,0.300
46.05,68.98,0.300
46.06,69.10,0.300
46.08,69.21,0.300
46.09,69.33,0.300
46.10,69.45,0.300
46.11,69.56,0.300
46.12,69.68,0.300
46.13,69.80,0.300
46.14,69.91,0.300
46.16,70.03,0.301
46.17,70.15,0.301
46.18,70.26,0.301
46.19,70.38,0.301
46.20,70.50,0.301
46.21,70.61,0.301
46.23,70.73,0.301
46.24,70.85,0.301
46.25,70.96,0.301
46.26,71.08,0.301
46.27,71.20,0.301
46.29,71.32,0.301
46.30,71.43,0.302
46.31,71.55,0.302
46.32,71.66,0.302
46.33,71.78,0.302
46.34,71.90,0.302
46.36,72.02,0.302
46.37,72.13,0.302
46.38,72.25,0.302
46.39,72.36,0.302
46.40,72.48,0.302
46.41,72.60,0.302
46.43,72.72,0.302
46.44,72.83,0.302
46.45,72.95,0.302
46.46,73.06,0.302
46.47,73.18,0.302
46.48,73.30,0.302
46.49,73.41,0.302
46.51,73.53,0.303
46.52,73.65,0.303
46.53,73.76,0.303
46.54,73.88,0.303
46.55,74.00,0.303
46.56,74.12,0.303
46.58,74.23,0.303
46.59,74.35,0.303
46.60,74.46,0.303
46.61,74.58,0.303
46.62,74.70,0.303
46.64,74.81,0.303
46.65,74.93,0.303
46.66,75.05,0.303
46.67,75.17,0.303
46.68,75.28,0.303
46.69,75.40,0.303
46.71,75.52,0.304
46.72,75.63,0.304
46.73,75.75,0.304
46.74,75.87,0.304
46.75,75.98,0.304
46.76,76.10,0.304
46.78,76.22,0.304
46.79,76.33,0.304
46.80,76.45,0.304
46.81,76.57,0.304
46.82,76.68,0.304
46.83,76.80,0.304
46.84,76.92,0.304
46.86,77.03,0.304
46.87,77.15,0.304
46.88,77.27,0.305
46.89,77.38,0.305
46.90,77.50,0.305
46.91,77.62,0.305
46.93,77.73,0.305
46.94,77.85,0.305
46.95,77.97,0.305
46.96,78.09,0.305
46.97,78.20,0.305
46.99,78.32,0.305
47.00,78.44,0.305
47.01,78.55,0.305
47.02,78.67,0.305
47.03,78.79,0.305
47.04,78.90,0.305
47.06,79.02,0.305
47.07,79.14,0.305
47.08,79.25,0.305
47.09,79.37,0.306
47.10,79.49,0.306
47.11,79.60,0.306
47.13,79.72,0.306
47.14,79.84,0.306
47.15,79.95,0.306
47.16,80.07,0.306
47.17,80.19,0.306
47.18,80.30,0.306
47.19,80.42,0.306
47.21,80.54,0.306
47.22,80.65,0.306
47.23,80.77,0.306
47.24,80.89,0.306
47.25,81.00,0.306
47.26,81.12,0.306
47.28,81.24,0.306
47.29,81.35,0.306
47.30,81.47,0.307
47.31,81.59,0.307
47.32,81.70,0.307
47.34,81.82,0.307
47.35,81.94,0.307
47.36,82.05,0.307
47.37,82.17,0.307
47.38,82.29,0.307
47.39,82.40,0.307
47.41,82.52,0.307
47.42,82.64,0.307
47.43,82.75,0.307
47.44,82.87,0.307
47.45,82.99,0.307
47.46,83.11,0.307
47.48,83.22,0.307
47.49,83.34,0.307
47.50,83.46,0.307
47.51,83.57,0.308
47.52,83.69,0.308
47.53,83.81,0.308
47.54,83.92,0.308
47.56,84.04,0.308
47.57,84.16,0.308
47.58,84.27,0.308
47.59,84.39,0.308
47.60,84.51,0.308
47.61,84.62,0.308
47.63,84.74,0.308
47.64,84.86,0.308
47.65,84.97,0.308
47.66,85.09,0.308
47.67,85.21,0.308
47.69,85.32,0.308
47.70,85.44,0.308
47.71,85.56,0.308
47.72,85.67,0.308
47.73,85.79,0.308
47.74,85.91,0.308
47.76,86.02,0.308
47.77,86.14,0.308
47.78,86.26,0.309
47.79,86.37,0.309
47.80,86.49,0.309
47.81,86.61,0.309
47.83,86.72,0.309
47.84,86.84,0.309
47.85,86.96,0.309
47.86,87.07,0.309
47.87,87.19,0.309
47.88,87.31,0.309
47.89,87.42,0.309
47.91,87.54,0.309
47.92,87.66,0.309
47.93,87.78,0.309
47.94,87.89,0.309
47.95,88.01,0.309
47.96,88.13,0.309
47.98,88.24,0.309
47.99,88.36,0.309
48.00,88.48,0.309
48.01,88.59,0.309
48.02,88.71,0.309
48.04,88.83,0.309
48.05,88.94,0.310
48.06,89.06,0.310
48.07,89.18,0.310
48.08,89.29,0.310
48.09,89.41,0.310
48.11,89.53,0.310
48.12,89.64,0.310
48.13,89.76,0.310
48.14,89.88,0.310
48.15,89.99,0.310
48.16,90.11,0.310
48.18,90.23,0.310
48.19,90.34,0.310
48.20,90.46,0.310
48.21,90.58,0.310
48.22,90.69,0.310
48.23,90.81,0.310
48.24,90.93,0.310
48.26,91.04,0.310
48.27,91.16,0.310
48.28,91.28,0.310
48.29,91.40,0.310
48.30,91.51,0.310
48.31,91.63,0.310
48.33,91.75,0.311
48.34,91.86,0.311
48.35,91.98,0.311
48.36,92.10,0.311
48.37,92.21,0.311
48.39,92.33,0.311
48.40,92.45,0.311
48.41,92.56,0.311
48.42,92.68,0.311
48.43,92.80,0.311
48.44,92.91,0.311
48.46,93.03,0.311
48.47,93.15,0.311
48.48,93.26,0.311
48.49,93.38,0.311
48.50,93.50,0.311
48.51,93.61,0.311
48.53,93.73,0.311
48.54,93.85,0.311
48.55,93.96,0.311
48.56,94.08,0.311
48.57,94.20,0.311
48.58,94.31,0.311
48.59,94.43,0.311
48.61,94.55,0.312
48.62,94.66,0.312
48.63,94.78,0.312
48.64,94.90,0.312
48.65,95.01,0.312
48.66,95.13,0.312
48.68,95.25,0.312
48.69,95.36,0.312
48.70,95.48,0.312
48.71,95.60,0.312
48.72,95.72,0.312
48.74,95.83,0.312
48.75,95.95,0.312
48.76,96.06,0.312
48.77,96.18,0.312
48.78,96.30,0.312
48.79,96.42,0.312
48.81,96.53,0.312
48.82,96.65,0.312
48.83,96.77,0.312
48.84,96.88,0.312
48.85,97.00,0.312
48.86,97.12,0.312
48.88,97.23,0.312
48.89,97.35,0.312
48.90,97.47,0.312
48.91,97.58,0.313
48.92,97.70,0.313
48.93,97.82,0.313
48.94,97.93,0.313
48.96,98.05,0.313
48.97,98.17,0.313
48.98,98.28,0.313
48.99,98.40,0.313
49.00,98.52,0.313
49.01,98.63,0.313
49.03,98.75,0.313
49.04,98.87,0.313
49.05,98.98,0.313
49.06,99.10,0.313
49.07,99.22,0.313
49.09,99.33,0.313
49.10,99.45,0.313
49.11,99.57,0.314
49.12,99.68,0.314
49.13,99.80,0.314
49.14,99.92,0.314
49.16,100.03,0.314
49.17,100.15,0.314
49.18,100.27,0.314
49.19,100.38,0.314
49.20,100.50,0.314
49.21,100.62,0.314
49.23,100.74,0.314
49.24,100.85,0.314
49.25,100.97,0.314
49.26,101.09,0.314
49.27,101.20,0.314
49.28,101.32,0.314
49.29,101.44,0.315
49.31,101.55,0.315
49.32,101.67,0.315
49.33,101.79,0.315
49.34,101.90,0.315
49.35,102.02,0.315
49.36,102.14,0.315
49.38,102.25,0.315
49.39,102.37,0.315
49.40,102.49,0.315
49.41,102.60,0.315
49.42,102.72,0.315
49.44,102.84,0.315
49.45,102.95,0.315
49.46,103.07,0.315
49.47,103.19,0.315
49.48,103.30,0.315
49.49,103.42,0.315
49.51,103.54,0.315
49.52,103.65,0.315
49.53,103.77,0.315
49.54,103.89,0.315
49.55,104.00,0.315
49.56,104.12,0.315
49.58,104.24,0.315
49.59,104.36,0.315
49.60,104.47,0.315
49.61,104.59,0.315
49.62,104.70,0.315
49.63,104.82,0.316
49.64,104.94,0.316
49.66,105.05,0.316
49.67,105.17,0.316
49.68,105.29,0.316
49.69,105.41,0.316
49.70,105.52,0.316
49.71,105.64,0.316
49.73,105.75,0.316
49.74,105.87,0.316
49.75,105.99,0.316
49.76,106.11,0.316
49.77,106.22,0.316
49.79,106.34,0.316
49.80,106.46,0.316
49.81,106.57,0.316
49.82,106.69,0.316
49.83,106.81,0.316
49.84,106.92,0.316
49.86,107.04,0.317
49.87,107.16,0.317
49.88,107.27,0.317
49.89,107.39,0.317
49.90,107.51,0.317
49.91,107.62,0.317
49.93,107.74,0.317
49.94,107.86,0.317
49.95,107.97,
49.96,108.09,
49.97,108.21,
49.98,108.32,
49.99,,
50.00,,