File: Raman/2025_10_10/Data/2025_10_10_Glass_Slide_50X_785nm_250mW_Kymera328_600gv_970wn_3accum_10s_Pol.csv
62.415,21725.000,21023.000,21402.000
64.315,18796.000,18277.000,18605.000
66.214,17582.000,16953.000,17048.000
68.113,16673.000,16271.000,16371.000
70.010,16097.000,15666.000,15841.000
71.908,15289.000,14693.000,15047.000
73.804,13913.000,13561.000,13811.000
75.700,13446.000,13057.000,13335.000
77.596,13311.000,12822.000,13062.000
79.491,12257.000,11956.000,12101.000
81.385,11599.000,11505.000,11516.000
83.278,10982.000,10764.000,10919.000
85.172,10907.000,10600.000,10732.000
87.065,10395.000,10390.000,10493.000
88.957,10023.000,9833.000,9935.000
90.848,9753.000,9525.000,9822.000
92.739,9320.000,9234.000,9371.000
94.630,9190.000,9131.000,9107.000
96.519,8912.000,8797.000,8844.000
98.408,8529.000,8408.000,8621.000
100.298,8263.000,8344.000,8304.000
102.186,8143.000,8131.000,8051.000
104.074,7871.000,7891.000,7871.000
105.960,7736.000,7725.000,7857.000
107.847,7679.000,7629.000,7823.000
109.733,7516.000,7479.000,7561.000
111.618,7226.000,7230.000,7400.000
113.503,7082.000,7189.000,7212.000
115.388,7147.000,7012.000,7194.000
117.271,6993.000,7074.000,7150.000
119.154,7028.000,7018.000,7086.000
121.036,6922.000,6851.000,6996.000
122.919,6872.000,6787.000,6961.000
124.800,6787.000,6794.000,6823.000
126.681,6637.000,6699.000,6652.000
128.561,6676.000,6582.000,6735.000
130.441,6558.000,6589.000,6645.000
132.320,6388.000,6492.000,6570.000
134.198,6387.000,6405.000,6571.000
136.077,6377.000,6340.000,6331.000
137.954,6265.000,6357.000,6439.000
139.831,6203.000,6193.000,6313.000
141.707,6185.000,6231.000,6311.000
143.583,6283.000,6194.000,6315.000
145.459,6163.000,6190.000,6246.000
147.333,5993.000,6115.000,6160.000
149.207,6000.000,6006.000,6175.000
151.081,5967.000,6016.000,6149.000
152.954,5981.000,6048.000,6067.000
154.827,5922.000,6035.000,6071.000
156.698,5975.000,5965.000,6084.000
158.570,5919.000,6019.000,6032.000
160.440,5947.000,6041.000,5997.000
162.310,5909.000,5959.000,5955.000
164.180,5991.000,5957.000,6079.000
166.049,5909.000,5879.000,6010.000
167.918,5935.000,5970.000,6062.000
169.786,6033.000,6074.000,6073.000
171.653,6189.000,6150.000,6222.000
173.521,6236.000,6237.000,6312.000
175.388,6278.000,6347.000,6384.000
177.253,6478.000,6547.000,6614.000
179.119,6603.000,6624.000,6765.000
180.983,6774.000,6755.000,6923.000
182.848,6887.000,7000.000,6999.000
184.711,7146.000,7135.000,7260.000
186.574,7369.000,7453.000,7473.000
188.437,7564.000,7547.000,7706.000
190.299,7866.000,7926.000,8048.000
192.160,8121.000,8084.000,8193.000
194.020,8327.000,8522.000,8546.000
195.881,8619.000,8719.000,8837.000
197.741,8893.000,9038.000,8985.000
199.600,9183.000,9144.000,9253.000
201.458,9352.000,9431.000,9520.000
203.316,9571.000,9642.000,9668.000
205.174,9799.000,10051.000,9974.000
207.031,10237.000,10430.000,10436.000
208.888,10586.000,10590.000,10581.000
210.743,10726.000,10798.000,10865.000
212.599,10958.000,10995.000,11004.000
214.454,10990.000,11066.000,11224.000
216.308,11180.000,11296.000,11235.000
218.161,11373.000,11367.000,11471.000
220.015,11181.000,11408.000,11383.000
221.867,11179.000,11251.000,11288.000
223.719,11043.000,11104.000,11230.000
225.570,10984.000,11172.000,11229.000
227.421,10859.000,10848.000,11000.000
229.272,10622.000,10655.000,10735.000
231.122,10344.000,10339.000,10440.000
232.971,9939.000,10087.000,10164.000
234.819,9947.000,10072.000,9953.000
236.668,9798.000,9798.000,9940.000
238.515,9594.000,9746.000,9758.000
240.363,9545.000,9629.000,9684.000
242.209,9511.000,9561.000,9582.000
244.056,9459.000,9636.000,9564.000
245.901,9525.000,9514.000,9632.000
247.747,9576.000,9654.000,9655.000
249.591,9600.000,9645.000,9717.000
251.435,9687.000,9679.000,9706.000
253.278,9595.000,9647.000,9684.000
255.121,9597.000,9646.000,9674.000
256.964,9569.000,9576.000,9611.000
258.805,9491.000,9725.000,9700.000
260.646,9711.000,9691.000,9710.000
262.487,9662.000,9683.000,9836.000
264.327,9776.000,9751.000,9845.000
266.166,9810.000,9906.000,9980.000
268.006,9768.000,9836.000,9886.000
269.844,9982.000,9875.000,10061.000
271.681,10024.000,9926.000,9973.000
273.519,9931.000,10029.000,10044.000
275.356,10044.000,10049.000,10112.000
277.192,10097.000,10126.000,10146.000
279.028,10139.000,10194.000,10167.000
280.863,10251.000,10304.000,10318.000
282.697,10219.000,10268.000,10279.000
284.532,10322.000,10317.000,10251.000
286.366,10273.000,10379.000,10485.000
288.198,10438.000,10537.000,10480.000
290.030,10531.000,10554.000,10509.000
291.863,10691.000,10627.000,10665.000
293.694,10552.000,10635.000,10589.000
295.525,10672.000,10741.000,10740.000
297.355,10744.000,10751.000,10846.000
299.185,10829.000,10849.000,10808.000
301.014,10923.000,10851.000,10879.000
302.843,10968.000,10899.000,10857.000
304.671,10907.000,10988.000,11110.000
306.499,11022.000,11143.000,11182.000
308.326,11127.000,11181.000,11190.000
310.153,11176.000,11207.000,11218.000
311.978,11234.000,11230.000,11300.000
313.804,11327.000,11318.000,11424.000
315.629,11403.000,11377.000,11406.000
317.453,11513.000,11463.000,11561.000
319.277,11437.000,11481.000,11586.000
321.102,11551.000,11656.000,11590.000
322.925,11579.000,11655.000,11732.000
324.747,11615.000,11711.000,11745.000
326.569,11714.000,11711.000,11885.000
328.389,11852.000,11972.000,11904.000
330.210,11849.000,12027.000,11942.000
332.031,12023.000,12013.000,12091.000
333.850,12010.000,12170.000,12072.000
335.670,12139.000,12116.000,12202.000
337.488,12209.000,12259.000,12234.000
339.306,12175.000,12286.000,12294.000
341.124,12411.000,12445.000,12401.000
342.940,12260.000,12399.000,12466.000
344.757,12401.000,12411.000,12440.000
346.572,12432.000,12513.000,12544.000
348.388,12579.000,12565.000,12502.000
350.203,12643.000,12617.000,12619.000
352.017,12724.000,12710.000,12678.000
353.831,12802.000,12771.000,12830.000
355.644,12735.000,12851.000,12757.000
357.457,12714.000,12839.000,12859.000
359.270,12923.000,12886.000,13023.000
361.081,12978.000,12885.000,12982.000
362.892,12930.000,12964.000,13005.000
364.703,12920.000,12983.000,13023.000
366.513,13092.000,12989.000,13102.000
368.322,13118.000,13084.000,13199.000
370.131,13115.000,13174.000,13303.000
371.939,13282.000,13200.000,13371.000
373.747,13113.000,13321.000,13270.000
375.555,13296.000,13246.000,13363.000
377.362,13290.000,13341.000,13414.000
379.168,13337.000,13357.000,13344.000
380.974,13280.000,13352.000,13402.000
382.780,13295.000,13433.000,13383.000
384.584,13363.000,13489.000,13441.000
386.389,13239.000,13332.000,13495.000
388.192,13471.000,13490.000,13542.000
389.996,13518.000,13555.000,13455.000
391.800,13418.000,13504.000,13615.000
393.602,13433.000,13459.000,13509.000
395.403,13600.000,13528.000,13561.000
397.204,13471.000,13460.000,13564.000
399.004,13403.000,13460.000,13582.000
400.804,13590.000,13429.000,13572.000
402.604,13497.000,13470.000,13482.000
404.403,13590.000,13578.000,13613.000
406.201,13501.000,13568.000,13495.000
408.000,13525.000,13425.000,13389.000
409.797,13422.000,13664.000,13513.000
411.594,13551.000,13578.000,13616.000
413.390,13599.000,13528.000,13708.000
415.186,13478.000,13515.000,13593.000
416.981,13494.000,13594.000,13842.000
418.776,13628.000,13495.000,13651.000
420.570,13550.000,13554.000,13403.000
422.364,13471.000,13548.000,13553.000
424.157,13404.000,13495.000,13632.000
425.950,13523.000,13471.000,13460.000
427.743,13445.000,13604.000,13520.000
429.534,13485.000,13554.000,13530.000
431.326,13470.000,13666.000,13498.000
433.116,13363.000,13564.000,13471.000
434.906,13392.000,13462.000,13497.000
436.696,13413.000,13363.000,13520.000
438.486,13411.000,13389.000,13414.000
440.274,13401.000,13479.000,13477.000
442.062,13256.000,13416.000,13465.000
443.849,13505.000,13365.000,13535.000
445.636,13529.000,13464.000,13507.000
447.423,13459.000,13454.000,13432.000
449.209,13459.000,13397.000,13396.000
450.994,13215.000,13361.000,13373.000
452.779,13306.000,13317.000,13443.000
454.564,13246.000,13381.000,13403.000
456.347,13233.000,13318.000,13411.000
458.131,13307.000,13489.000,13275.000
459.914,13183.000,13224.000,13288.000
461.696,13241.000,13310.000,13166.000
463.479,13292.000,13296.000,13311.000
465.260,13172.000,13159.000,13156.000
467.041,13155.000,13231.000,13293.000
468.821,13196.000,13275.000,13294.000
470.601,13159.000,13292.000,13193.000
472.380,13069.000,13249.000,13241.000
474.159,13151.000,13205.000,13148.000
475.938,13139.000,13208.000,13121.000
477.715,13079.000,13160.000,13104.000
479.492,13151.000,13095.000,13191.000
481.269,13116.000,13133.000,12956.000
483.045,13046.000,13111.000,13040.000
484.821,13067.000,12974.000,12986.000
486.595,13072.000,12945.000,12946.000
488.371,12999.000,12951.000,13083.000
490.145,13039.000,13072.000,12922.000
491.918,12894.000,12885.000,12972.000
493.691,12811.000,12882.000,12952.000
495.464,12849.000,12969.000,12912.000
497.236,12792.000,12832.000,12879.000
499.008,12795.000,12642.000,12864.000
500.778,12827.000,12810.000,12824.000
502.549,12921.000,12725.000,12775.000
504.318,12668.000,12698.000,12795.000
506.088,12737.000,12775.000,12760.000
507.857,12533.000,12746.000,12670.000
509.626,12690.000,12686.000,12825.000
511.394,12639.000,12663.000,12674.000
513.161,12583.000,12688.000,12578.000
514.929,12641.000,12551.000,12590.000
516.695,12634.000,12682.000,12542.000
518.461,12538.000,12535.000,12531.000
520.227,12574.000,12573.000,12514.000
521.991,12385.000,12531.000,12523.000
523.755,12516.000,12616.000,12480.000
525.519,12552.000,12600.000,12577.000
527.283,12516.000,12544.000,12371.000
529.046,12546.000,12464.000,12469.000
530.809,12395.000,12540.000,12560.000
532.571,12426.000,12568.000,12346.000
534.333,12446.000,12295.000,12482.000
536.093,12376.000,12444.000,12433.000
537.853,12408.000,12415.000,12305.000
539.613,12416.000,12365.000,12358.000
541.372,12322.000,12392.000,12301.000
543.131,12264.000,12255.000,12312.000
544.889,12290.000,12434.000,12356.000
546.647,12335.000,12331.000,12436.000
548.405,12355.000,12343.000,12410.000
550.162,12413.000,12362.000,12328.000
551.918,12330.000,12394.000,12373.000
553.674,12404.000,12455.000,12372.000
555.429,12301.000,12404.000,12424.000
557.184,12359.000,12358.000,12395.000
558.938,12304.000,12470.000,12443.000
560.691,12279.000,12437.000,12311.000
562.445,12345.000,12388.000,12310.000
564.198,12507.000,12341.000,12404.000
565.950,12426.000,12358.000,12357.000
567.702,12338.000,12291.000,12410.000
569.453,12288.000,12383.000,12428.000
571.204,12371.000,12438.000,12409.000
572.953,12311.000,12326.000,12375.000
574.703,12374.000,12379.000,12245.000
576.453,12580.000,12348.000,12336.000
578.201,12298.000,12330.000,12251.000
579.950,12362.000,12345.000,12311.000
581.697,12241.000,12336.000,12369.000
583.445,12217.000,12158.000,12266.000
585.191,12200.000,12209.000,12278.000
586.937,12070.000,12205.000,12231.000
588.683,12179.000,12271.000,12310.000
590.429,12179.000,12285.000,12247.000
592.174,12013.000,12097.000,12194.000
593.917,12145.000,12253.000,12224.000
595.661,12139.000,12044.000,12089.000
597.404,12167.000,11997.000,12004.000
599.147,12100.000,11976.000,12027.000
600.890,11974.000,12045.000,12043.000
602.632,12090.000,11923.000,11932.000
604.374,11959.000,11953.000,11940.000
606.114,11958.000,11931.000,12009.000
607.855,11944.000,11985.000,12033.000
609.594,11967.000,11917.000,11992.000
611.333,11868.000,11911.000,11957.000
613.072,11835.000,12008.000,11892.000
614.811,11940.000,11957.000,12002.000
616.547,11763.000,11915.000,11916.000
618.286,11880.000,11962.000,11848.000
620.022,11858.000,11772.000,11760.000
621.758,11870.000,11760.000,11853.000
623.494,11763.000,11836.000,11912.000
625.230,11827.000,11781.000,11873.000
626.964,11673.000,11690.000,11811.000
628.698,11852.000,11756.000,11657.000
630.432,11612.000,11704.000,11809.000
632.166,11742.000,11843.000,11769.000
633.898,11633.000,11818.000,11733.000
635.630,11671.000,11691.000,11713.000
637.363,11587.000,11685.000,11649.000
639.094,11528.000,11637.000,11570.000
640.825,11629.000,11629.000,11629.000
642.555,11606.000,11617.000,11666.000
644.285,11550.000,11602.000,11652.000
646.013,11674.000,11598.000,11668.000
647.742,11560.000,11572.000,11704.000
649.471,11525.000,11612.000,11611.000
651.198,11587.000,11546.000,11691.000
652.926,11622.000,11376.000,11570.000
654.653,11538.000,11515.000,11554.000
656.379,11483.000,11598.000,11548.000
658.105,11675.000,11590.000,11546.000
659.831,11489.000,11411.000,11539.000
661.555,11443.000,11433.000,11473.000
663.280,11448.000,11554.000,11395.000
665.003,11395.000,11496.000,11461.000
666.727,11408.000,11493.000,11424.000
668.450,11403.000,11379.000,11517.000
670.173,11398.000,11386.000,11343.000
671.895,11387.000,11420.000,11332.000
673.617,11269.000,11420.000,11435.000
675.337,11348.000,11437.000,11393.000
677.058,11283.000,11368.000,11418.000
678.777,11337.000,11277.000,11451.000
680.497,11299.000,11231.000,11390.000
682.216,11231.000,11417.000,11297.000
683.934,11284.000,11263.000,11297.000
685.653,11277.000,11283.000,11303.000
687.370,11337.000,11278.000,11346.000
689.087,11226.000,11298.000,11337.000
690.804,11239.000,11282.000,11395.000
692.520,11237.000,11288.000,11277.000
694.235,11219.000,11285.000,11240.000
695.951,11239.000,11304.000,11308.000
697.664,11270.000,11201.000,11322.000
699.379,11233.000,11200.000,11264.000
701.093,11234.000,11117.000,11162.000
702.805,11168.000,11143.000,11272.000
704.518,11130.000,11177.000,11193.000
706.230,11087.000,11112.000,11208.000
707.943,11107.000,11071.000,11206.000
709.653,11005.000,11209.000,11285.000
711.364,11173.000,11037.000,11099.000
713.074,11116.000,11050.000,11054.000
714.785,10989.000,11013.000,11101.000
716.493,11120.000,11033.000,11072.000
718.202,10944.000,11003.000,11047.000
719.910,11008.000,11027.000,10994.000
721.618,11005.000,11114.000,10925.000
723.326,10991.000,11012.000,11083.000
725.033,11034.000,11139.000,11015.000
726.738,10984.000,10904.000,10991.000
728.445,10951.000,11026.000,10989.000
730.150,11036.000,10940.000,11016.000
731.854,10973.000,11003.000,11046.000
733.559,10870.000,10927.000,10882.000
735.263,10885.000,10890.000,10966.000
736.966,10869.000,10980.000,10925.000
738.671,10825.000,10866.000,10871.000
740.373,10857.000,10845.000,10897.000
742.075,10855.000,10840.000,10971.000
743.777,10847.000,10849.000,10939.000
745.477,10855.000,10979.000,10868.000
747.177,10811.000,10986.000,10817.000
748.878,10845.000,10859.000,10912.000
750.578,10757.000,10860.000,10916.000
752.276,10804.000,10827.000,10879.000
753.975,10828.000,10824.000,10679.000
755.673,10781.000,10863.000,10842.000
757.370,10855.000,10830.000,10838.000
759.068,10828.000,10748.000,10799.000
760.765,10759.000,10799.000,10784.000
762.461,10760.000,10774.000,10858.000
764.156,10804.000,10811.000,10794.000
765.851,10712.000,10695.000,10883.000
767.546,10824.000,10792.000,10771.000
769.241,10735.000,10727.000,10726.000
770.935,10784.000,10882.000,10805.000
772.628,10728.000,10838.000,10813.000
774.320,10804.000,10766.000,10756.000
776.013,10734.000,10651.000,10748.000
777.705,10708.000,10682.000,10816.000
779.396,10813.000,10755.000,10742.000
781.088,10652.000,10663.000,10814.000
782.778,10724.000,10608.000,10684.000
784.467,10737.000,10830.000,10666.000
786.158,10611.000,10762.000,10681.000
787.847,10665.000,10557.000,10669.000
789.535,10605.000,10680.000,10682.000
791.223,10640.000,10517.000,10709.000
792.911,10607.000,10663.000,10582.000
794.598,10585.000,10670.000,10711.000
796.285,10662.000,10663.000,10591.000
797.970,10651.000,10616.000,10536.000
799.656,10434.000,10601.000,10660.000
801.343,10529.000,10523.000,10570.000
803.027,10431.000,10541.000,10615.000
804.712,10546.000,10582.000,10456.000
806.395,10447.000,10479.000,10403.000
808.079,10598.000,10527.000,10650.000
809.761,10411.000,10371.000,10531.000
811.444,10516.000,10586.000,10480.000
813.125,10491.000,10517.000,10464.000
814.807,10395.000,10461.000,10471.000
816.488,10398.000,10420.000,10415.000
818.168,10363.000,10520.000,10431.000
819.848,10360.000,10408.000,10334.000
821.528,10435.000,10426.000,10374.000
823.207,10396.000,10346.000,10367.000
824.885,10370.000,10308.000,10457.000
826.564,10334.000,10440.000,10339.000
828.242,10365.000,10233.000,10245.000
829.918,10262.000,10209.000,10198.000
831.596,10197.000,10273.000,10237.000
833.272,10228.000,10275.000,10234.000
834.947,10161.000,10229.000,10273.000
836.622,10158.000,10298.000,10262.000
838.298,10116.000,10209.000,10199.000
839.972,10065.000,10140.000,10148.000
841.646,10090.000,10162.000,10059.000
843.319,10161.000,10119.000,10095.000
844.992,10044.000,10058.000,10166.000
846.664,10023.000,10107.000,10114.000
848.336,10102.000,10119.000,10041.000
850.008,10055.000,10020.000,10096.000
851.678,9922.000,9950.000,10021.000
853.350,9880.000,9958.000,10110.000
855.020,9952.000,10006.000,9934.000
856.689,10034.000,9987.000,9922.000
858.358,9946.000,9953.000,9936.000
860.028,9883.000,9905.000,9910.000
861.696,9941.000,9770.000,9867.000
863.363,9841.000,9811.000,9753.000
865.030,9730.000,9881.000,9882.000
866.697,9791.000,9811.000,9916.000
868.364,9802.000,9862.000,9844.000
870.030,9820.000,9910.000,9795.000
871.696,9866.000,9817.000,9798.000
873.361,9761.000,9826.000,9781.000
875.026,9745.000,9820.000,9784.000
876.689,9818.000,9861.000,9854.000
878.353,9779.000,9818.000,9666.000
880.016,9839.000,9756.000,9850.000
881.679,9777.000,9736.000,9796.000
883.341,9702.000,9639.000,9764.000
885.002,9675.000,9669.000,9754.000
886.664,9811.000,9716.000,9744.000
888.325,9687.000,9690.000,9739.000
889.985,9656.000,9737.000,9784.000
891.645,9568.000,9580.000,9730.000
893.304,9604.000,9652.000,9716.000
894.963,9624.000,9720.000,9695.000
896.622,9645.000,9609.000,9679.000
898.280,9548.000,9694.000,9621.000
899.937,9504.000,9575.000,9570.000
901.594,9584.000,9558.000,9541.000
903.252,9643.000,9642.000,9611.000
904.907,9502.000,9623.000,9569.000
906.562,9514.000,9496.000,9608.000
908.218,9591.000,9609.000,9616.000
909.873,9647.000,9560.000,9621.000
911.528,9573.000,9571.000,9669.000
913.181,9523.000,9611.000,9634.000
914.835,9474.000,9594.000,9626.000
916.487,9647.000,9571.000,9562.000
918.140,9503.000,9513.000,9552.000
919.792,9574.000,9580.000,9608.000
921.443,9559.000,9572.000,9604.000
923.095,9495.000,9657.000,9647.000
924.745,9519.000,9527.000,9546.000
926.395,9620.000,9485.000,9510.000
928.045,9563.000,9567.000,9553.000
929.694,9558.000,9486.000,9530.000
931.343,9598.000,9447.000,9611.000
932.992,9579.000,9590.000,9479.000
934.640,9431.000,9563.000,9499.000
936.287,9492.000,9553.000,9552.000
937.934,9576.000,9523.000,9493.000
939.580,9538.000,9650.000,9616.000
941.226,9548.000,9503.000,9564.000
942.872,9538.000,9631.000,9444.000
944.517,9504.000,9605.000,9490.000
946.162,9520.000,9635.000,9559.000
947.806,9583.000,9536.000,9441.000
949.450,9624.000,9481.000,9575.000
951.092,9463.000,9644.000,9612.000
952.736,9542.000,9561.000,9538.000
954.378,9475.000,9559.000,9547.000
956.020,9550.000,9461.000,9540.000
957.662,9544.000,9542.000,9526.000
959.302,9374.000,9556.000,9519.000
960.942,9443.000,9604.000,9540.000
962.583,9637.000,9588.000,9490.000
964.223,9502.000,9539.000,9586.000
965.862,9534.000,9531.000,9550.000
967.500,9461.000,9580.000,9523.000
969.139,9442.000,9622.000,9599.000
970.776,9534.000,9450.000,9510.000
972.414,9500.000,9489.000,9499.000
974.051,9520.000,9494.000,9610.000
975.688,9510.000,9485.000,9545.000
977.323,9523.000,9511.000,9505.000
978.959,9355.000,9407.000,9563.000
980.593,9487.000,9538.000,9465.000
982.228,9560.000,9519.000,9468.000
983.862,9525.000,9533.000,9537.000
985.496,9491.000,9472.000,9455.000
987.129,9514.000,9550.000,9533.000
988.762,9567.000,9527.000,9544.000
990.394,9519.000,9539.000,9552.000
992.026,9492.000,9540.000,9468.000
993.657,9531.000,9491.000,9547.000
995.288,9569.000,9484.000,9542.000
996.919,9527.000,9481.000,9522.000
998.549,9395.000,9504.000,9577.000
1000.180,9610.000,9476.000,9620.000
1001.809,9514.000,9513.000,9483.000
1003.437,9484.000,9535.000,9475.000
1005.066,9507.000,9457.000,9533.000
1006.694,9492.000,9482.000,9519.000
1008.321,9526.000,9585.000,9551.000
1009.949,9519.000,9598.000,9558.000
1011.575,9567.000,9547.000,9522.000
1013.200,9623.000,9555.000,9598.000
1014.826,9539.000,9581.000,9542.000
1016.452,9436.000,9469.000,9513.000
1018.076,9393.000,9505.000,9511.000
1019.701,9541.000,9420.000,9585.000
1021.324,9528.000,9556.000,9510.000
1022.948,9574.000,9645.000,9540.000
1024.570,9542.000,9510.000,9592.000
1026.192,9537.000,9584.000,9608.000
1027.815,9527.000,9577.000,9532.000
1029.437,9574.000,9539.000,9673.000
1031.057,9546.000,9585.000,9583.000
1032.678,9529.000,9544.000,9563.000
1034.298,9594.000,9609.000,9590.000
1035.917,9658.000,9624.000,9654.000
1037.537,9602.000,9494.000,9619.000
1039.156,9603.000,9626.000,9659.000
1040.774,9607.000,9627.000,9719.000
1042.392,9593.000,9687.000,9665.000
1044.009,9727.000,9584.000,9624.000
1045.626,9701.000,9735.000,9641.000
1047.243,9788.000,9754.000,9698.000
1048.859,9612.000,9723.000,9598.000
1050.475,9691.000,9674.000,9849.000
1052.090,9690.000,9759.000,9723.000
1053.706,9806.000,9763.000,9807.000
1055.319,9754.000,9613.000,9739.000
1056.934,9882.000,9767.000,9778.000
1058.547,9689.000,9860.000,9776.000
1060.161,9736.000,9714.000,9824.000
1061.773,9840.000,9843.000,9794.000
1063.386,9815.000,9815.000,9902.000
1064.997,9941.000,9921.000,9955.000
1066.608,9759.000,9851.000,9880.000
1068.219,9817.000,9890.000,9915.000
1069.829,10002.000,9938.000,9969.000
1071.439,10049.000,9885.000,9983.000
1073.049,10067.000,9952.000,10115.000
1074.658,10061.000,10084.000,10113.000
1076.267,10040.000,10068.000,10123.000
1077.875,10144.000,10122.000,10053.000
1079.482,10129.000,10213.000,10201.000
1081.090,10125.000,10211.000,10046.000
1082.697,10041.000,10219.000,10151.000
1084.303,10078.000,10160.000,10205.000
1085.908,10293.000,10106.000,10147.000
1087.514,10121.000,10187.000,10250.000
1089.119,10283.000,10206.000,10265.000
1090.725,10200.000,10186.000,10232.000
1092.329,10299.000,10352.000,10407.000
1093.932,10286.000,10321.000,10306.000
1095.535,10294.000,10330.000,10414.000
1097.138,10279.000,10302.000,10329.000
1098.741,10408.000,10402.000,10303.000
1100.343,10374.000,10409.000,10365.000
1101.943,10476.000,10467.000,10445.000
1103.545,10467.000,10504.000,10512.000
1105.146,10439.000,10490.000,10491.000
1106.746,10579.000,10561.000,10654.000
1108.345,10655.000,10508.000,10578.000
1109.945,10575.000,10648.000,10556.000
1111.544,10608.000,10583.000,10572.000
1113.143,10521.000,10589.000,10595.000
1114.740,10623.000,10570.000,10599.000
1116.338,10589.000,10650.000,10613.000
1117.935,10498.000,10610.000,10562.000
1119.531,10684.000,10553.000,10650.000
1121.128,10741.000,10658.000,10620.000
1122.724,10734.000,10594.000,10674.000
1124.320,10747.000,10704.000,10590.000
1125.915,10671.000,10714.000,10662.000
1127.508,10690.000,10758.000,10677.000
1129.103,10682.000,10761.000,10649.000
1130.697,10596.000,10757.000,10705.000
1132.291,10682.000,10635.000,10762.000
1133.883,10676.000,13402.000,10766.000
1135.476,10730.000,10790.000,10766.000
1137.067,10781.000,10761.000,10812.000
1138.659,10781.000,10839.000,10777.000
1140.250,10749.000,10797.000,10678.000
1141.840,10831.000,10766.000,10806.000
1143.430,10820.000,10796.000,10948.000
1145.021,10829.000,10810.000,10841.000
1146.610,10778.000,10787.000,10817.000
1148.199,10827.000,10861.000,10829.000
1149.787,10769.000,10914.000,10850.000
1151.375,10926.000,10816.000,10908.000
1152.962,10851.000,10831.000,10866.000
1154.549,10776.000,10732.000,10788.000
1156.136,10819.000,10938.000,10903.000
1157.723,10917.000,10975.000,10890.000
1159.308,10949.000,10869.000,10914.000
1160.894,10959.000,10972.000,10926.000
1162.478,11027.000,11101.000,11014.000
1164.063,10982.000,10972.000,10971.000
1165.647,11092.000,11000.000,10985.000
1167.230,11033.000,11060.000,11181.000
1168.814,11088.000,11107.000,10957.000
1170.397,11135.000,11143.000,11138.000
1171.979,11071.000,11102.000,11115.000
1173.561,11047.000,11118.000,11024.000
1175.142,11050.000,11117.000,11227.000
1176.723,11099.000,11095.000,11193.000
1178.304,11083.000,11211.000,11296.000
1179.884,11086.000,11177.000,11234.000
1181.463,11320.000,11285.000,11326.000
1183.043,11301.000,11270.000,11322.000
1184.623,11385.000,11277.000,11246.000
1186.201,11310.000,11263.000,11315.000
1187.779,11290.000,11462.000,11312.000
1189.356,11368.000,11411.000,11328.000
1190.934,11423.000,11402.000,11387.000
1192.511,11485.000,11493.000,11434.000
1194.087,11518.000,11473.000,11420.000
1195.662,11587.000,11432.000,11470.000
1197.239,11544.000,11547.000,11656.000
1198.814,11499.000,11575.000,11489.000
1200.388,11352.000,11471.000,11602.000
1201.962,11550.000,11660.000,11507.000
1203.536,11504.000,11598.000,11558.000
1205.110,11590.000,11592.000,11505.000
1206.682,11523.000,11492.000,11619.000
1208.254,11538.000,11644.000,11656.000
1209.827,11600.000,11619.000,11583.000
1211.398,11695.000,11739.000,11774.000
1212.969,11824.000,11703.000,11814.000
1214.540,11778.000,11697.000,11641.000
1216.110,11855.000,11781.000,11867.000
1217.680,11871.000,11904.000,11863.000
1219.249,11884.000,12027.000,11855.000
1220.819,11781.000,11950.000,11864.000
1222.387,11990.000,11993.000,11901.000
1223.955,12057.000,11923.000,12042.000
1225.523,12064.000,12077.000,11972.000
1227.090,12015.000,11990.000,11942.000
1228.657,12056.000,12043.000,12029.000
1230.224,12125.000,12025.000,12024.000
1231.790,11974.000,11921.000,11916.000
1233.355,11947.000,11980.000,12096.000
1234.920,11883.000,12083.000,12014.000
1236.485,11953.000,12076.000,12109.000
1238.049,12004.000,12033.000,12128.000
1239.614,12115.000,12123.000,12113.000
1241.177,12104.000,12114.000,12132.000
1242.740,12149.000,12157.000,12180.000
1244.303,12248.000,12214.000,12219.000
1245.864,12190.000,12270.000,12275.000
1247.427,12179.000,12241.000,12267.000
1248.988,12350.000,12328.000,12295.000
1250.549,12267.000,12366.000,12423.000
1252.110,12414.000,12419.000,12458.000
1253.670,12345.000,12314.000,12499.000
1255.230,12408.000,12511.000,12496.000
1256.789,12446.000,12451.000,12537.000
1258.349,12404.000,12516.000,12532.000
1259.906,12310.000,12565.000,12551.000
1261.464,12507.000,12548.000,12507.000
1263.022,12465.000,12462.000,12534.000
1264.579,12531.000,12561.000,12611.000
1266.136,12598.000,12515.000,12487.000
1267.692,12559.000,12492.000,12552.000
1269.247,12661.000,12601.000,12642.000
1270.804,12662.000,12729.000,12669.000
1272.358,12755.000,12702.000,12695.000
1273.913,12818.000,12649.000,12748.000
1275.467,12708.000,12714.000,12713.000
1277.020,12680.000,12774.000,12687.000
1278.575,12708.000,12711.000,12681.000
1280.128,12741.000,12728.000,12749.000
1281.679,12650.000,12800.000,12800.000
1283.232,12763.000,12739.000,12791.000
1284.783,12785.000,12908.000,12903.000
1286.335,12853.000,12885.000,12848.000
1287.886,12961.000,12985.000,12893.000
1289.436,12890.000,12938.000,13045.000
1290.986,12969.000,13082.000,13015.000
1292.535,13077.000,13020.000,13082.000
1294.085,13165.000,13154.000,13135.000
1295.633,13139.000,13162.000,13208.000
1297.181,13246.000,13246.000,13277.000
1298.730,13307.000,13333.000,13366.000
1300.277,13415.000,13357.000,13322.000
1301.824,13452.000,13410.000,13373.000
1303.371,13434.000,13496.000,13454.000
1304.917,13538.000,13559.000,13491.000
1306.463,13523.000,13703.000,13668.000
1308.009,13671.000,13551.000,13742.000
1309.554,13776.000,13785.000,13836.000
1311.099,13822.000,13719.000,13756.000
1312.642,13852.000,13925.000,13841.000
1314.186,13878.000,13996.000,13936.000
1315.730,14065.000,14060.000,14082.000
1317.272,14126.000,14147.000,14145.000
1318.815,14235.000,14320.000,14245.000
1320.357,14419.000,14511.000,14490.000
1321.899,14542.000,14628.000,14831.000
1323.440,14777.000,14803.000,14729.000
1324.980,14906.000,14998.000,15076.000
1326.521,15019.000,15192.000,15100.000
1328.062,15242.000,15278.000,15309.000
1329.601,15317.000,15432.000,15392.000
1331.140,15626.000,15540.000,15663.000
1332.679,15589.000,15587.000,15761.000
1334.216,15801.000,15839.000,15829.000
1335.754,15935.000,15963.000,15985.000
1337.292,16135.000,16291.000,16176.000
1338.829,16284.000,16378.000,16273.000
1340.366,16415.000,16619.000,16682.000
1341.902,16647.000,16636.000,16792.000
1343.438,16975.000,16762.000,16807.000
1344.973,16828.000,16805.000,16931.000
1346.509,17233.000,17186.000,17188.000
1348.043,17298.000,17305.000,17360.000
1349.577,17571.000,17506.000,17554.000
1351.111,17615.000,17699.000,17715.000
1352.644,17713.000,17816.000,17827.000
1354.177,17970.000,17921.000,17943.000
1355.710,17885.000,18320.000,18123.000
1357.242,18256.000,18185.000,18184.000
1358.773,18322.000,18481.000,18448.000
1360.305,18556.000,18516.000,18371.000
1361.836,18686.000,18654.000,18606.000
1363.366,18607.000,18760.000,18777.000
1364.897,18845.000,18886.000,18868.000
1366.426,18964.000,19034.000,18782.000
1367.955,18996.000,19228.000,18947.000
1369.484,19105.000,19134.000,19109.000
1371.012,19101.000,19265.000,19210.000
1372.540,19119.000,19400.000,19474.000
1374.068,19339.000,19492.000,19560.000
1375.596,19550.000,19539.000,19646.000
1377.123,19794.000,19505.000,19686.000
1378.649,19629.000,19837.000,19604.000
1380.175,19640.000,19756.000,19816.000
1381.701,19776.000,19791.000,19792.000
1383.226,19782.000,19839.000,19998.000
1384.750,19691.000,19686.000,19736.000
1386.275,19832.000,19861.000,19924.000
1387.799,19795.000,19819.000,19769.000
1389.323,19614.000,19753.000,19725.000
1390.846,19540.000,19764.000,19672.000
1392.368,19771.000,19504.000,19915.000
1393.890,19720.000,19664.000,19726.000
1395.413,19713.000,19490.000,19646.000
1396.934,19556.000,19520.000,19549.000
1398.454,19505.000,19388.000,19581.000
1399.975,19570.000,19558.000,19518.000
1401.495,19566.000,19528.000,19580.000
1403.016,19607.000,19648.000,19511.000
1404.535,19428.000,19577.000,19528.000
1406.054,19533.000,19700.000,19676.000
1407.572,19365.000,19433.000,19638.000
1409.090,19424.000,19525.000,19626.000
1410.608,19608.000,19518.000,19443.000
1412.126,19370.000,19366.000,19345.000
1413.643,19385.000,19345.000,19159.000
1415.160,19209.000,19195.000,19227.000
1416.676,19022.000,19158.000,18903.000
1418.192,18965.000,18757.000,18935.000
1419.707,18603.000,18726.000,18808.000
1421.222,18525.000,18578.000,18672.000
1422.736,18454.000,18382.000,18526.000
1424.251,18410.000,18261.000,18390.000
1425.764,18244.000,18337.000,18346.000
1427.279,18203.000,18435.000,18105.000
1428.791,17928.000,18159.000,17919.000
1430.303,17929.000,18035.000,18055.000
1431.816,17957.000,17914.000,17805.000
1433.328,17810.000,17774.000,17888.000
1434.839,17774.000,17805.000,17851.000
1436.350,17775.000,17637.000,17689.000
1437.861,17726.000,17514.000,17719.000
1439.371,17610.000,17618.000,17668.000
1440.881,17563.000,17506.000,17552.000
1442.390,17373.000,17328.000,17570.000
1443.898,17396.000,17499.000,17477.000
1445.407,17287.000,17472.000,17335.000
1446.915,17247.000,17284.000,17359.000
1448.423,17229.000,17201.000,17211.000
1449.930,17090.000,17156.000,17170.000
1451.437,16829.000,16924.000,16860.000
1452.944,16802.000,16932.000,16854.000
1454.450,16539.000,16835.000,16690.000
1455.955,16478.000,16511.000,16625.000
1457.461,16408.000,16405.000,16485.000
1458.966,16233.000,16241.000,16334.000
1460.470,16230.000,16254.000,16302.000
1461.974,16123.000,16188.000,16097.000
1463.478,15944.000,15996.000,15907.000
1464.981,15851.000,15856.000,15882.000
1466.484,15631.000,15812.000,15733.000
1467.987,15733.000,15685.000,15854.000
1469.489,15646.000,15682.000,15766.000
1470.991,15679.000,15648.000,15765.000
1472.491,15493.000,15590.000,15701.000
1473.993,15534.000,15474.000,15537.000
1475.493,15521.000,15483.000,15461.000
1476.993,15227.000,15342.000,15422.000
1478.492,15225.000,15306.000,15354.000
1479.992,15208.000,15317.000,15186.000
1481.491,15065.000,14946.000,15037.000
1482.989,14992.000,15033.000,14906.000
1484.488,14947.000,14859.000,14832.000
1485.985,14911.000,14941.000,14962.000
1487.482,14760.000,14877.000,14836.000
1488.979,14783.000,14768.000,14749.000
1490.476,14593.000,14465.000,14618.000
1491.972,14353.000,14451.000,14510.000
1493.468,14331.000,14450.000,14299.000
1494.964,14208.000,14346.000,14185.000
1496.459,14161.000,14295.000,14277.000
1497.953,14051.000,14046.000,14120.000
1499.447,14028.000,14056.000,13952.000
1500.941,13736.000,14067.000,13960.000
1502.434,13949.000,13944.000,14096.000
1503.928,13806.000,13745.000,13790.000
1505.420,13759.000,13789.000,13829.000
1506.912,13552.000,13591.000,13723.000
1508.404,13694.000,13627.000,13735.000
1509.895,13555.000,13520.000,13582.000
1511.387,13505.000,13569.000,13600.000
1512.877,13479.000,13528.000,13530.000
1514.367,13561.000,13549.000,13478.000
1515.857,13498.000,13513.000,13382.000
1517.346,13233.000,13323.000,13195.000
1518.835,13302.000,13322.000,13165.000
1520.324,13142.000,13116.000,13123.000
1521.812,13017.000,13114.000,13070.000
1523.299,13001.000,12927.000,12929.000
1524.787,12904.000,13047.000,13032.000
1526.274,12901.000,13089.000,12915.000
1527.760,12886.000,12856.000,12894.000
1529.247,12832.000,12865.000,12813.000
1530.733,12764.000,12739.000,12767.000
1532.218,12781.000,12673.000,12694.000
1533.703,12625.000,12574.000,12521.000
1535.188,12552.000,12540.000,12525.000
1536.672,12469.000,12539.000,12630.000
1538.156,12465.000,12352.000,12464.000
1539.639,12324.000,12332.000,12379.000
1541.123,12376.000,12367.000,12380.000
1542.605,12319.000,12257.000,12347.000
1544.088,12315.000,12290.000,12297.000
1545.570,12336.000,12179.000,12237.000
1547.052,12212.000,12269.000,12277.000
1548.532,12164.000,12176.000,12243.000
1550.013,12140.000,12006.000,12170.000
1551.494,12100.000,11878.000,12009.000
1552.974,12004.000,12055.000,12016.000
1554.453,11913.000,11982.000,11999.000
1555.932,11984.000,11955.000,11926.000
1557.411,11814.000,11950.000,11692.000
1558.890,11742.000,11744.000,11803.000
1560.367,11658.000,11712.000,11740.000
1561.846,11671.000,11678.000,11754.000
1563.322,11660.000,11777.000,11560.000
1564.799,11594.000,11503.000,11614.000
1566.275,11628.000,11590.000,11553.000
1567.751,11432.000,11558.000,11654.000
1569.228,11529.000,11422.000,11607.000
1570.703,11434.000,11531.000,11395.000
1572.178,11478.000,11430.000,11430.000
1573.651,11393.000,11491.000,11340.000
1575.126,11297.000,11289.000,11404.000
1576.600,11278.000,11343.000,11361.000
1578.073,11336.000,11227.000,11295.000
1579.545,11167.000,11109.000,11174.000
1581.018,11147.000,11218.000,11094.000
1582.491,11094.000,11132.000,11064.000
1583.962,10918.000,10944.000,10955.000
1585.434,10894.000,10913.000,10976.000
1586.905,10893.000,10863.000,10770.000
1588.376,10883.000,10788.000,10801.000
1589.846,10702.000,10726.000,10817.000
1591.315,10625.000,10715.000,10767.000
1592.785,10689.000,10652.000,10661.000
1594.253,10618.000,10636.000,10712.000
1595.723,10568.000,10609.000,10640.000
1597.191,10539.000,10502.000,10542.000
1598.659,10560.000,10604.000,10448.000
1600.127,10578.000,10377.000,10420.000
1601.593,10442.000,10431.000,10441.000
1603.060,10398.000,10502.000,10445.000
1604.527,10416.000,10398.000,10421.000
1605.993,10336.000,10378.000,10256.000
1607.458,10395.000,10346.000,10398.000
1608.923,10355.000,10368.000,10286.000
1610.389,10213.000,10291.000,10255.000
1611.853,10109.000,10247.000,10260.000
1613.318,10138.000,10178.000,10231.000
1614.781,10036.000,10043.000,10104.000
1616.244,10029.000,9971.000,10010.000
1617.708,9904.000,9920.000,9902.000
1619.170,9932.000,9968.000,9938.000
1620.632,9882.000,9809.000,9861.000
1622.093,9741.000,9742.000,9796.000
1623.555,9670.000,9747.000,9646.000
1625.016,9708.000,9649.000,9743.000
1626.476,9626.000,9649.000,9551.000
1627.937,9533.000,9652.000,9659.000
1629.397,9518.000,9470.000,9464.000
1630.856,9488.000,9523.000,9595.000
1632.315,9449.000,9501.000,9495.000
1633.774,9399.000,9426.000,9463.000
1635.232,9439.000,9436.000,9388.000
1636.690,9356.000,9359.000,9366.000
1638.148,9375.000,9293.000,9377.000
1639.604,9286.000,9238.000,9228.000
1641.062,9194.000,9270.000,9303.000
1642.518,9173.000,9061.000,9255.000
1643.973,9215.000,9148.000,9186.000
1645.430,9092.000,9085.000,9164.000
1646.885,9138.000,9061.000,9122.000
1648.339,8989.000,9120.000,9091.000
1649.794,9129.000,9161.000,9063.000
1651.248,9031.000,9111.000,9041.000
1652.702,8952.000,9003.000,8948.000
1654.155,8986.000,8945.000,9001.000
1655.608,8834.000,8949.000,8933.000
1657.061,8853.000,8913.000,8793.000
1658.512,8835.000,8823.000,8894.000
1659.964,8821.000,8885.000,8805.000
1661.417,8771.000,8719.000,8767.000
1662.867,8679.000,8699.000,8702.000
1664.318,8697.000,8674.000,8665.000
1665.768,8587.000,8591.000,8626.000
1667.219,8670.000,8679.000,8672.000
1668.668,8471.000,8646.000,8526.000
1670.118,8541.000,8508.000,8595.000
1671.566,8531.000,8533.000,8473.000
1673.014,8432.000,8459.000,8467.000
1674.462,8367.000,8467.000,8463.000
1675.911,8453.000,8368.000,8420.000
1677.358,8396.000,8433.000,8343.000
1678.805,8371.000,8254.000,8325.000
1680.251,8353.000,8316.000,8272.000
1681.696,8250.000,8260.000,8313.000
1683.142,8144.000,8232.000,8245.000
1684.588,8243.000,8231.000,8252.000
1686.033,8138.000,8154.000,8222.000
1687.478,8166.000,8149.000,8035.000
1688.922,8133.000,8131.000,8122.000
1690.366,8092.000,8117.000,8229.000
1691.809,8084.000,8071.000,8155.000
1693.252,8026.000,8051.000,8053.000
1694.695,8025.000,8083.000,7979.000
1696.138,7963.000,7913.000,8012.000
1697.579,7962.000,7945.000,7959.000
1699.021,7872.000,7953.000,7878.000
1700.463,7913.000,7832.000,7921.000
1701.903,7801.000,7845.000,7847.000
1703.344,7759.000,7870.000,7742.000
1704.784,7756.000,7737.000,7789.000
1706.223,7714.000,7735.000,7731.000
1707.663,7735.000,7704.000,7658.000
1709.102,7697.000,7705.000,7636.000
1710.541,7669.000,7646.000,7739.000
1711.978,7596.000,7656.000,7660.000
1713.416,7557.000,7484.000,7566.000
1714.854,7469.000,7514.000,7570.000
1716.290,7563.000,7593.000,7574.000
1717.728,7439.000,7462.000,7545.000
1719.164,7492.000,7466.000,7477.000
1720.600,7443.000,7426.000,7473.000
1722.035,7473.000,7380.000,7424.000
1723.471,7366.000,7444.000,7474.000
1724.906,7323.000,7383.000,7397.000
1726.341,7323.000,7413.000,7396.000
1727.775,7294.000,7345.000,7303.000
1729.209,7205.000,7260.000,7320.000
1730.642,7280.000,7267.000,7269.000
1732.075,7243.000,7201.000,7161.000
1733.508,7261.000,7199.000,7176.000
1734.940,7095.000,7191.000,7268.000
1736.372,7068.000,7212.000,7207.000
1737.804,7006.000,7133.000,7090.000
1739.235,7122.000,7169.000,7096.000
1740.665,7133.000,7144.000,7064.000
1742.096,7066.000,7136.000,7041.000
1743.526,7010.000,7088.000,7137.000
1744.955,7029.000,7123.000,7043.000
1746.385,6919.000,7044.000,7125.000
1747.813,7041.000,7019.000,6996.000