File: Raman/2022_11_26_Hagfish_Film_Unstreched_532nm_DePol_6mW_750mm_600gv_1200wn_iDus_100s_10accum_Pos2.csv
282.050,1549.000,1461.000,1458.000,1392.000,1375.000,1400.000,1363.000,1327.000,1327.000,1300.000
287.700,1529.000,1468.000,1459.000,1414.000,1392.000,1379.000,1328.000,1346.000,1293.000,1291.000
293.346,1531.000,1487.000,1480.000,1438.000,1401.000,1400.000,1386.000,1343.000,1307.000,1282.000
298.991,1466.000,1432.000,1443.000,1395.000,1349.000,1393.000,1345.000,1332.000,1248.000,1274.000
304.630,1505.000,1479.000,1441.000,1393.000,1360.000,1472.000,1376.000,1326.000,1294.000,1253.000
310.266,1511.000,1471.000,1419.000,1364.000,1355.000,1332.000,1352.000,1311.000,1280.000,1246.000
315.898,1580.000,1473.000,1469.000,1400.000,1405.000,1366.000,1373.000,1352.000,1291.000,1272.000
321.527,1510.000,1464.000,1427.000,1398.000,1346.000,1340.000,1355.000,1280.000,1261.000,1270.000
327.155,1527.000,1486.000,1425.000,1427.000,1397.000,1388.000,1363.000,1342.000,1283.000,1281.000
332.777,1581.000,1490.000,1471.000,1390.000,1399.000,1353.000,1359.000,1352.000,1275.000,1263.000
338.396,1574.000,1543.000,1472.000,1447.000,1415.000,1399.000,1390.000,1346.000,1316.000,1262.000
344.011,1554.000,1494.000,1418.000,1422.000,1385.000,1356.000,1377.000,1326.000,1280.000,1270.000
349.623,1545.000,1518.000,1462.000,1425.000,1422.000,1363.000,1373.000,1326.000,1295.000,1246.000
355.233,1529.000,1472.000,1440.000,1373.000,1377.000,1352.000,1325.000,1306.000,1247.000,1261.000
360.838,1559.000,1502.000,1460.000,1408.000,1392.000,1367.000,1333.000,1287.000,1449.000,1242.000
366.440,1524.000,1466.000,1402.000,1370.000,1353.000,1373.000,1333.000,1291.000,1248.000,1248.000
372.038,1573.000,1499.000,1448.000,1431.000,1378.000,1387.000,2354.000,1345.000,1291.000,1260.000
377.633,1514.000,1486.000,1419.000,1416.000,1371.000,1337.000,1319.000,1282.000,1238.000,1207.000
383.226,1556.000,1460.000,1466.000,1409.000,1376.000,1379.000,1379.000,1311.000,1278.000,1258.000
388.815,1491.000,1469.000,1416.000,1383.000,1361.000,1357.000,1350.000,1294.000,1260.000,1248.000
394.399,1569.000,1491.000,1436.000,1423.000,1414.000,1373.000,1332.000,1315.000,1273.000,1273.000
399.980,1523.000,1494.000,1456.000,1405.000,1378.000,1355.000,1343.000,1303.000,1255.000,1246.000
405.560,1550.000,1500.000,1483.000,1413.000,1415.000,1371.000,1392.000,1323.000,1303.000,1279.000
411.135,1551.000,1492.000,1467.000,1432.000,1408.000,1345.000,1345.000,1330.000,1303.000,1268.000
416.706,1589.000,1544.000,1449.000,1451.000,1439.000,1403.000,1380.000,1317.000,1297.000,1280.000
422.274,1550.000,1539.000,1447.000,1442.000,1401.000,1417.000,1365.000,1331.000,1314.000,1279.000
427.838,1614.000,1547.000,1500.000,1456.000,1422.000,1429.000,1380.000,1375.000,1292.000,1289.000
433.401,1572.000,1532.000,1480.000,1476.000,1401.000,1372.000,1360.000,1346.000,1291.000,1236.000
438.959,1652.000,1560.000,1505.000,1491.000,1436.000,1421.000,1423.000,1340.000,1339.000,1274.000
444.513,1591.000,1552.000,1471.000,1429.000,1400.000,1407.000,1402.000,1356.000,1292.000,1288.000
450.064,1621.000,1558.000,1547.000,1464.000,1444.000,1418.000,1398.000,1353.000,1318.000,1253.000
455.611,1611.000,1544.000,1523.000,1452.000,1384.000,1423.000,1378.000,1374.000,1316.000,1261.000
461.158,1826.000,1563.000,1530.000,1460.000,1443.000,1434.000,1409.000,1359.000,1301.000,1324.000
466.698,1630.000,1514.000,1521.000,1475.000,1418.000,1397.000,1402.000,1378.000,1303.000,1300.000
472.236,1647.000,1583.000,1523.000,1488.000,1454.000,1420.000,1447.000,1386.000,1320.000,1333.000
477.770,1638.000,1566.000,1522.000,1468.000,1494.000,1437.000,1419.000,1379.000,1322.000,1280.000
483.301,1680.000,1626.000,1592.000,1513.000,1485.000,1450.000,1435.000,1421.000,1337.000,1313.000
488.830,1671.000,1584.000,1554.000,1499.000,1465.000,1483.000,1451.000,1393.000,1318.000,1293.000
494.354,1664.000,1628.000,1546.000,1507.000,1520.000,1471.000,1460.000,1379.000,1355.000,1354.000
499.875,1650.000,1608.000,1542.000,1528.000,1473.000,1468.000,1504.000,1423.000,1342.000,1334.000
505.393,1683.000,1602.000,1551.000,1507.000,1521.000,1471.000,1457.000,1407.000,1380.000,1342.000
510.907,1712.000,1600.000,1592.000,1523.000,1498.000,1468.000,1442.000,1415.000,1353.000,1331.000
516.420,1690.000,1627.000,1609.000,1511.000,1477.000,1495.000,1476.000,1408.000,1383.000,1376.000
521.927,1718.000,1620.000,1555.000,1538.000,1491.000,1471.000,1475.000,1421.000,1395.000,1336.000
527.431,1730.000,1688.000,1566.000,1541.000,1507.000,1458.000,1498.000,1434.000,1362.000,1364.000
532.932,1727.000,1662.000,1611.000,1560.000,1519.000,1490.000,1467.000,1418.000,1397.000,1380.000
538.430,1729.000,1595.000,1628.000,1553.000,1514.000,1510.000,1510.000,1465.000,1403.000,1347.000
543.926,1788.000,1680.000,1605.000,1604.000,1549.000,1533.000,1510.000,1442.000,1415.000,1347.000
549.417,1721.000,1667.000,1612.000,1570.000,1533.000,1495.000,1494.000,1435.000,1391.000,1360.000
554.904,1766.000,1656.000,1650.000,1577.000,1549.000,1533.000,1496.000,1470.000,1418.000,1369.000
560.389,1779.000,1677.000,1620.000,1551.000,1536.000,1533.000,1497.000,1465.000,1414.000,1377.000
565.870,1762.000,1679.000,1671.000,1611.000,1556.000,1537.000,1561.000,1487.000,1410.000,1503.000
571.350,1782.000,1706.000,1633.000,1600.000,1545.000,1537.000,1555.000,1480.000,1401.000,1361.000
576.824,2231.000,1727.000,1661.000,1621.000,1550.000,1517.000,1559.000,1483.000,1451.000,1393.000
582.295,1786.000,1695.000,1648.000,1594.000,1563.000,1537.000,1537.000,1465.000,1407.000,1389.000
587.763,1791.000,1711.000,1663.000,1609.000,1584.000,1601.000,1566.000,1491.000,1385.000,1400.000
593.228,1789.000,1734.000,1663.000,1600.000,1591.000,1549.000,1548.000,1473.000,1406.000,1390.000
598.691,1812.000,1749.000,1667.000,1625.000,1622.000,1596.000,1552.000,1531.000,1440.000,1418.000
604.149,1804.000,1720.000,1650.000,1622.000,1548.000,1565.000,1580.000,1500.000,1444.000,1403.000
609.604,1845.000,1753.000,1721.000,1617.000,1595.000,1548.000,1568.000,1501.000,1456.000,1438.000
615.055,1808.000,1734.000,1688.000,1647.000,1605.000,1573.000,1563.000,1511.000,1430.000,1414.000
620.505,1955.000,1841.000,1802.000,1754.000,1685.000,1662.000,1664.000,1596.000,1517.000,1511.000
625.950,1864.000,1768.000,1731.000,1625.000,1600.000,1618.000,1573.000,1513.000,1448.000,1451.000
631.392,1866.000,1788.000,1699.000,1694.000,1660.000,1630.000,1598.000,1522.000,1448.000,1462.000
636.831,1892.000,1794.000,1758.000,1676.000,1642.000,1635.000,1630.000,1575.000,1463.000,1484.000
642.266,2040.000,1905.000,1891.000,1811.000,1737.000,1749.000,1729.000,1640.000,1615.000,1563.000
647.700,1892.000,1813.000,1743.000,1712.000,1627.000,1624.000,1660.000,1579.000,1529.000,1456.000
653.128,1895.000,1804.000,1745.000,1685.000,1688.000,1648.000,1632.000,1561.000,1497.000,1487.000
658.554,1877.000,1803.000,1788.000,1724.000,1679.000,1644.000,1609.000,1589.000,1507.000,1455.000
663.976,1920.000,1857.000,1776.000,1688.000,1661.000,1633.000,1674.000,1546.000,1524.000,1468.000
669.395,1895.000,1845.000,1768.000,1677.000,1688.000,1636.000,1658.000,1557.000,1476.000,1434.000
674.813,1915.000,1793.000,1779.000,1716.000,1658.000,1662.000,1649.000,1583.000,1518.000,1443.000
680.225,1944.000,1844.000,1772.000,1710.000,1679.000,1618.000,1628.000,1551.000,1494.000,1481.000
685.634,1932.000,1847.000,1755.000,1708.000,1665.000,1655.000,1631.000,1590.000,1494.000,1470.000
691.040,1938.000,1890.000,1827.000,1669.000,1689.000,1648.000,1678.000,1555.000,1523.000,1496.000
696.443,1914.000,1844.000,1796.000,1709.000,1667.000,1662.000,1638.000,1579.000,1504.000,1458.000
701.845,1963.000,1851.000,1823.000,1741.000,1699.000,1652.000,1656.000,1603.000,1553.000,1471.000
707.241,1967.000,1879.000,1811.000,1812.000,1677.000,1681.000,1693.000,1598.000,1496.000,1489.000
712.634,1999.000,1894.000,1823.000,1792.000,1754.000,1680.000,1706.000,1632.000,1565.000,1509.000
718.024,1998.000,1876.000,1838.000,1749.000,1752.000,1716.000,1725.000,1575.000,1544.000,1501.000
723.411,2021.000,1922.000,1881.000,1795.000,1741.000,1730.000,1698.000,1707.000,1562.000,1549.000
728.796,1941.000,1847.000,1806.000,1751.000,1687.000,1690.000,1694.000,1616.000,1569.000,1529.000
734.177,2015.000,1905.000,1811.000,1782.000,1773.000,1697.000,1715.000,1603.000,1555.000,1558.000
739.554,1992.000,1900.000,1896.000,1767.000,1715.000,1676.000,1683.000,1632.000,1538.000,1529.000
744.928,1986.000,1972.000,1842.000,1828.000,1770.000,1715.000,1748.000,1687.000,1636.000,1555.000
750.298,2060.000,1890.000,1824.000,1803.000,1758.000,1702.000,1726.000,1683.000,1555.000,1517.000
755.668,2113.000,1924.000,1897.000,1857.000,1795.000,1742.000,1730.000,1676.000,1616.000,1574.000
761.032,2043.000,1917.000,1886.000,1828.000,1735.000,1761.000,1745.000,1667.000,1586.000,1545.000
766.393,2018.000,1963.000,1911.000,1830.000,1785.000,1733.000,1760.000,1677.000,1615.000,1574.000
771.751,2104.000,1967.000,1928.000,1832.000,1812.000,1782.000,1758.000,1648.000,1568.000,1554.000
777.106,2056.000,1969.000,1861.000,1825.000,1759.000,1744.000,1685.000,1661.000,1593.000,1577.000
782.459,2095.000,2006.000,1886.000,1763.000,1808.000,1769.000,1688.000,1651.000,1603.000,1578.000
787.808,2068.000,1916.000,1886.000,1807.000,1768.000,1778.000,1766.000,1632.000,1586.000,1566.000
793.153,2031.000,1956.000,1898.000,1832.000,1791.000,1765.000,1788.000,1649.000,1610.000,1579.000
798.495,2052.000,1948.000,1886.000,1817.000,1787.000,1728.000,1755.000,1670.000,1603.000,1573.000
803.836,2061.000,2005.000,1881.000,1854.000,1788.000,1766.000,1720.000,1669.000,1607.000,1577.000
809.171,2025.000,1972.000,1860.000,1833.000,1782.000,1760.000,1739.000,1660.000,1598.000,1549.000
814.504,2124.000,1992.000,1890.000,1842.000,1828.000,1798.000,1761.000,1684.000,1607.000,1594.000
819.833,2111.000,2020.000,1951.000,1870.000,1789.000,1765.000,1793.000,1659.000,1620.000,1577.000
825.159,2128.000,2029.000,1959.000,1878.000,1857.000,1810.000,1790.000,1709.000,1663.000,1638.000
830.484,2128.000,2008.000,1981.000,1877.000,1816.000,1764.000,1788.000,1692.000,1618.000,1597.000
835.804,2112.000,2014.000,1937.000,1883.000,1833.000,1815.000,1821.000,1675.000,1643.000,1572.000
841.121,2117.000,1966.000,1919.000,1846.000,1834.000,1784.000,1756.000,1738.000,1654.000,1565.000
846.435,2128.000,2038.000,1913.000,1881.000,1843.000,1825.000,1814.000,1731.000,1667.000,1590.000
851.745,2143.000,2012.000,1957.000,1868.000,1838.000,1824.000,1859.000,1690.000,1671.000,1611.000
857.054,2163.000,2030.000,1943.000,1909.000,1846.000,1823.000,1810.000,1732.000,1670.000,1643.000
862.359,2159.000,2017.000,1958.000,1877.000,1847.000,1768.000,1800.000,1732.000,1657.000,1587.000
867.660,2141.000,2020.000,1953.000,1877.000,1882.000,1783.000,1828.000,1733.000,1663.000,1605.000
872.958,2183.000,2057.000,2009.000,1922.000,1844.000,1851.000,1803.000,1753.000,1673.000,1633.000
878.252,2167.000,2069.000,2001.000,1881.000,1878.000,1848.000,1840.000,1759.000,1647.000,1616.000
883.546,2205.000,2081.000,2015.000,1948.000,1876.000,1817.000,1838.000,1748.000,1683.000,1627.000
888.835,2183.000,2064.000,2005.000,1881.000,1880.000,1809.000,1792.000,1747.000,1689.000,1651.000
894.120,2255.000,2119.000,2022.000,1932.000,1919.000,1881.000,1927.000,1764.000,1740.000,1691.000
899.402,2220.000,2043.000,2006.000,1941.000,1870.000,1876.000,1905.000,1784.000,1680.000,1650.000
904.681,2252.000,2149.000,2073.000,1966.000,1907.000,1905.000,1883.000,1848.000,1713.000,1657.000
909.959,2195.000,2106.000,2002.000,1924.000,1895.000,1896.000,1905.000,1772.000,1718.000,1668.000
915.232,2228.000,2148.000,2090.000,1987.000,1914.000,1914.000,1919.000,1808.000,1763.000,1696.000
920.502,2257.000,2163.000,2035.000,1969.000,1928.000,1909.000,1914.000,1816.000,1760.000,1684.000
925.769,2288.000,2143.000,2114.000,2031.000,1981.000,1965.000,1929.000,1828.000,1756.000,1734.000
931.033,2267.000,2146.000,2103.000,1999.000,1958.000,1885.000,1919.000,1830.000,1763.000,1716.000
936.295,2293.000,2162.000,2073.000,1985.000,1904.000,1952.000,1914.000,1850.000,1763.000,1698.000
941.552,2232.000,2154.000,2123.000,2006.000,1960.000,1941.000,1964.000,1843.000,1776.000,1690.000
946.807,2301.000,2165.000,2086.000,2035.000,1952.000,1977.000,1934.000,1802.000,1761.000,1751.000
952.058,2336.000,2213.000,2129.000,2034.000,2001.000,1917.000,2018.000,1915.000,1780.000,1752.000
957.306,2277.000,2200.000,2149.000,2055.000,1978.000,1951.000,1966.000,1829.000,1783.000,1755.000
962.553,2321.000,2187.000,2122.000,2042.000,1998.000,1957.000,1919.000,1849.000,1760.000,1721.000
967.795,2281.000,2170.000,2080.000,1978.000,1924.000,1911.000,1944.000,1827.000,1749.000,1691.000
973.034,2328.000,2171.000,2116.000,2081.000,1974.000,1897.000,1957.000,1842.000,1799.000,1748.000
978.270,2278.000,2169.000,2093.000,1982.000,1974.000,1935.000,1904.000,1860.000,1746.000,1722.000
983.503,2323.000,2231.000,2153.000,2096.000,1960.000,1979.000,1968.000,1880.000,1822.000,1769.000
988.734,2316.000,2207.000,2152.000,2020.000,1991.000,1967.000,1951.000,1861.000,1788.000,1722.000
993.961,2351.000,2207.000,2143.000,2071.000,2081.000,1974.000,1937.000,1904.000,1850.000,1803.000
999.184,2410.000,2257.000,2234.000,2098.000,2035.000,2066.000,2043.000,1899.000,1841.000,1788.000
1004.405,2375.000,2244.000,2167.000,2108.000,2101.000,2028.000,2009.000,1898.000,1822.000,1796.000
1009.622,2354.000,2272.000,2163.000,2090.000,2018.000,2018.000,2037.000,1927.000,1847.000,1791.000
1014.839,2347.000,2244.000,2169.000,2061.000,2056.000,2010.000,1968.000,1877.000,1872.000,1747.000
1020.050,2400.000,2283.000,2141.000,2102.000,2067.000,2050.000,2020.000,1929.000,1828.000,1835.000
1025.258,2399.000,2229.000,2156.000,2103.000,2090.000,2026.000,2052.000,1928.000,1873.000,1812.000
1030.463,2475.000,2267.000,2230.000,2163.000,2098.000,2049.000,2025.000,1972.000,1895.000,1841.000
1035.667,2390.000,2298.000,2228.000,2126.000,2070.000,2060.000,2062.000,1926.000,1856.000,1815.000
1040.867,2427.000,2383.000,2276.000,2207.000,2108.000,2082.000,2082.000,1997.000,1914.000,1848.000
1046.063,2428.000,2312.000,2240.000,2154.000,2108.000,2040.000,2058.000,1975.000,1884.000,1886.000
1051.256,2531.000,2345.000,2266.000,2217.000,2162.000,2155.000,2139.000,1971.000,1924.000,1806.000
1056.446,2453.000,2339.000,2263.000,2211.000,2125.000,2089.000,2117.000,1988.000,1892.000,1835.000
1061.634,2490.000,2350.000,2236.000,2204.000,2175.000,2142.000,2140.000,2027.000,1893.000,1879.000
1066.818,2552.000,2371.000,2288.000,2193.000,2145.000,2127.000,2115.000,2022.000,1920.000,1848.000
1071.999,2502.000,2397.000,2214.000,2179.000,2147.000,2136.000,2071.000,2060.000,1932.000,1870.000
1077.177,2474.000,2394.000,2297.000,2160.000,2160.000,2162.000,2145.000,2042.000,1937.000,2066.000
1082.352,2505.000,2323.000,2249.000,2154.000,2180.000,2071.000,2052.000,1988.000,1907.000,1842.000
1087.526,2537.000,2392.000,2294.000,2208.000,2142.000,2108.000,2116.000,2003.000,1929.000,1846.000
1092.694,2424.000,2351.000,2214.000,2168.000,2087.000,2126.000,2109.000,2021.000,1882.000,1843.000
1097.860,2530.000,2338.000,2250.000,2243.000,2135.000,2059.000,2105.000,2004.000,1957.000,1862.000
1103.023,2458.000,2377.000,2276.000,2164.000,2149.000,2086.000,2066.000,1935.000,1943.000,1869.000
1108.183,2545.000,2365.000,2300.000,2210.000,2152.000,2111.000,2107.000,2015.000,3354.000,1869.000
1113.341,2545.000,2393.000,2326.000,2187.000,2111.000,2108.000,2186.000,1991.000,1962.000,1869.000
1118.495,2550.000,2441.000,2368.000,2248.000,2208.000,2163.000,2189.000,2032.000,1995.000,1921.000
1123.646,2584.000,2429.000,2318.000,2215.000,2259.000,2177.000,2187.000,2090.000,1992.000,1906.000
1128.794,2512.000,2361.000,2243.000,2177.000,2129.000,2129.000,2110.000,2039.000,1942.000,1874.000
1133.938,2475.000,2327.000,2257.000,2159.000,2132.000,2085.000,2071.000,1986.000,1928.000,1842.000
1139.082,2423.000,2291.000,2191.000,2147.000,2097.000,2032.000,2098.000,1929.000,1865.000,1810.000
1144.221,2496.000,2402.000,2291.000,2231.000,2130.000,2055.000,2074.000,1999.000,1905.000,1843.000
1149.356,2506.000,2409.000,2298.000,2186.000,2177.000,2080.000,2111.000,2014.000,1904.000,1866.000
1154.489,2469.000,2413.000,2339.000,2223.000,2207.000,2192.000,2087.000,2027.000,1946.000,1906.000
1159.619,2507.000,2417.000,2271.000,2255.000,2119.000,2147.000,2148.000,2019.000,1995.000,1899.000
1164.748,2555.000,2464.000,2365.000,2257.000,2233.000,2234.000,2177.000,2032.000,1967.000,1898.000
1169.872,2554.000,2426.000,2354.000,2262.000,2174.000,2168.000,2147.000,2058.000,1967.000,1912.000
1174.992,2566.000,2461.000,2341.000,2202.000,2214.000,2156.000,2174.000,1986.000,1983.000,1900.000
1180.110,2608.000,2421.000,2291.000,2227.000,2219.000,2158.000,2215.000,2023.000,1971.000,1882.000
1185.225,2571.000,2389.000,2314.000,2233.000,2187.000,2108.000,2125.000,2035.000,1964.000,1875.000
1190.339,2579.000,2469.000,2364.000,2242.000,2199.000,2151.000,2148.000,2066.000,1953.000,1904.000
1195.448,2587.000,2455.000,2343.000,2231.000,2212.000,2190.000,2184.000,2058.000,1978.000,1893.000
1200.554,2608.000,2492.000,2450.000,2381.000,2290.000,2218.000,2248.000,2136.000,2062.000,1975.000
1205.657,2647.000,2488.000,2431.000,2316.000,2290.000,2223.000,2276.000,2110.000,2025.000,2026.000
1210.759,2748.000,2601.000,2499.000,2461.000,2372.000,2306.000,2339.000,2227.000,2115.000,2068.000
1215.856,2856.000,2680.000,2555.000,2488.000,2403.000,2375.000,2375.000,2291.000,2189.000,2105.000
1220.950,2830.000,2692.000,2622.000,2463.000,2494.000,2403.000,2465.000,2323.000,2215.000,2183.000
1226.041,2929.000,2783.000,2631.000,2571.000,2571.000,2503.000,2481.000,2373.000,2223.000,2182.000
1231.130,2916.000,2697.000,2693.000,2607.000,2487.000,2522.000,2458.000,2400.000,2257.000,2215.000
1236.217,2951.000,2799.000,2726.000,2615.000,2579.000,2533.000,2481.000,2366.000,2327.000,2254.000
1241.299,2895.000,2747.000,2632.000,2617.000,2515.000,2499.000,2458.000,2347.000,2260.000,2189.000
1246.379,2935.000,2820.000,2683.000,2605.000,2569.000,2519.000,2485.000,2417.000,2312.000,2257.000
1251.455,2869.000,2717.000,2664.000,2540.000,2481.000,2499.000,2427.000,2387.000,2276.000,2167.000
1256.529,2812.000,2679.000,2695.000,2520.000,2512.000,2483.000,2455.000,2349.000,2294.000,2176.000
1261.601,2817.000,2695.000,2632.000,2523.000,2485.000,2400.000,2357.000,2266.000,2237.000,2162.000
1266.669,2863.000,2702.000,2592.000,2570.000,2467.000,2437.000,2399.000,2312.000,2166.000,2146.000
1271.734,2842.000,2731.000,2634.000,2522.000,2461.000,2438.000,2439.000,2338.000,2239.000,2183.000
1276.795,2880.000,2709.000,2610.000,2563.000,2468.000,2449.000,2408.000,2290.000,2206.000,2211.000
1281.854,2884.000,2736.000,2578.000,2579.000,2507.000,2466.000,2424.000,2321.000,2230.000,2219.000
1286.912,2859.000,2742.000,2589.000,2470.000,2442.000,2383.000,2426.000,2272.000,2253.000,2134.000
1291.965,2853.000,2723.000,2638.000,2525.000,2457.000,2455.000,2414.000,2319.000,2269.000,2175.000
1297.015,2843.000,2701.000,2606.000,2497.000,2459.000,2410.000,2387.000,2270.000,2272.000,2146.000
1302.063,2927.000,2797.000,2679.000,2635.000,2503.000,2501.000,2482.000,2384.000,2277.000,2220.000
1307.107,2857.000,2811.000,2681.000,2561.000,2551.000,2473.000,2517.000,2380.000,2262.000,2193.000
1312.150,3021.000,2815.000,2719.000,2549.000,2580.000,2535.000,2488.000,2438.000,2363.000,2230.000
1317.189,2931.000,2798.000,2669.000,2626.000,2577.000,2539.000,2523.000,2391.000,2326.000,2218.000
1322.224,2936.000,2815.000,2689.000,2570.000,2543.000,2499.000,2450.000,2346.000,2271.000,2256.000
1327.257,2993.000,2870.000,2703.000,2623.000,2538.000,2583.000,2555.000,2422.000,2307.000,2283.000
1332.287,2928.000,2829.000,2692.000,2600.000,2573.000,2516.000,2535.000,2407.000,2345.000,2207.000
1337.316,3070.000,2885.000,2799.000,2687.000,2624.000,2593.000,2550.000,2455.000,2391.000,2312.000
1342.340,2990.000,2783.000,2639.000,2601.000,2540.000,2502.000,2470.000,2414.000,2286.000,2239.000
1347.361,2920.000,2774.000,2634.000,2556.000,2550.000,2504.000,2507.000,2360.000,2283.000,2200.000
1352.379,2822.000,2679.000,2637.000,2520.000,2472.000,2420.000,2396.000,2337.000,2179.000,2163.000
1357.395,2846.000,2651.000,2543.000,2496.000,2412.000,2361.000,2425.000,2256.000,2196.000,2159.000
1362.409,2852.000,2657.000,2525.000,2476.000,2399.000,2374.000,2384.000,2263.000,2150.000,2107.000
1367.418,2709.000,2613.000,2526.000,2449.000,2386.000,2318.000,2299.000,2237.000,2115.000,2096.000
1372.425,2814.000,2619.000,2527.000,2465.000,2378.000,2331.000,2312.000,2240.000,2091.000,2027.000
1377.429,2758.000,2612.000,2480.000,2457.000,2378.000,2325.000,2386.000,2205.000,2136.000,2064.000
1382.430,2811.000,2616.000,2583.000,2434.000,2357.000,2296.000,2321.000,2229.000,2117.000,2074.000
1387.430,2814.000,2579.000,2487.000,2410.000,2350.000,2339.000,2326.000,2244.000,2083.000,2084.000
1392.425,2744.000,2622.000,2524.000,2508.000,2380.000,2352.000,2335.000,2253.000,2142.000,2019.000
1397.418,2748.000,2676.000,2515.000,2520.000,2395.000,2379.000,2309.000,2206.000,2167.000,2096.000
1402.407,2774.000,2590.000,2563.000,2453.000,2359.000,2344.000,2339.000,2218.000,2112.000,2075.000
1407.394,2862.000,2735.000,2580.000,2441.000,2447.000,2431.000,2420.000,2261.000,2153.000,2147.000
1412.379,2851.000,2664.000,2553.000,2457.000,2407.000,2406.000,2374.000,2321.000,2182.000,2108.000
1417.360,2898.000,2749.000,2608.000,2526.000,2462.000,2419.000,2443.000,2319.000,2204.000,2138.000
1422.338,2875.000,2727.000,2632.000,2573.000,2498.000,2452.000,2404.000,2314.000,2206.000,2142.000
1427.314,3041.000,2851.000,2787.000,2654.000,2613.000,2618.000,2583.000,2451.000,2356.000,2258.000
1432.286,3155.000,3061.000,2917.000,2813.000,2725.000,2683.000,2708.000,2603.000,2517.000,2455.000
1437.257,3261.000,3102.000,2919.000,2919.000,2848.000,2804.000,2778.000,2686.000,2604.000,2515.000
1442.224,3338.000,3223.000,3087.000,3001.000,2928.000,2886.000,2872.000,2758.000,2654.000,2570.000
1447.188,3255.000,3148.000,2972.000,2919.000,2871.000,2805.000,2804.000,2588.000,2540.000,2507.000
1452.149,3208.000,3125.000,2987.000,2846.000,2776.000,2766.000,2767.000,2636.000,2488.000,2449.000
1457.109,3123.000,2959.000,2827.000,2780.000,2692.000,2658.000,2642.000,2569.000,2435.000,2418.000
1462.064,2988.000,2922.000,2778.000,2694.000,2620.000,2606.000,2558.000,2459.000,2350.000,2236.000
1467.017,2865.000,2729.000,2635.000,2524.000,2466.000,2413.000,2407.000,2347.000,2190.000,2147.000
1471.966,2775.000,2655.000,2534.000,2439.000,2362.000,2351.000,2329.000,2189.000,2155.000,2084.000
1476.913,2736.000,2618.000,2475.000,2421.000,2347.000,2283.000,2259.000,2168.000,2060.000,1994.000
1481.859,2675.000,2533.000,2466.000,2324.000,2295.000,2215.000,2259.000,2135.000,2051.000,1946.000
1486.800,2709.000,2587.000,2507.000,2338.000,2330.000,2225.000,2226.000,2122.000,1953.000,2002.000
1491.739,2700.000,2513.000,2403.000,2324.000,2235.000,2204.000,2247.000,2120.000,2001.000,1975.000
1496.674,2691.000,2509.000,2425.000,2299.000,2279.000,2287.000,2240.000,2121.000,1992.000,1917.000
1501.607,2694.000,2513.000,2387.000,2291.000,2259.000,2196.000,2232.000,2063.000,2033.000,1948.000
1506.539,2712.000,2568.000,2463.000,2342.000,2252.000,2270.000,2237.000,2150.000,2021.000,1936.000
1511.466,2767.000,2543.000,2439.000,2339.000,2246.000,2253.000,2227.000,2126.000,2025.000,1950.000
1516.390,2746.000,2548.000,2470.000,2377.000,2289.000,2240.000,2243.000,2089.000,2004.000,1941.000
1521.312,2774.000,2583.000,2399.000,2368.000,2264.000,2290.000,2304.000,2138.000,2014.000,1954.000
1526.230,2685.000,2544.000,2445.000,2310.000,2310.000,2282.000,2255.000,2088.000,2023.000,1949.000
1531.148,2716.000,2628.000,2455.000,2556.000,2309.000,2292.000,2243.000,2165.000,2040.000,2016.000
1536.061,2714.000,3351.000,2455.000,2355.000,2321.000,2262.000,2301.000,2137.000,2030.000,1989.000
1540.972,2769.000,2638.000,2519.000,2447.000,2338.000,2298.000,2330.000,2215.000,2098.000,1995.000
1545.879,2798.000,2617.000,2543.000,2405.000,2374.000,2358.000,2337.000,2179.000,2076.000,2010.000
1550.784,2778.000,2660.000,2469.000,2388.000,2362.000,2358.000,2300.000,2154.000,2106.000,2010.000
1555.688,2804.000,2651.000,2546.000,2448.000,2372.000,2388.000,2348.000,2261.000,2130.000,2048.000
1560.587,2814.000,2677.000,2526.000,2426.000,2366.000,2318.000,2307.000,2188.000,2127.000,2071.000
1565.483,2840.000,2682.000,2577.000,2437.000,2390.000,2266.000,2327.000,2203.000,2087.000,2027.000
1570.377,2768.000,2637.000,2507.000,2452.000,2390.000,2341.000,2337.000,2185.000,2099.000,1992.000
1575.269,2812.000,2650.000,2560.000,2428.000,2382.000,2330.000,2342.000,2189.000,2083.000,2053.000
1580.157,2831.000,2600.000,2570.000,2444.000,2403.000,2335.000,2361.000,2285.000,2136.000,2001.000
1585.043,2797.000,2648.000,2532.000,2458.000,2328.000,2295.000,2310.000,2168.000,2097.000,2017.000
1589.925,2858.000,2683.000,2562.000,2467.000,2396.000,2355.000,2350.000,2212.000,2108.000,2093.000
1594.805,2894.000,2744.000,2625.000,2548.000,2436.000,2384.000,2383.000,2304.000,2171.000,2133.000
1599.684,2961.000,2744.000,2650.000,2565.000,2500.000,2392.000,2458.000,2308.000,2220.000,2151.000
1604.558,2923.000,2764.000,2618.000,2532.000,2457.000,2452.000,2392.000,2290.000,2246.000,2162.000
1609.429,2867.000,2777.000,2590.000,2551.000,2461.000,2442.000,2463.000,2302.000,2246.000,2156.000
1614.298,2867.000,2683.000,2529.000,2497.000,2454.000,2396.000,2349.000,2270.000,2187.000,2028.000
1619.164,2843.000,2674.000,2553.000,2471.000,2403.000,2337.000,2391.000,2187.000,2062.000,2033.000
1624.029,2841.000,2644.000,2532.000,2470.000,2380.000,2345.000,2386.000,2179.000,2144.000,2063.000
1628.889,2816.000,2598.000,2515.000,2469.000,2375.000,2349.000,2340.000,2191.000,2077.000,2084.000
1633.747,2901.000,2696.000,2607.000,2495.000,2450.000,2412.000,2314.000,2270.000,2155.000,2092.000
1638.602,2854.000,2725.000,2567.000,2525.000,2461.000,2365.000,2406.000,2288.000,2192.000,2123.000
1643.454,3013.000,2759.000,2670.000,2576.000,2473.000,2445.000,2413.000,2338.000,2168.000,2182.000
1648.305,3060.000,2878.000,2764.000,2658.000,2539.000,2538.000,2542.000,2417.000,2295.000,2237.000
1653.152,3140.000,2985.000,2759.000,2663.000,2675.000,2528.000,2570.000,2469.000,2337.000,2285.000
1657.996,3182.000,3010.000,2891.000,2787.000,2718.000,2684.000,2705.000,2566.000,2459.000,2417.000
1662.837,3272.000,3004.000,2927.000,2788.000,2779.000,2677.000,2706.000,2578.000,2455.000,2422.000
1667.675,3089.000,2894.000,2820.000,2701.000,2649.000,2654.000,2624.000,2423.000,2408.000,2311.000
1672.513,2959.000,2752.000,2653.000,2539.000,2516.000,2475.000,2443.000,2307.000,2191.000,2190.000
1677.346,2865.000,2727.000,2610.000,2506.000,2456.000,2400.000,2399.000,2260.000,2224.000,2106.000
1682.176,2880.000,2676.000,2527.000,2396.000,2396.000,2399.000,2301.000,2218.000,2117.000,2054.000
1687.004,2786.000,2628.000,2519.000,2403.000,2321.000,2310.000,2277.000,2186.000,2105.000,1987.000
1691.829,2794.000,2615.000,2550.000,2354.000,2319.000,2288.000,2279.000,2146.000,2074.000,1961.000
1696.652,2684.000,2564.000,2454.000,2364.000,2332.000,2294.000,2222.000,2140.000,2015.000,1943.000
1701.472,2698.000,2629.000,2459.000,2376.000,2242.000,2291.000,2270.000,2105.000,1980.000,1915.000
1706.288,2640.000,2526.000,2483.000,2414.000,2291.000,2204.000,2263.000,2104.000,1966.000,1928.000
1711.102,2752.000,2541.000,2425.000,2325.000,2271.000,2204.000,2206.000,2081.000,1967.000,1902.000
1715.914,2722.000,2606.000,2439.000,2343.000,2301.000,2245.000,2256.000,2078.000,2034.000,2062.000
1720.724,2697.000,2519.000,2398.000,2314.000,2274.000,2231.000,2214.000,2073.000,1963.000,1907.000
1725.530,2663.000,2585.000,2440.000,2337.000,2307.000,2245.000,2221.000,2104.000,1999.000,1930.000
1730.333,2671.000,2528.000,2441.000,2336.000,2246.000,2216.000,2210.000,2120.000,2004.000,1916.000
1735.133,2702.000,2577.000,2422.000,2327.000,2318.000,2223.000,2130.000,2103.000,1972.000,1936.000
1739.931,2679.000,2516.000,2451.000,2350.000,2239.000,2204.000,2193.000,2124.000,1997.000,1919.000
1744.728,2667.000,2528.000,2416.000,2359.000,2271.000,2194.000,2235.000,2060.000,2008.000,1905.000
1749.520,2713.000,2565.000,2430.000,2343.000,2288.000,2232.000,2194.000,2090.000,1993.000,1928.000
1754.310,2706.000,2528.000,2428.000,2342.000,2238.000,2228.000,2214.000,2057.000,1972.000,1901.000
1759.097,2713.000,2519.000,2451.000,2340.000,2269.000,2224.000,2197.000,2095.000,1970.000,1938.000
1763.881,2648.000,2542.000,2441.000,2347.000,2241.000,2219.000,2177.000,2069.000,1955.000,1904.000
1768.664,2655.000,2575.000,2441.000,2299.000,2215.000,2218.000,2226.000,2123.000,1994.000,1916.000
1773.443,2739.000,2613.000,2473.000,2386.000,2284.000,2222.000,2199.000,2113.000,2027.000,1921.000
1778.219,2722.000,2572.000,2444.000,2331.000,2226.000,2199.000,2188.000,2087.000,1968.000,1913.000
1782.993,2712.000,2576.000,2703.000,2325.000,2275.000,2197.000,2210.000,2110.000,1990.000,1945.000
1787.764,2685.000,2513.000,2452.000,2342.000,2195.000,2180.000,2230.000,2084.000,1987.000,1891.000
1792.534,2732.000,2588.000,2511.000,2306.000,2271.000,2212.000,2229.000,2106.000,1983.000,1921.000
1797.299,2769.000,2537.000,2484.000,2361.000,2216.000,2205.000,2229.000,2097.000,2005.000,1945.000
1802.062,2745.000,2576.000,2477.000,2354.000,2294.000,2263.000,2194.000,2072.000,1990.000,1918.000
1806.822,2715.000,2598.000,2449.000,2405.000,2274.000,2287.000,2264.000,2173.000,1994.000,1930.000
1811.582,2760.000,2579.000,2422.000,2347.000,2300.000,2284.000,2240.000,2136.000,1976.000,1956.000
1816.336,2668.000,2582.000,2479.000,2389.000,2331.000,2261.000,2270.000,2099.000,2012.000,1968.000
1821.089,2725.000,2594.000,2488.000,2381.000,2303.000,2285.000,2228.000,2116.000,2005.000,1983.000
1825.838,2802.000,2604.000,2488.000,2363.000,2335.000,2234.000,2275.000,2114.000,1979.000,1946.000
1830.585,2711.000,2636.000,2499.000,2402.000,2359.000,2272.000,2315.000,2151.000,2006.000,1959.000
1835.331,2761.000,2611.000,2440.000,2372.000,2303.000,2292.000,2271.000,2169.000,2004.000,1942.000
1840.072,2749.000,2639.000,2507.000,2417.000,2318.000,2276.000,2266.000,2103.000,2020.000,1967.000
1844.811,2831.000,2631.000,2467.000,2440.000,2327.000,2284.000,2285.000,2163.000,2059.000,1968.000
1849.548,2787.000,2579.000,2516.000,2336.000,2274.000,2277.000,2340.000,2121.000,2007.000,1944.000
1854.281,2758.000,2647.000,2552.000,2408.000,2304.000,2246.000,2278.000,2194.000,2024.000,2004.000
1859.014,2788.000,2599.000,2482.000,2339.000,2283.000,2284.000,2277.000,2138.000,2051.000,1917.000
1863.742,2771.000,2633.000,2530.000,2401.000,2354.000,2279.000,2267.000,2175.000,2033.000,2002.000
1868.468,2760.000,2591.000,2519.000,2360.000,2295.000,2259.000,2302.000,2142.000,2033.000,1997.000
1873.191,2827.000,2636.000,2513.000,2402.000,2331.000,2328.000,2264.000,2175.000,2056.000,1973.000
1877.911,2774.000,2687.000,2493.000,2371.000,2384.000,2295.000,2288.000,2159.000,2080.000,1983.000
1882.631,2817.000,2577.000,2478.000,2451.000,2276.000,2316.000,2279.000,2118.000,2043.000,1964.000
1887.346,2797.000,2627.000,2535.000,2461.000,2353.000,2283.000,2269.000,2160.000,2065.000,1987.000
1892.058,2813.000,2659.000,2546.000,2424.000,2341.000,2331.000,2318.000,2157.000,2083.000,1966.000
1896.768,2835.000,2622.000,2540.000,2455.000,2326.000,2246.000,2285.000,2155.000,2043.000,2009.000
1901.476,2803.000,2649.000,2498.000,2416.000,2337.000,2340.000,2260.000,2173.000,2068.000,2016.000
1906.182,2805.000,2660.000,2506.000,2434.000,2365.000,2330.000,2321.000,3170.000,2037.000,2022.000
1910.884,2799.000,2672.000,2584.000,2428.000,2357.000,2367.000,2330.000,2210.000,2117.000,2023.000
1915.583,2835.000,2694.000,2536.000,2412.000,2388.000,2290.000,2325.000,2143.000,2064.000,2009.000
1920.280,2862.000,2689.000,2566.000,2520.000,2393.000,2341.000,2338.000,2211.000,2071.000,2302.000
1924.974,2831.000,2676.000,2556.000,2478.000,2381.000,2369.000,2331.000,2186.000,2039.000,2038.000
1929.668,2892.000,2684.000,2564.000,2508.000,2390.000,2352.000,2389.000,2223.000,2122.000,2055.000
1934.357,2880.000,2729.000,2579.000,2475.000,2408.000,2355.000,2339.000,2237.000,2098.000,2022.000
1939.043,2845.000,2679.000,2525.000,2488.000,2396.000,2385.000,2341.000,2240.000,2078.000,2056.000
1943.727,2944.000,2771.000,3208.000,2525.000,2416.000,2358.000,2325.000,2241.000,2100.000,2086.000
1948.410,2869.000,2724.000,2633.000,2504.000,2385.000,2416.000,2405.000,2271.000,2161.000,2005.000
1953.088,2864.000,2786.000,2613.000,2528.000,2442.000,2382.000,2409.000,2269.000,2156.000,2067.000
1957.764,2911.000,2720.000,2599.000,2538.000,2450.000,2361.000,2369.000,2292.000,2161.000,2139.000
1962.438,2900.000,2710.000,2645.000,2531.000,2500.000,2383.000,2368.000,2276.000,2164.000,2090.000
1967.108,2933.000,2812.000,2674.000,2581.000,2501.000,2400.000,2419.000,2268.000,2187.000,2160.000
1971.778,2942.000,2830.000,2666.000,2557.000,2511.000,2443.000,2419.000,2264.000,2159.000,2126.000
1976.444,3012.000,2813.000,2669.000,2591.000,2548.000,2481.000,2409.000,2323.000,2206.000,2152.000
1981.107,2992.000,2837.000,2716.000,2606.000,2531.000,2430.000,2501.000,2331.000,2267.000,2142.000
1985.767,3014.000,2832.000,2725.000,2597.000,2518.000,2467.000,2451.000,2329.000,2220.000,2169.000
1990.425,2951.000,2874.000,2756.000,2636.000,2519.000,2520.000,2473.000,2321.000,2317.000,2192.000
1995.082,3007.000,2876.000,2724.000,2622.000,2575.000,2465.000,2487.000,2333.000,2256.000,2191.000
1999.735,3063.000,2874.000,2772.000,2710.000,2556.000,2564.000,2553.000,2402.000,2247.000,2215.000
2004.385,3063.000,2916.000,2836.000,2682.000,2585.000,2552.000,2589.000,2377.000,2298.000,2215.000
2009.032,3119.000,2958.000,2820.000,2714.000,2688.000,2591.000,2544.000,2441.000,2309.000,2286.000
2013.677,3099.000,2913.000,2842.000,2758.000,2680.000,2636.000,2627.000,2435.000,2378.000,2382.000
2018.321,3214.000,3007.000,2916.000,2812.000,2759.000,2646.000,2686.000,2540.000,2387.000,2381.000
2022.961,3275.000,3071.000,2963.000,2877.000,2804.000,2735.000,2707.000,2664.000,2509.000,2456.000
2027.598,3327.000,3233.000,3051.000,2942.000,2875.000,2826.000,2785.000,2686.000,2612.000,2486.000