File: Raman/2022_11_26_Hagfish_Film_Unstreched_532nm_Pol_6mW_750mm_600gv_3200wn_iDus_100s_10accum_Pos1.csv
2487.376,1182.000,1143.000,1136.000,1146.000,1139.000,1106.000,1115.000,1119.000,1107.000,1115.000
2491.734,1184.000,1171.000,1192.000,1178.000,1174.000,1148.000,1155.000,1146.000,1143.000,1120.000
2496.090,1206.000,1191.000,1175.000,1151.000,1194.000,1159.000,1141.000,1150.000,1175.000,1164.000
2500.445,1182.000,1167.000,1147.000,1137.000,1154.000,1148.000,1122.000,1116.000,1116.000,1139.000
2504.796,1159.000,1152.000,1131.000,1147.000,1144.000,1129.000,1151.000,1135.000,1118.000,1119.000
2509.145,1191.000,1179.000,1164.000,1124.000,1183.000,1142.000,1154.000,1147.000,1147.000,1122.000
2513.491,1210.000,1191.000,1199.000,1196.000,1167.000,1173.000,1154.000,1142.000,1123.000,1148.000
2517.837,1223.000,1195.000,1189.000,1185.000,1199.000,1176.000,1158.000,1148.000,1143.000,1155.000
2522.179,1222.000,1157.000,1163.000,1181.000,1177.000,1176.000,1172.000,1155.000,1157.000,1128.000
2526.518,1210.000,1214.000,1168.000,1187.000,1180.000,1163.000,1177.000,1172.000,1164.000,1148.000
2530.855,1200.000,1227.000,1199.000,1203.000,1193.000,1190.000,1183.000,1192.000,1175.000,1165.000
2535.192,1263.000,1215.000,1218.000,1198.000,1211.000,1189.000,1188.000,1145.000,1149.000,1180.000
2539.524,1207.000,1224.000,1206.000,1174.000,1204.000,1173.000,1165.000,1176.000,1164.000,1141.000
2543.855,1236.000,1198.000,1219.000,1186.000,1254.000,1161.000,1168.000,1171.000,1156.000,1140.000
2548.183,1213.000,1209.000,1220.000,1201.000,1200.000,1184.000,1173.000,1186.000,1179.000,1174.000
2552.510,1244.000,1221.000,1216.000,1216.000,1244.000,1214.000,1215.000,1198.000,1187.000,1175.000
2556.833,1242.000,1219.000,1212.000,1218.000,1203.000,1226.000,1213.000,1395.000,1171.000,3055.000
2561.154,1227.000,1217.000,1210.000,1197.000,1174.000,1190.000,1192.000,1178.000,1191.000,1182.000
2565.473,1234.000,1247.000,1196.000,1234.000,1244.000,1197.000,1207.000,1217.000,1209.000,1172.000
2569.791,1274.000,1246.000,1246.000,1233.000,1240.000,1204.000,1227.000,1201.000,1225.000,1193.000
2574.105,1251.000,1264.000,1248.000,1232.000,1234.000,1227.000,1242.000,1215.000,1195.000,1183.000
2578.417,1271.000,1226.000,1243.000,1215.000,1215.000,1209.000,1192.000,1217.000,1179.000,1195.000
2582.727,1290.000,1276.000,1240.000,1240.000,1270.000,1228.000,1204.000,1211.000,1215.000,1177.000
2587.036,1300.000,1300.000,1266.000,1279.000,1253.000,1215.000,1251.000,1219.000,1233.000,1224.000
2591.341,1283.000,1285.000,1290.000,1262.000,1254.000,1263.000,1254.000,1258.000,1211.000,1240.000
2595.643,1290.000,1278.000,1271.000,1233.000,1245.000,1213.000,1249.000,1241.000,1240.000,1195.000
2599.944,1279.000,1270.000,1249.000,1259.000,1263.000,1249.000,1215.000,1232.000,1238.000,1202.000
2604.243,1318.000,1292.000,1312.000,1286.000,1259.000,1268.000,1268.000,1258.000,1199.000,1231.000
2608.539,1325.000,1304.000,1282.000,1275.000,1279.000,1279.000,1256.000,1230.000,1256.000,1249.000
2612.833,1322.000,1275.000,1255.000,1278.000,1273.000,1271.000,1269.000,1276.000,1216.000,1198.000
2617.124,1333.000,1284.000,1286.000,1255.000,1279.000,1253.000,1247.000,1249.000,1247.000,1232.000
2621.415,1316.000,1319.000,1332.000,1328.000,1310.000,1316.000,1267.000,1268.000,1225.000,1238.000
2625.702,1323.000,1319.000,1257.000,1313.000,1297.000,1309.000,1283.000,1267.000,1257.000,1261.000
2629.986,1359.000,1303.000,1321.000,1282.000,1303.000,1293.000,1266.000,1286.000,1254.000,1244.000
2634.268,1339.000,1341.000,1314.000,1316.000,1301.000,1286.000,1281.000,1285.000,1285.000,1288.000
2638.550,1339.000,1334.000,1301.000,1273.000,1322.000,1322.000,1287.000,1294.000,1256.000,1276.000
2642.827,1355.000,1325.000,1307.000,1323.000,1312.000,1332.000,1307.000,1298.000,1301.000,1276.000
2647.103,1354.000,1322.000,1320.000,1313.000,1321.000,1291.000,1303.000,1286.000,1279.000,1265.000
2651.376,1340.000,1344.000,1315.000,1291.000,1313.000,1280.000,1294.000,1281.000,1278.000,1275.000
2655.649,1365.000,1331.000,1336.000,1293.000,1319.000,1309.000,1344.000,1307.000,1285.000,1283.000
2659.917,1407.000,1340.000,1343.000,1353.000,1344.000,1309.000,1279.000,1312.000,1280.000,1269.000
2664.184,1367.000,1342.000,1339.000,1312.000,1338.000,1320.000,1298.000,1288.000,1286.000,1315.000
2668.448,1369.000,1352.000,1315.000,1341.000,1348.000,1310.000,1328.000,1324.000,1285.000,1277.000
2672.711,1388.000,1337.000,1366.000,1341.000,1323.000,1353.000,1331.000,1286.000,1302.000,1338.000
2676.971,1395.000,1388.000,1343.000,1356.000,1322.000,1365.000,1302.000,1339.000,1304.000,1319.000
2681.228,1400.000,1354.000,1343.000,1325.000,1356.000,1347.000,1320.000,1320.000,1299.000,1305.000
2685.483,1400.000,1364.000,1374.000,1340.000,1350.000,1359.000,1330.000,1342.000,1323.000,1341.000
2689.738,1417.000,1374.000,1382.000,1369.000,1361.000,1339.000,1344.000,1342.000,1341.000,1337.000
2693.988,1425.000,1407.000,1373.000,1398.000,1373.000,1369.000,1360.000,1361.000,1365.000,1336.000
2698.237,1410.000,1401.000,1392.000,1374.000,1377.000,1366.000,1359.000,1323.000,1342.000,1313.000
2702.483,1421.000,1395.000,1401.000,1426.000,1382.000,1357.000,1368.000,1343.000,1331.000,1320.000
2706.728,1446.000,1440.000,1368.000,1404.000,1399.000,1411.000,1493.000,1363.000,1378.000,1353.000
2710.970,1457.000,1416.000,1425.000,1443.000,1417.000,1395.000,1388.000,1396.000,1374.000,1354.000
2715.209,1466.000,1431.000,1438.000,1383.000,1389.000,1415.000,1402.000,1408.000,1360.000,1386.000
2719.447,1480.000,1446.000,1413.000,1443.000,1432.000,1424.000,1404.000,1407.000,1394.000,1364.000
2723.683,1532.000,1448.000,1451.000,1456.000,1446.000,1456.000,1434.000,1406.000,1413.000,1449.000
2727.916,1526.000,1500.000,2155.000,1487.000,1492.000,1457.000,1480.000,1490.000,1466.000,1414.000
2732.146,1545.000,1512.000,1531.000,1505.000,1505.000,1449.000,1458.000,1494.000,1507.000,1450.000
2736.375,1560.000,1510.000,1471.000,1515.000,1470.000,1474.000,1470.000,1451.000,1420.000,1463.000
2740.602,1562.000,1541.000,1515.000,1516.000,1515.000,1525.000,1488.000,1489.000,1467.000,1451.000
2744.826,1563.000,1540.000,1501.000,1486.000,1514.000,1473.000,1501.000,1454.000,1463.000,1457.000
2749.048,1526.000,1472.000,1507.000,1489.000,1515.000,1473.000,1475.000,1452.000,1439.000,1431.000
2753.267,1496.000,1519.000,1470.000,1471.000,1502.000,1465.000,1467.000,1453.000,1448.000,1421.000
2757.486,1538.000,1528.000,1470.000,1469.000,1469.000,1461.000,1462.000,1450.000,1434.000,1419.000
2761.701,1526.000,1503.000,1495.000,1474.000,1442.000,1492.000,1457.000,1462.000,1449.000,1442.000
2765.913,1496.000,1515.000,1485.000,1466.000,1467.000,1424.000,1445.000,1434.000,1414.000,1447.000
2770.124,1598.000,1481.000,1465.000,1482.000,1452.000,1472.000,1466.000,1432.000,1406.000,1429.000
2774.334,1565.000,1501.000,1503.000,1489.000,1484.000,1513.000,1493.000,1459.000,1464.000,1425.000
2778.540,1547.000,1524.000,1557.000,1512.000,1557.000,1475.000,1472.000,1456.000,1435.000,1438.000
2782.744,1661.000,1479.000,1504.000,1502.000,1541.000,1478.000,1458.000,1461.000,1453.000,1452.000
2786.946,1520.000,1515.000,1486.000,1519.000,1512.000,1497.000,1484.000,1485.000,1480.000,1445.000
2791.147,1537.000,1522.000,1485.000,1486.000,1507.000,1457.000,1484.000,1430.000,1457.000,1419.000
2795.344,1557.000,1486.000,1499.000,1487.000,1508.000,1504.000,1444.000,1456.000,1476.000,1414.000
2799.539,1563.000,1507.000,1457.000,1489.000,1520.000,1458.000,1477.000,1428.000,1457.000,1431.000
2803.732,1525.000,1528.000,1485.000,1472.000,1471.000,1459.000,1453.000,1441.000,1446.000,1457.000
2807.924,1560.000,1520.000,1558.000,1539.000,1528.000,1507.000,1492.000,1476.000,1455.000,1471.000
2812.113,1559.000,1517.000,1526.000,1490.000,1527.000,1475.000,1489.000,1493.000,1457.000,1429.000
2816.299,1568.000,1505.000,1530.000,1486.000,1524.000,1542.000,1483.000,1489.000,1459.000,1477.000
2820.483,1545.000,1540.000,1566.000,1484.000,1521.000,1525.000,1502.000,1482.000,1510.000,1472.000
2824.666,1610.000,1567.000,1565.000,1549.000,1553.000,1532.000,1507.000,1533.000,1539.000,1484.000
2828.846,1619.000,1582.000,1577.000,1605.000,1616.000,1566.000,1569.000,1578.000,1527.000,1510.000
2833.024,1665.000,1645.000,1613.000,1584.000,1630.000,1568.000,1599.000,1579.000,1611.000,1531.000
2837.199,1689.000,1636.000,1650.000,1629.000,1599.000,1612.000,1616.000,1593.000,1592.000,1600.000
2841.374,1713.000,1725.000,1700.000,1630.000,1684.000,1675.000,1676.000,1652.000,1636.000,1669.000
2845.545,1808.000,1774.000,1781.000,1791.000,1760.000,1767.000,1786.000,1744.000,1735.000,1719.000
2849.714,1927.000,1921.000,1923.000,1979.000,1902.000,1972.000,1877.000,1890.000,1825.000,1861.000
2853.880,2187.000,2181.000,2174.000,2178.000,2168.000,2114.000,2130.000,2096.000,2109.000,2135.000
2858.046,2363.000,2297.000,2283.000,2283.000,2334.000,2301.000,2260.000,2295.000,2283.000,2277.000
2862.208,2478.000,2453.000,2423.000,2419.000,2416.000,2463.000,2434.000,2367.000,2372.000,2356.000
2866.368,2660.000,2599.000,2640.000,2638.000,2607.000,2562.000,2575.000,2572.000,2580.000,2540.000
2870.526,2916.000,2874.000,2817.000,2866.000,2879.000,2793.000,2829.000,2770.000,2800.000,2787.000
2874.684,3246.000,3171.000,3198.000,3222.000,3188.000,3140.000,3158.000,3198.000,3146.000,3137.000
2878.837,3625.000,3546.000,3533.000,3491.000,3538.000,3495.000,3514.000,3489.000,3486.000,3433.000
2882.989,3714.000,3702.000,3652.000,3685.000,3656.000,3699.000,3657.000,3566.000,3635.000,3641.000
2887.138,3706.000,3639.000,3671.000,3649.000,3650.000,3712.000,3621.000,3659.000,3579.000,3592.000
2891.287,3682.000,3681.000,3570.000,3565.000,3555.000,3617.000,3566.000,3516.000,3569.000,3503.000
2895.432,3665.000,3630.000,3553.000,3557.000,3668.000,3598.000,3578.000,3515.000,3531.000,3540.000
2899.574,3681.000,3621.000,3626.000,3598.000,3618.000,3599.000,3701.000,3589.000,3635.000,3544.000
2903.715,3763.000,3702.000,3720.000,3749.000,3652.000,3681.000,3719.000,3607.000,3683.000,3593.000
2907.855,3891.000,3822.000,3807.000,3784.000,3775.000,3773.000,3772.000,3841.000,3738.000,3710.000
2911.991,4093.000,3939.000,3964.000,3942.000,4029.000,3958.000,3941.000,3927.000,3919.000,3900.000
2916.125,4138.000,4103.000,4090.000,4142.000,4115.000,4145.000,4155.000,4024.000,4064.000,4049.000
2920.257,4498.000,4451.000,4476.000,4502.000,4471.000,4402.000,4476.000,4411.000,4365.000,4381.000
2924.389,4817.000,4737.000,4727.000,4724.000,4780.000,4744.000,4687.000,4695.000,4731.000,4722.000
2928.516,5091.000,4995.000,4990.000,4905.000,4918.000,5027.000,4984.000,4980.000,4947.000,4942.000
2932.642,5287.000,5171.000,5172.000,5149.000,5226.000,5185.000,5228.000,5174.000,5211.000,5114.000
2936.765,5531.000,5417.000,5414.000,5352.000,5479.000,5393.000,5379.000,5445.000,5430.000,5368.000
2940.888,5551.000,5538.000,5513.000,5523.000,5438.000,5504.000,5549.000,5503.000,5401.000,5430.000
2945.007,5405.000,5358.000,5414.000,5352.000,5448.000,5363.000,5375.000,5364.000,5353.000,5304.000
2949.124,5006.000,4994.000,5005.000,5002.000,4961.000,4891.000,4943.000,4982.000,4955.000,4928.000
2953.239,4678.000,4621.000,4595.000,4543.000,4557.000,4596.000,4675.000,4533.000,4547.000,4527.000
2957.353,4265.000,4239.000,4279.000,4159.000,4204.000,4226.000,4177.000,4254.000,4154.000,4148.000
2961.464,4050.000,3967.000,3950.000,3958.000,4024.000,3944.000,3949.000,3945.000,3916.000,3865.000
2965.572,3922.000,3896.000,3901.000,3834.000,3847.000,3819.000,3806.000,3795.000,3805.000,3726.000
2969.679,3886.000,3809.000,3839.000,3782.000,3824.000,3828.000,3789.000,3798.000,3760.000,3752.000
2973.784,3793.000,3753.000,3751.000,3712.000,3790.000,3720.000,3706.000,3732.000,3641.000,3684.000
2977.886,3776.000,3697.000,3748.000,3690.000,3695.000,3664.000,3606.000,3600.000,3706.000,3604.000
2981.986,3641.000,3603.000,3571.000,3590.000,3578.000,3580.000,3586.000,3488.000,3578.000,3491.000
2986.084,3603.000,3476.000,3604.000,3536.000,3535.000,3479.000,3488.000,3501.000,3482.000,3406.000
2990.181,3428.000,3377.000,3372.000,3336.000,3290.000,3334.000,3290.000,3232.000,3223.000,3246.000
2994.275,3246.000,3126.000,3111.000,3197.000,3175.000,3095.000,3164.000,3086.000,3093.000,3119.000
2998.366,3014.000,3012.000,2926.000,2998.000,2944.000,2953.000,2918.000,2949.000,2884.000,2912.000
3002.456,2843.000,2732.000,2811.000,2774.000,2758.000,2729.000,2759.000,2728.000,2748.000,2708.000
3006.544,2576.000,2483.000,2543.000,2530.000,2541.000,2502.000,2506.000,2505.000,2478.000,2497.000
3010.629,2425.000,2377.000,2343.000,2331.000,2394.000,2398.000,2367.000,2345.000,2347.000,2359.000
3014.712,2305.000,2286.000,2237.000,2247.000,2243.000,2229.000,2213.000,2209.000,2183.000,2201.000
3018.793,2189.000,2141.000,2126.000,2152.000,2158.000,2094.000,2111.000,2128.000,2072.000,2067.000
3022.874,2048.000,2056.000,2038.000,2016.000,2021.000,1990.000,1988.000,1959.000,1903.000,1933.000
3026.950,2054.000,1974.000,1915.000,1971.000,1965.000,1956.000,1965.000,1897.000,1937.000,1934.000
3031.025,1905.000,1904.000,1901.000,1875.000,1943.000,1875.000,1864.000,1876.000,1840.000,1866.000
3035.097,1946.000,1880.000,1890.000,1873.000,1879.000,1862.000,1857.000,1867.000,1820.000,1783.000
3039.169,1962.000,1883.000,1861.000,1854.000,1870.000,1834.000,1833.000,1828.000,1803.000,1764.000
3043.237,1952.000,1907.000,1897.000,1921.000,1907.000,1851.000,1875.000,1838.000,1835.000,1888.000
3047.303,1938.000,1953.000,1901.000,1890.000,1906.000,1877.000,1871.000,1903.000,1846.000,1835.000
3051.367,1975.000,1971.000,1882.000,1893.000,1916.000,1899.000,1904.000,1834.000,1855.000,1816.000
3055.431,2061.000,2034.000,1978.000,2016.000,1947.000,1920.000,1952.000,1947.000,1944.000,1962.000
3059.491,2089.000,2093.000,2086.000,2050.000,2101.000,2090.000,2088.000,2072.000,2064.000,2029.000
3063.548,2187.000,2180.000,2155.000,2123.000,2165.000,2151.000,2132.000,2138.000,2074.000,2095.000
3067.604,2223.000,2211.000,2162.000,2223.000,2181.000,2153.000,2096.000,2119.000,2162.000,2105.000
3071.659,2254.000,2203.000,2181.000,2188.000,2226.000,2171.000,2181.000,2139.000,2096.000,2110.000
3075.711,2112.000,2061.000,2038.000,2084.000,2080.000,2063.000,2041.000,2039.000,2016.000,1981.000
3079.760,1960.000,1963.000,1963.000,1948.000,1965.000,1898.000,1948.000,1920.000,1918.000,1872.000
3083.807,1939.000,1903.000,1877.000,1864.000,1883.000,1892.000,1910.000,1855.000,1838.000,1814.000
3087.854,1838.000,1883.000,1836.000,1837.000,1841.000,1795.000,1810.000,1815.000,1814.000,1738.000
3091.897,1860.000,1801.000,1790.000,1765.000,1756.000,1763.000,1769.000,1783.000,1724.000,1699.000
3095.938,1838.000,1784.000,1749.000,1774.000,1741.000,1741.000,1747.000,1740.000,1705.000,1689.000
3099.977,1822.000,1826.000,1753.000,1742.000,1754.000,1778.000,1734.000,1731.000,1747.000,1702.000
3104.015,1806.000,1777.000,1725.000,1680.000,1742.000,1727.000,1723.000,1675.000,1689.000,1694.000
3108.050,1762.000,1742.000,1752.000,1768.000,1727.000,1683.000,1703.000,1703.000,1658.000,1613.000
3112.083,1776.000,1764.000,1710.000,1711.000,1702.000,1691.000,1704.000,1684.000,1695.000,1658.000
3116.114,1788.000,1766.000,1758.000,1752.000,1736.000,1734.000,1749.000,1696.000,1685.000,1664.000
3120.144,1736.000,1736.000,1727.000,1693.000,1726.000,1701.000,1713.000,1650.000,1672.000,1700.000
3124.170,1776.000,2929.000,1752.000,1714.000,1721.000,1718.000,1726.000,1688.000,1654.000,1627.000
3128.195,1775.000,1769.000,1774.000,1709.000,1754.000,1703.000,1704.000,1706.000,1706.000,1671.000
3132.217,1758.000,1728.000,1716.000,1688.000,1715.000,1727.000,1714.000,1678.000,1646.000,1650.000
3136.239,1710.000,1727.000,1693.000,1717.000,1700.000,7162.000,1687.000,1631.000,1660.000,1640.000
3140.257,1772.000,1725.000,1728.000,1690.000,1717.000,1735.000,1674.000,1684.000,1718.000,1636.000
3144.273,1770.000,1701.000,1709.000,1694.000,1712.000,1704.000,1688.000,1672.000,1648.000,1624.000
3148.288,1753.000,1707.000,1710.000,1726.000,1693.000,1680.000,1696.000,1645.000,1680.000,1639.000
3152.301,1770.000,1762.000,1717.000,1698.000,1703.000,1672.000,1699.000,1691.000,1670.000,1664.000
3156.311,1761.000,1727.000,1748.000,1691.000,1721.000,1722.000,1688.000,1729.000,1650.000,1646.000
3160.319,1729.000,1737.000,1723.000,1697.000,1667.000,1663.000,1684.000,1629.000,1683.000,1653.000
3164.325,1719.000,1761.000,1759.000,1726.000,1712.000,1719.000,1653.000,1691.000,1698.000,1637.000
3168.330,1806.000,1739.000,1727.000,1736.000,1705.000,1741.000,1708.000,1713.000,1674.000,1643.000
3172.332,1817.000,1734.000,1740.000,1726.000,1747.000,1719.000,1740.000,1681.000,1681.000,1732.000
3176.332,1758.000,1734.000,1685.000,1754.000,1706.000,1709.000,1680.000,1664.000,1643.000,1626.000
3180.330,1798.000,1758.000,1792.000,1761.000,1747.000,1732.000,1722.000,1759.000,1705.000,1687.000
3184.327,1793.000,1781.000,1771.000,1746.000,1713.000,1752.000,1708.000,1710.000,1743.000,1687.000
3188.320,1823.000,1792.000,1722.000,1752.000,1736.000,1742.000,1724.000,1720.000,1710.000,1691.000
3192.312,1809.000,1813.000,1748.000,1738.000,1770.000,1737.000,1792.000,1695.000,1730.000,1703.000
3196.302,1860.000,1806.000,1805.000,1790.000,1800.000,1782.000,1761.000,1773.000,1798.000,1745.000
3200.291,1814.000,1811.000,1764.000,1805.000,1752.000,1725.000,1765.000,1732.000,1773.000,1730.000
3204.276,1846.000,1847.000,1828.000,1803.000,1791.000,1763.000,1783.000,1776.000,1761.000,1755.000
3208.259,1927.000,1898.000,1856.000,1814.000,1836.000,1841.000,1835.000,1785.000,1814.000,1765.000
3212.241,1941.000,1834.000,1850.000,1811.000,1855.000,1855.000,1855.000,1832.000,1821.000,1783.000
3216.222,1905.000,1889.000,1869.000,1833.000,1867.000,1859.000,1816.000,1840.000,1784.000,1773.000
3220.199,1947.000,1945.000,1898.000,1878.000,1914.000,1819.000,1919.000,1877.000,1862.000,1813.000
3224.174,1960.000,1894.000,1876.000,1894.000,1893.000,1887.000,1901.000,1888.000,1808.000,1881.000
3228.148,1987.000,1916.000,1937.000,1900.000,1904.000,1895.000,1884.000,1858.000,1892.000,1864.000
3232.120,1996.000,1919.000,1927.000,1964.000,1943.000,1907.000,1925.000,1851.000,1924.000,1851.000
3236.090,2037.000,2018.000,1974.000,1976.000,1991.000,1911.000,1950.000,1945.000,1942.000,1919.000
3240.057,2001.000,2029.000,1969.000,1987.000,1996.000,1969.000,1937.000,1912.000,1926.000,1917.000
3244.022,2056.000,2073.000,1998.000,2022.000,1975.000,2027.000,2025.000,1989.000,1939.000,1970.000
3247.987,2159.000,2121.000,2119.000,2071.000,2077.000,2042.000,2062.000,2034.000,2015.000,2036.000
3251.948,2176.000,2179.000,2120.000,2086.000,2122.000,2080.000,2017.000,2029.000,2074.000,2090.000
3255.907,2174.000,2142.000,2166.000,2132.000,2142.000,2146.000,2121.000,2105.000,2081.000,2123.000
3259.864,2329.000,2218.000,2224.000,2233.000,2227.000,2230.000,2264.000,2215.000,2189.000,2170.000
3263.820,2316.000,2276.000,2259.000,2275.000,2261.000,2295.000,2245.000,2215.000,2273.000,2242.000
3267.773,2373.000,2319.000,2266.000,2324.000,2302.000,2271.000,2273.000,2266.000,2259.000,2232.000
3271.725,2432.000,2389.000,2399.000,2335.000,2370.000,2342.000,2340.000,2319.000,2320.000,2263.000
3275.674,2437.000,2356.000,2385.000,2421.000,2375.000,2350.000,2379.000,2310.000,2312.000,2334.000
3279.622,2428.000,2416.000,2391.000,2336.000,2350.000,2384.000,2389.000,2324.000,2283.000,2304.000
3283.567,2451.000,2344.000,2403.000,2410.000,2355.000,2358.000,2367.000,2381.000,2319.000,2356.000
3287.510,2412.000,2418.000,2401.000,2397.000,2395.000,2328.000,2380.000,2362.000,2361.000,2343.000
3291.451,2388.000,2388.000,2356.000,2334.000,2312.000,2338.000,2356.000,2319.000,2309.000,2281.000
3295.392,2386.000,2321.000,2259.000,2304.000,2361.000,2293.000,2259.000,2289.000,2256.000,2224.000
3299.329,2380.000,2283.000,2337.000,2320.000,2305.000,2279.000,2313.000,2270.000,2300.000,2264.000
3303.264,2280.000,2303.000,2296.000,2353.000,2295.000,2239.000,2291.000,2207.000,2207.000,2242.000
3307.197,2280.000,2274.000,2265.000,2228.000,2239.000,2250.000,2207.000,2227.000,2179.000,2215.000
3311.129,2314.000,2259.000,2290.000,2217.000,2235.000,2229.000,2247.000,2196.000,2180.000,2212.000
3315.058,2208.000,2223.000,2246.000,2205.000,2190.000,2157.000,2172.000,2163.000,2174.000,2117.000
3318.985,2282.000,2189.000,2179.000,2166.000,2119.000,2152.000,2197.000,2154.000,2101.000,2041.000
3322.910,2226.000,2145.000,2177.000,2155.000,2179.000,2145.000,2155.000,2113.000,2105.000,2127.000
3326.835,2213.000,2128.000,2123.000,2133.000,2135.000,2172.000,2150.000,2112.000,2103.000,2060.000
3330.756,2153.000,2114.000,2083.000,2065.000,2104.000,2107.000,2114.000,2067.000,2002.000,2027.000
3334.675,2163.000,2111.000,2088.000,2106.000,2105.000,2053.000,2080.000,2084.000,2017.000,2025.000
3338.592,2131.000,2083.000,2053.000,2056.000,2103.000,2075.000,1995.000,2076.000,1979.000,1987.000
3342.509,2088.000,2050.000,2037.000,2067.000,2064.000,2059.000,2081.000,2030.000,1985.000,1990.000
3346.422,2078.000,2051.000,2056.000,1988.000,2023.000,1992.000,1980.000,2004.000,1967.000,1984.000
3350.333,2050.000,2075.000,2075.000,2034.000,2042.000,2053.000,1998.000,1987.000,1966.000,1978.000
3354.242,2055.000,2008.000,2025.000,1963.000,2054.000,2003.000,2036.000,2002.000,1999.000,1929.000
3358.151,1992.000,1983.000,1942.000,1968.000,1989.000,1971.000,1931.000,1951.000,1947.000,1938.000
3362.056,2061.000,2042.000,1988.000,1980.000,1960.000,1990.000,1954.000,1979.000,1914.000,1891.000
3365.959,2002.000,1970.000,2027.000,1947.000,1959.000,1913.000,1942.000,1899.000,1919.000,1943.000
3369.860,1980.000,1951.000,1947.000,1946.000,1944.000,1929.000,1939.000,1908.000,1882.000,1872.000
3373.761,2014.000,1963.000,1980.000,1974.000,2002.000,1910.000,1934.000,1896.000,1913.000,1872.000
3377.658,1960.000,1942.000,1972.000,1928.000,1945.000,1909.000,1904.000,1919.000,1854.000,1898.000
3381.554,1952.000,1926.000,1915.000,1888.000,1868.000,1884.000,1906.000,1876.000,1857.000,1848.000
3385.447,1906.000,1937.000,1930.000,1889.000,1905.000,1865.000,1887.000,1877.000,1851.000,1820.000
3389.340,1962.000,1912.000,1911.000,1853.000,1889.000,1901.000,1892.000,1861.000,1819.000,1813.000
3393.229,1857.000,1897.000,1877.000,1879.000,1837.000,1879.000,1830.000,1804.000,1811.000,1818.000
3397.117,1914.000,1908.000,1870.000,1872.000,1874.000,1883.000,1870.000,1810.000,1829.000,1765.000
3401.002,1903.000,1921.000,1856.000,1869.000,1853.000,1869.000,1803.000,1809.000,1781.000,1809.000
3404.887,1919.000,1875.000,1821.000,1812.000,1845.000,1779.000,1795.000,1780.000,1776.000,1726.000
3408.769,1870.000,1829.000,1844.000,1804.000,1842.000,1831.000,1760.000,1771.000,1801.000,1764.000
3412.649,1901.000,1850.000,1811.000,1805.000,1839.000,1801.000,1805.000,1804.000,1776.000,1773.000
3416.526,1821.000,1832.000,1810.000,1788.000,1810.000,1791.000,1763.000,1770.000,1728.000,1752.000
3420.404,1825.000,1805.000,1788.000,1754.000,1783.000,1793.000,1794.000,1733.000,1752.000,1740.000
3424.277,1806.000,1823.000,1814.000,1754.000,1783.000,1765.000,1768.000,1752.000,1759.000,1736.000
3428.149,1812.000,1779.000,1782.000,1745.000,1767.000,1745.000,1785.000,1708.000,1700.000,1673.000
3432.019,1818.000,1808.000,1741.000,1802.000,1805.000,1718.000,1739.000,1708.000,1714.000,1732.000
3435.888,1788.000,1747.000,1763.000,1740.000,1756.000,1756.000,1751.000,1687.000,1693.000,1661.000
3439.754,1793.000,1743.000,1740.000,1741.000,1751.000,1729.000,1721.000,1716.000,1696.000,1694.000
3443.618,1789.000,1713.000,1772.000,1689.000,1724.000,1663.000,1663.000,1703.000,1639.000,1663.000
3447.481,1759.000,1748.000,1723.000,1716.000,1761.000,1683.000,1720.000,1681.000,1693.000,1658.000
3451.342,1783.000,1727.000,1709.000,1706.000,1733.000,1699.000,1736.000,1674.000,1663.000,1602.000
3455.200,1759.000,1758.000,1733.000,1686.000,1699.000,1663.000,1692.000,1650.000,1649.000,1676.000
3459.057,1733.000,1733.000,1666.000,1743.000,1715.000,1681.000,1702.000,1678.000,1647.000,1621.000
3462.911,1742.000,1719.000,1703.000,1683.000,1676.000,1697.000,1655.000,1645.000,1659.000,1610.000
3466.765,1709.000,1713.000,1685.000,1666.000,1651.000,1620.000,1669.000,1645.000,1622.000,1596.000
3470.615,1700.000,1712.000,1702.000,1671.000,1710.000,1691.000,1680.000,1652.000,1633.000,1640.000
3474.464,1744.000,1726.000,1687.000,1683.000,1660.000,1646.000,1669.000,1614.000,1611.000,1645.000
3478.310,1695.000,1687.000,1684.000,1707.000,1654.000,1663.000,1650.000,1642.000,1626.000,1613.000
3482.156,1727.000,1713.000,1688.000,1693.000,1689.000,1632.000,1656.000,1645.000,1653.000,1625.000
3485.999,1735.000,1659.000,1682.000,1682.000,1665.000,1698.000,1638.000,1660.000,1640.000,1598.000
3489.840,1711.000,1684.000,1652.000,1687.000,1630.000,1639.000,1651.000,1640.000,1654.000,1605.000
3493.679,1682.000,1649.000,1658.000,1655.000,1678.000,1630.000,1608.000,1640.000,1611.000,1550.000
3497.517,1687.000,1672.000,1655.000,1648.000,1628.000,1633.000,1651.000,1652.000,1610.000,1607.000
3501.352,1674.000,1638.000,1662.000,1649.000,1642.000,1639.000,1627.000,1621.000,1595.000,1580.000
3505.185,1708.000,1682.000,1603.000,1625.000,1634.000,1618.000,1648.000,1605.000,1586.000,1601.000
3509.017,1692.000,1635.000,1643.000,1619.000,1624.000,1610.000,1612.000,1611.000,1595.000,1566.000
3512.847,1664.000,1661.000,1643.000,1620.000,1629.000,1626.000,1666.000,1590.000,1583.000,1593.000
3516.675,1669.000,1660.000,1603.000,1623.000,1603.000,1604.000,1601.000,1600.000,1571.000,1567.000
3520.500,1645.000,1642.000,1614.000,1636.000,1596.000,1628.000,1609.000,1563.000,1586.000,1567.000
3524.324,1637.000,1630.000,1638.000,1608.000,1605.000,1617.000,1603.000,1600.000,1589.000,1554.000
3528.147,1681.000,1634.000,1643.000,1611.000,1607.000,1589.000,1608.000,1581.000,1572.000,1567.000
3531.966,1640.000,1609.000,1600.000,1618.000,1605.000,1579.000,1603.000,1557.000,1566.000,1544.000
3535.784,1649.000,1613.000,1631.000,1585.000,1606.000,1566.000,1620.000,1588.000,1592.000,1521.000
3539.600,1631.000,1609.000,1594.000,1619.000,1611.000,1622.000,1583.000,1565.000,1560.000,1529.000
3543.415,1643.000,1616.000,1636.000,1610.000,1598.000,1601.000,1580.000,1553.000,1516.000,1499.000
3547.227,1637.000,1633.000,1559.000,1634.000,1598.000,1587.000,1578.000,1565.000,1566.000,1543.000
3551.037,1613.000,1583.000,1607.000,1560.000,1629.000,1587.000,1591.000,1558.000,1571.000,1515.000
3554.846,1641.000,1594.000,1601.000,1562.000,1605.000,1593.000,1553.000,1559.000,1569.000,1515.000
3558.653,1663.000,1606.000,1612.000,1605.000,1565.000,1569.000,1593.000,1553.000,1484.000,1538.000
3562.458,1658.000,1624.000,1596.000,1574.000,1588.000,1591.000,1581.000,1553.000,1598.000,1518.000
3566.260,1609.000,1624.000,1606.000,1565.000,1612.000,1603.000,1559.000,1580.000,1528.000,1472.000
3570.061,1609.000,1630.000,1608.000,1603.000,1618.000,1548.000,1521.000,1531.000,1507.000,1494.000
3573.861,1606.000,1602.000,1564.000,1576.000,1602.000,1504.000,1520.000,1558.000,1510.000,1479.000
3577.658,1606.000,1580.000,1575.000,1519.000,1561.000,1561.000,1552.000,1512.000,1531.000,1543.000
3581.453,1630.000,1624.000,1590.000,1551.000,1571.000,1545.000,1540.000,1507.000,1525.000,1502.000
3585.246,1631.000,1588.000,1537.000,1571.000,1550.000,1518.000,1528.000,1530.000,1504.000,1538.000
3589.039,1607.000,1545.000,1545.000,1563.000,1555.000,1553.000,1525.000,1493.000,1494.000,1498.000
3592.828,1608.000,1579.000,1557.000,1537.000,1566.000,1517.000,1512.000,1524.000,1511.000,1500.000
3596.615,1573.000,1611.000,1595.000,1538.000,1587.000,1526.000,1540.000,1516.000,1520.000,1519.000
3600.401,1559.000,1560.000,1542.000,1563.000,1507.000,1524.000,1527.000,1521.000,1466.000,1469.000
3604.186,1611.000,1571.000,1567.000,1586.000,1515.000,1527.000,1515.000,1553.000,1512.000,1491.000
3607.968,1614.000,1601.000,1517.000,1544.000,1530.000,1525.000,1500.000,1486.000,1496.000,1463.000
3611.748,1584.000,1540.000,1552.000,1547.000,1518.000,1528.000,1520.000,1513.000,1492.000,1473.000
3615.526,1567.000,1570.000,1558.000,1545.000,1577.000,1507.000,1517.000,1495.000,1508.000,1984.000
3619.303,1596.000,1555.000,1528.000,1533.000,1552.000,1496.000,1537.000,1484.000,1498.000,1461.000
3623.077,1561.000,1580.000,1529.000,1510.000,1503.000,1527.000,1512.000,1508.000,1478.000,1492.000
3626.850,1595.000,1563.000,1559.000,1541.000,1557.000,1495.000,1517.000,1498.000,1469.000,1495.000
3630.620,1575.000,1569.000,1583.000,1539.000,1529.000,1537.000,1522.000,1503.000,1514.000,1471.000
3634.389,1607.000,1544.000,1532.000,1536.000,1536.000,1520.000,1497.000,1528.000,1513.000,1482.000
3638.157,1572.000,1581.000,1526.000,1508.000,1544.000,1494.000,1471.000,1533.000,1495.000,1442.000
3641.922,1568.000,1574.000,1522.000,1555.000,1525.000,1516.000,1518.000,1467.000,1466.000,1448.000
3645.685,1586.000,1563.000,1544.000,1522.000,1555.000,1517.000,1524.000,1515.000,1500.000,1483.000
3649.447,1556.000,1533.000,1529.000,1526.000,1546.000,1522.000,1524.000,1505.000,1514.000,1457.000
3653.206,1590.000,1546.000,1537.000,1538.000,1521.000,1543.000,1521.000,1532.000,1490.000,1460.000
3656.964,1560.000,1538.000,1555.000,1518.000,1519.000,1478.000,1507.000,1504.000,1503.000,1494.000
3660.719,1591.000,1558.000,1542.000,1586.000,1521.000,1518.000,1538.000,1487.000,1451.000,1488.000
3664.473,1585.000,1559.000,1550.000,1505.000,1523.000,1538.000,1496.000,1490.000,1490.000,1483.000
3668.226,1571.000,1566.000,1504.000,1537.000,1570.000,1521.000,1521.000,1489.000,1471.000,1453.000
3671.976,1597.000,1602.000,1570.000,1557.000,1571.000,1554.000,1528.000,1474.000,1442.000,1492.000
3675.724,1599.000,1586.000,1565.000,1543.000,1555.000,1498.000,1531.000,1515.000,1506.000,1511.000
3679.472,1602.000,1548.000,1572.000,1503.000,1542.000,1561.000,1506.000,1489.000,1497.000,1472.000
3683.216,1606.000,1566.000,1532.000,1539.000,1554.000,1516.000,1548.000,1497.000,1497.000,1460.000
3686.959,1562.000,1550.000,1509.000,1582.000,1529.000,1505.000,1524.000,1491.000,1498.000,1474.000
3690.699,1607.000,1577.000,1555.000,1560.000,1573.000,1532.000,1521.000,1530.000,1490.000,1492.000
3694.438,1604.000,1585.000,1579.000,1521.000,1558.000,1552.000,1538.000,1526.000,1480.000,1492.000
3698.177,1595.000,1568.000,1548.000,1559.000,1536.000,1493.000,1544.000,1506.000,1482.000,1466.000
3701.912,1622.000,1578.000,1551.000,1559.000,1546.000,1518.000,1536.000,1512.000,1518.000,1474.000
3705.645,1583.000,1571.000,1506.000,1558.000,1534.000,1503.000,1489.000,1501.000,1510.000,1456.000
3709.378,1606.000,1594.000,1557.000,1540.000,1553.000,1529.000,1517.000,1529.000,1529.000,1499.000
3713.107,1586.000,1579.000,1545.000,1556.000,1567.000,1489.000,1529.000,1531.000,1499.000,1464.000
3716.835,1586.000,1561.000,1554.000,1539.000,1556.000,1523.000,1506.000,1504.000,1476.000,1495.000
3720.561,1609.000,1579.000,1580.000,1566.000,1565.000,1575.000,1533.000,1478.000,1500.000,1503.000
3724.285,1603.000,1578.000,1567.000,1563.000,1589.000,1570.000,1554.000,1549.000,1526.000,1502.000
3728.008,1590.000,1545.000,1542.000,1518.000,3764.000,1519.000,1511.000,1501.000,1492.000,1534.000
3731.729,1631.000,1583.000,1610.000,1602.000,1593.000,1516.000,1547.000,1548.000,1547.000,1504.000
3735.447,1614.000,1609.000,1581.000,1568.000,1545.000,1550.000,1509.000,1533.000,1508.000,1481.000
3739.165,1587.000,1557.000,1575.000,1554.000,1565.000,1564.000,1517.000,1527.000,1508.000,1482.000
3742.880,1616.000,1639.000,1569.000,1566.000,1576.000,1563.000,1577.000,1536.000,1503.000,1560.000
3746.593,1637.000,1588.000,1577.000,1549.000,1551.000,1548.000,1539.000,1529.000,1523.000,1503.000
3750.304,1611.000,1608.000,1568.000,1578.000,1556.000,1556.000,1547.000,1530.000,1537.000,1499.000
3754.014,1623.000,1585.000,1605.000,1569.000,1591.000,1570.000,1567.000,1513.000,1504.000,1557.000
3757.723,1599.000,1596.000,1563.000,1541.000,1602.000,1566.000,1566.000,1522.000,1534.000,1546.000
3761.428,1600.000,1575.000,1570.000,1559.000,1593.000,1572.000,1550.000,1573.000,1514.000,1519.000
3765.132,1624.000,1605.000,1608.000,1625.000,1572.000,1600.000,1595.000,1585.000,1548.000,1508.000
3768.836,1673.000,1633.000,1607.000,1543.000,1596.000,1571.000,1567.000,1572.000,1530.000,1508.000
3772.536,1622.000,1604.000,1618.000,1565.000,1575.000,1586.000,1563.000,1542.000,1522.000,1522.000
3776.234,1644.000,1618.000,1596.000,1593.000,1579.000,1586.000,1587.000,1575.000,1575.000,1563.000
3779.931,1693.000,1642.000,1615.000,1585.000,1588.000,1597.000,1597.000,1549.000,1573.000,1528.000
3783.626,1634.000,1638.000,1632.000,1602.000,1651.000,1611.000,1597.000,1572.000,1580.000,1551.000
3787.320,1674.000,1610.000,1633.000,1641.000,1620.000,1618.000,1562.000,1574.000,1563.000,1545.000
3791.011,1659.000,1621.000,1605.000,1622.000,1633.000,1615.000,1627.000,1579.000,1582.000,1575.000
3794.701,1667.000,1675.000,1650.000,1592.000,1623.000,1591.000,1579.000,1588.000,1570.000,1599.000
3798.389,1672.000,1631.000,1654.000,1647.000,1616.000,1640.000,1627.000,1586.000,1576.000,1547.000
3802.075,1679.000,1649.000,1636.000,1641.000,1627.000,1598.000,1601.000,1639.000,1545.000,1602.000
3805.759,1676.000,1663.000,1674.000,1659.000,1619.000,1674.000,1604.000,1636.000,1586.000,1581.000
3809.441,1716.000,1683.000,1634.000,1656.000,1665.000,1674.000,1639.000,1631.000,1636.000,1575.000
3813.121,1735.000,1699.000,1668.000,1658.000,1638.000,1624.000,2637.000,1590.000,1619.000,1634.000
3816.801,1750.000,1708.000,1700.000,1728.000,1674.000,1663.000,1660.000,1671.000,1646.000,1656.000
3820.478,1724.000,1724.000,1698.000,1742.000,1704.000,1664.000,1650.000,1705.000,1684.000,1635.000
3824.153,1772.000,1755.000,1764.000,1738.000,1711.000,1704.000,1724.000,1700.000,1658.000,1643.000
3827.827,1760.000,1744.000,1764.000,1755.000,1761.000,1735.000,1731.000,1697.000,1715.000,1682.000
3831.498,1815.000,1798.000,1777.000,1764.000,1748.000,1743.000,2540.000,1720.000,1722.000,1687.000
3835.168,1830.000,1838.000,1808.000,1766.000,1796.000,1772.000,1788.000,1769.000,1747.000,1771.000
3838.835,1846.000,1855.000,1807.000,1849.000,1834.000,1831.000,1980.000,1790.000,1796.000,1795.000
3842.501,1916.000,1841.000,1911.000,1835.000,1909.000,1887.000,1845.000,1834.000,1814.000,1855.000
3846.167,1959.000,1948.000,1937.000,1928.000,1929.000,1941.000,1943.000,1896.000,1887.000,1892.000
3849.829,2070.000,2090.000,2028.000,1989.000,2056.000,2026.000,1987.000,1959.000,1953.000,1976.000