File: Raman/2022_11_26_Nylon6_532nm_DePol_6mW_750mm_600gv_3200wn_iDus_100s_10accum_Pos1.csv
2487.376,772.000,779.000,786.000,786.000,774.000,784.000,770.000,778.000,787.000,746.000
2490.281,776.000,781.000,787.000,781.000,771.000,762.000,767.000,773.000,777.000,771.000
2493.186,785.000,767.000,772.000,774.000,771.000,772.000,767.000,778.000,766.000,770.000
2496.090,770.000,768.000,773.000,774.000,762.000,767.000,770.000,777.000,768.000,769.000
2498.994,774.000,759.000,764.000,783.000,779.000,767.000,761.000,765.000,751.000,763.000
2501.895,767.000,763.000,772.000,766.000,773.000,776.000,770.000,777.000,763.000,757.000
2504.796,764.000,765.000,767.000,778.000,768.000,775.000,769.000,779.000,762.000,773.000
2507.695,758.000,770.000,790.000,775.000,777.000,772.000,778.000,769.000,762.000,763.000
2510.594,771.000,778.000,772.000,770.000,780.000,772.000,757.000,757.000,773.000,768.000
2513.491,761.000,791.000,787.000,766.000,783.000,771.000,771.000,767.000,767.000,772.000
2516.389,767.000,776.000,786.000,788.000,771.000,773.000,764.000,766.000,769.000,773.000
2519.284,788.000,762.000,777.000,787.000,763.000,784.000,799.000,767.000,767.000,761.000
2522.179,770.000,781.000,767.000,772.000,783.000,777.000,795.000,776.000,771.000,790.000
2525.072,795.000,770.000,788.000,799.000,765.000,786.000,779.000,776.000,770.000,779.000
2527.964,780.000,789.000,803.000,801.000,787.000,786.000,771.000,792.000,787.000,789.000
2530.855,795.000,795.000,797.000,786.000,788.000,787.000,797.000,802.000,770.000,776.000
2533.747,789.000,790.000,800.000,796.000,796.000,792.000,799.000,807.000,799.000,790.000
2536.636,799.000,803.000,801.000,805.000,803.000,803.000,792.000,809.000,802.000,800.000
2539.524,818.000,802.000,812.000,805.000,809.000,804.000,787.000,792.000,798.000,817.000
2542.411,806.000,812.000,804.000,811.000,787.000,797.000,810.000,800.000,813.000,797.000
2545.298,810.000,813.000,812.000,824.000,809.000,824.000,808.000,807.000,801.000,806.000
2548.183,813.000,824.000,814.000,801.000,820.000,822.000,803.000,817.000,807.000,823.000
2551.068,821.000,829.000,823.000,835.000,832.000,815.000,829.000,828.000,831.000,814.000
2553.951,839.000,823.000,826.000,843.000,827.000,838.000,838.000,817.000,830.000,836.000
2556.833,831.000,841.000,838.000,852.000,849.000,829.000,831.000,817.000,812.000,824.000
2559.714,838.000,837.000,842.000,843.000,847.000,852.000,866.000,851.000,870.000,837.000
2562.594,862.000,860.000,850.000,871.000,851.000,851.000,860.000,859.000,860.000,856.000
2565.473,871.000,882.000,873.000,874.000,869.000,869.000,855.000,874.000,855.000,856.000
2568.352,884.000,855.000,893.000,888.000,870.000,874.000,852.000,870.000,883.000,863.000
2571.229,870.000,865.000,881.000,890.000,886.000,874.000,874.000,881.000,892.000,881.000
2574.105,881.000,871.000,890.000,868.000,891.000,870.000,879.000,874.000,875.000,880.000
2576.980,862.000,872.000,863.000,856.000,858.000,870.000,859.000,856.000,870.000,874.000
2579.854,896.000,869.000,856.000,857.000,878.000,859.000,858.000,879.000,882.000,886.000
2582.727,869.000,873.000,885.000,856.000,876.000,889.000,875.000,868.000,877.000,869.000
2585.600,888.000,875.000,852.000,878.000,869.000,862.000,876.000,880.000,884.000,879.000
2588.471,880.000,900.000,900.000,888.000,879.000,872.000,893.000,883.000,878.000,902.000
2591.341,902.000,895.000,906.000,902.000,914.000,889.000,901.000,916.000,912.000,894.000
2594.209,922.000,925.000,945.000,921.000,921.000,919.000,928.000,931.000,925.000,931.000
2597.077,960.000,940.000,932.000,962.000,946.000,961.000,948.000,946.000,930.000,951.000
2599.944,970.000,969.000,971.000,961.000,962.000,954.000,974.000,969.000,969.000,968.000
2602.811,994.000,977.000,993.000,996.000,1003.000,978.000,974.000,992.000,987.000,978.000
2605.676,1026.000,1038.000,1011.000,995.000,1003.000,999.000,1019.000,1004.000,1026.000,1014.000
2608.539,1036.000,1039.000,1024.000,1033.000,1000.000,1045.000,1027.000,1018.000,1022.000,1026.000
2611.402,1026.000,1043.000,1031.000,1038.000,1034.000,1015.000,1021.000,1019.000,1043.000,1023.000
2614.264,1029.000,1031.000,1057.000,1008.000,1062.000,1049.000,1042.000,1049.000,1051.000,1036.000
2617.124,1047.000,1046.000,1037.000,1042.000,1032.000,1029.000,1035.000,1047.000,1033.000,1016.000
2619.985,1038.000,1036.000,1024.000,1030.000,1052.000,1053.000,1042.000,1049.000,1028.000,1050.000
2622.844,1024.000,1052.000,1027.000,1024.000,1045.000,1029.000,1031.000,1026.000,1007.000,1049.000
2625.702,1015.000,1033.000,1024.000,1013.000,1044.000,1017.000,1026.000,1014.000,1044.000,1027.000
2628.558,1040.000,1030.000,1016.000,1005.000,1018.000,1027.000,1019.000,1028.000,1044.000,1027.000
2631.414,996.000,1030.000,1006.000,1045.000,1040.000,1011.000,1015.000,1024.000,1010.000,1026.000
2634.268,1007.000,1005.000,1012.000,1035.000,1003.000,1009.000,1024.000,1015.000,1009.000,1021.000
2637.123,1028.000,1026.000,1035.000,1020.000,1025.000,1024.000,1041.000,1009.000,1010.000,988.000
2639.976,1042.000,1034.000,1038.000,1038.000,1037.000,1026.000,1036.000,1043.000,1018.000,1026.000
2642.827,1021.000,1026.000,1027.000,1019.000,1013.000,1029.000,1042.000,1015.000,1012.000,1005.000
2645.678,1020.000,1013.000,1031.000,1022.000,1027.000,1054.000,1000.000,1021.000,1028.000,1030.000
2648.528,1041.000,1030.000,1043.000,1010.000,1032.000,1059.000,1010.000,1032.000,1051.000,1081.000
2651.376,1051.000,1041.000,1046.000,1043.000,1026.000,1032.000,1040.000,1031.000,1045.000,1027.000
2654.225,1053.000,1005.000,1071.000,1040.000,1036.000,1039.000,1037.000,1053.000,1041.000,1037.000
2657.072,1031.000,1021.000,1028.000,1041.000,1053.000,1043.000,1045.000,1043.000,1013.000,1036.000
2659.917,1042.000,1058.000,1040.000,1055.000,1059.000,1046.000,1052.000,1054.000,1061.000,1054.000
2662.762,1086.000,1081.000,1044.000,1063.000,1052.000,1050.000,1966.000,1031.000,1053.000,1057.000
2665.605,1091.000,1057.000,1084.000,1067.000,1063.000,1101.000,1095.000,1078.000,1076.000,1066.000
2668.448,1077.000,1107.000,1091.000,1080.000,1107.000,1071.000,1068.000,1067.000,1095.000,1080.000
2671.291,1106.000,1096.000,1083.000,1098.000,1109.000,1112.000,1099.000,1097.000,1091.000,1085.000
2674.131,1121.000,1134.000,1124.000,1114.000,1115.000,1116.000,1098.000,1120.000,1123.000,1119.000
2676.971,1142.000,1155.000,1118.000,1143.000,1155.000,1131.000,1127.000,1125.000,1164.000,1119.000
2679.809,1183.000,1167.000,1179.000,1154.000,1141.000,1167.000,1176.000,1158.000,1151.000,1187.000
2682.647,1182.000,1184.000,1188.000,1178.000,1186.000,1192.000,1159.000,1203.000,1174.000,1171.000
2685.483,1226.000,1224.000,9278.000,1217.000,1215.000,1227.000,1207.000,1199.000,1217.000,1213.000
2688.320,1274.000,1257.000,1226.000,1240.000,1256.000,1248.000,1238.000,1235.000,1220.000,1224.000
2691.155,1299.000,1291.000,1303.000,1273.000,1293.000,1292.000,1281.000,1303.000,1275.000,1279.000
2693.988,1343.000,1342.000,1338.000,1341.000,1351.000,1342.000,1352.000,1345.000,1311.000,1321.000
2696.821,1384.000,1410.000,1404.000,1397.000,1417.000,1388.000,1407.000,1375.000,1376.000,1407.000
2699.652,1463.000,1513.000,1447.000,1451.000,1440.000,1453.000,1434.000,1451.000,1409.000,1463.000
2702.483,1477.000,1498.000,1526.000,1510.000,1551.000,1491.000,1537.000,1497.000,1508.000,1502.000
2705.314,1554.000,1572.000,1511.000,1546.000,1560.000,1560.000,1539.000,1553.000,1564.000,1566.000
2708.142,1559.000,1551.000,1570.000,1561.000,1578.000,1584.000,1552.000,1574.000,1554.000,1571.000
2710.970,1611.000,1620.000,1587.000,1588.000,1589.000,1614.000,1585.000,1578.000,1587.000,1591.000
2713.796,1616.000,1639.000,1607.000,1612.000,1659.000,1647.000,1641.000,1595.000,1602.000,1653.000
2716.622,1662.000,1650.000,1653.000,1671.000,1692.000,1678.000,1690.000,1670.000,1617.000,1634.000
2719.447,1695.000,1700.000,1696.000,1691.000,1660.000,1704.000,1709.000,1722.000,1713.000,1700.000
2722.272,1776.000,1747.000,1771.000,1747.000,1731.000,1743.000,1767.000,1731.000,1728.000,1731.000
2725.094,1835.000,1803.000,1787.000,1817.000,1813.000,1788.000,1759.000,1808.000,1783.000,1767.000
2727.916,1848.000,1836.000,1846.000,1861.000,1888.000,1869.000,1843.000,1883.000,1853.000,1874.000
2730.736,1930.000,1916.000,1873.000,1890.000,1922.000,1927.000,1893.000,1888.000,1932.000,1905.000
2733.556,1946.000,1950.000,1939.000,1929.000,1900.000,1928.000,1996.000,1946.000,1951.000,1907.000
2736.375,2028.000,2037.000,2001.000,1993.000,1973.000,2027.000,2026.000,1991.000,1980.000,1979.000
2739.194,2000.000,2043.000,2079.000,2075.000,2034.000,3842.000,2059.000,2052.000,2028.000,2086.000
2742.010,2119.000,2089.000,2114.000,2122.000,2110.000,2106.000,2053.000,2145.000,2096.000,2069.000
2744.826,2190.000,2179.000,2212.000,2225.000,2195.000,2134.000,2165.000,2183.000,2154.000,2146.000
2747.641,2252.000,2267.000,2306.000,2265.000,2242.000,2269.000,2231.000,2274.000,2235.000,2218.000
2750.454,2308.000,2312.000,2324.000,2336.000,2323.000,2343.000,2314.000,2302.000,2329.000,2257.000
2753.267,2296.000,2364.000,2335.000,2284.000,2294.000,2316.000,2327.000,2315.000,2314.000,2354.000
2756.080,2258.000,2271.000,2257.000,2245.000,2231.000,2294.000,2255.000,2228.000,2262.000,2299.000
2758.891,2184.000,2148.000,2170.000,2140.000,2183.000,2173.000,2173.000,2198.000,2105.000,2152.000
2761.701,2042.000,2052.000,2018.000,2059.000,2039.000,2078.000,2043.000,2056.000,2058.000,2056.000
2764.509,1974.000,1985.000,1944.000,1904.000,1943.000,1938.000,1900.000,1957.000,1941.000,1908.000
2767.317,1870.000,1824.000,1851.000,1845.000,1846.000,1860.000,1880.000,1887.000,1857.000,1835.000
2770.124,1829.000,1818.000,1792.000,1827.000,1798.000,1804.000,1814.000,1813.000,1855.000,1792.000
2772.931,1741.000,1744.000,1793.000,1752.000,1707.000,1741.000,1794.000,1750.000,1735.000,1695.000
2775.736,1710.000,1728.000,1697.000,1676.000,1697.000,1710.000,1683.000,1724.000,1724.000,1700.000
2778.540,1654.000,1656.000,1612.000,1645.000,1657.000,1643.000,1678.000,1626.000,1663.000,1638.000
2781.343,1627.000,1636.000,1598.000,1644.000,1669.000,1632.000,1617.000,1628.000,1633.000,1588.000
2784.145,1546.000,1560.000,1581.000,1512.000,1555.000,1579.000,1600.000,1556.000,1568.000,1570.000
2786.946,1543.000,1531.000,1532.000,1531.000,1539.000,1505.000,1548.000,1515.000,1523.000,1502.000
2789.747,1504.000,1473.000,1515.000,1466.000,1479.000,1482.000,1510.000,1490.000,1435.000,1467.000
2792.546,1443.000,1466.000,1484.000,1458.000,1488.000,1463.000,1483.000,1465.000,1508.000,1480.000
2795.344,1460.000,1491.000,1429.000,1434.000,1427.000,1416.000,1475.000,1472.000,1442.000,1465.000
2798.141,1464.000,1487.000,1465.000,1448.000,1461.000,1485.000,1458.000,1434.000,1473.000,1467.000
2800.937,1519.000,1459.000,1472.000,1496.000,1473.000,1452.000,1473.000,1491.000,1478.000,1485.000
2803.732,1495.000,1509.000,1476.000,1480.000,1498.000,1464.000,1471.000,1508.000,1475.000,1521.000
2806.527,1560.000,1515.000,1524.000,1542.000,1518.000,1517.000,1549.000,1531.000,1550.000,1533.000
2809.320,1578.000,1585.000,1560.000,1572.000,1575.000,1592.000,1567.000,1604.000,1573.000,1585.000
2812.113,1672.000,1602.000,1635.000,1604.000,1665.000,1629.000,1658.000,1661.000,1659.000,1606.000
2814.904,1723.000,1725.000,1705.000,1763.000,1740.000,1727.000,1719.000,1706.000,1740.000,1720.000
2817.694,1850.000,1818.000,1869.000,1907.000,1835.000,1810.000,1821.000,1824.000,1892.000,1851.000
2820.483,1993.000,2010.000,2025.000,2034.000,2022.000,1991.000,2022.000,2023.000,1998.000,2062.000
2823.273,2245.000,2222.000,2220.000,2253.000,2200.000,2204.000,2199.000,2240.000,2196.000,2244.000
2826.060,2403.000,2407.000,2355.000,2363.000,2384.000,2421.000,2404.000,2399.000,2405.000,2367.000
2828.846,2486.000,2538.000,2556.000,2569.000,2571.000,2539.000,2563.000,2522.000,2542.000,2525.000
2831.631,2683.000,2696.000,2739.000,2682.000,2620.000,2651.000,2746.000,2685.000,2694.000,2629.000
2834.416,2785.000,2746.000,2779.000,2772.000,2794.000,2787.000,2786.000,2801.000,2782.000,2773.000
2837.199,2926.000,2949.000,2987.000,3013.000,2993.000,2931.000,2984.000,2942.000,2941.000,2940.000
2839.983,3229.000,3198.000,3225.000,3192.000,3174.000,3151.000,3242.000,3240.000,3223.000,3209.000
2842.764,3633.000,3553.000,3592.000,3580.000,3592.000,3615.000,3559.000,3544.000,3614.000,3557.000
2845.545,4210.000,4174.000,4173.000,4173.000,4199.000,4137.000,4181.000,4127.000,4153.000,4171.000
2848.324,5180.000,5195.000,5227.000,5161.000,5194.000,5155.000,5105.000,5164.000,5102.000,5079.000
2851.103,6765.000,6695.000,6731.000,6787.000,6737.000,6726.000,6707.000,6646.000,6734.000,6720.000
2853.880,9294.000,9158.000,9239.000,9203.000,9313.000,9228.000,9247.000,9196.000,9305.000,9299.000
2856.658,12585.000,12552.000,12614.000,12640.000,12451.000,12538.000,12533.000,12486.000,12545.000,12375.000
2859.434,15678.000,15512.000,15605.000,15459.000,15446.000,15468.000,15415.000,15529.000,15466.000,15483.000
2862.208,17344.000,17608.000,17570.000,17440.000,17456.000,17452.000,17380.000,17409.000,17429.000,17379.000
2864.982,18384.000,18373.000,18210.000,18302.000,18225.000,18189.000,18201.000,18160.000,18287.000,18289.000
2867.755,18889.000,18750.000,18950.000,18795.000,18617.000,18608.000,18704.000,18836.000,18834.000,18848.000
2870.526,19558.000,19730.000,19512.000,19698.000,19619.000,19662.000,19539.000,19648.000,19688.000,19689.000
2873.299,20913.000,20735.000,20825.000,20771.000,20901.000,20805.000,20812.000,20781.000,20741.000,20957.000
2876.068,21830.000,21585.000,21746.000,21596.000,21791.000,21656.000,21604.000,21827.000,21686.000,21669.000
2878.837,22573.000,22543.000,22633.000,22664.000,22520.000,22570.000,22563.000,22638.000,22471.000,22444.000
2881.605,22892.000,22886.000,22762.000,22908.000,22801.000,22752.000,22953.000,22809.000,22841.000,22808.000
2884.372,22212.000,22291.000,22418.000,22237.000,22420.000,22273.000,22299.000,22488.000,22271.000,22169.000
2887.138,21611.000,21596.000,21670.000,21703.000,21557.000,21570.000,21546.000,21512.000,21547.000,21667.000
2889.904,20523.000,20551.000,20717.000,20435.000,20425.000,20488.000,20511.000,20624.000,20490.000,20703.000
2892.668,19745.000,19664.000,19990.000,19595.000,19763.000,19678.000,19714.000,19757.000,19664.000,19668.000
2895.432,19761.000,19700.000,19685.000,19781.000,19641.000,19737.000,19616.000,19703.000,19907.000,19550.000
2898.194,20322.000,20548.000,20552.000,20386.000,20322.000,20472.000,20389.000,20446.000,20221.000,20497.000
2900.955,21997.000,21941.000,21827.000,21991.000,21867.000,21874.000,21932.000,22062.000,21788.000,21832.000
2903.715,24408.000,24491.000,24183.000,24264.000,24167.000,24057.000,24241.000,24246.000,24342.000,24322.000
2906.476,26434.000,26385.000,26280.000,26306.000,26489.000,26383.000,26283.000,26498.000,26336.000,26287.000
2909.234,26828.000,26843.000,26787.000,26821.000,26878.000,26735.000,26587.000,26651.000,26821.000,26765.000
2911.991,26418.000,26200.000,26213.000,26209.000,26259.000,26467.000,26313.000,26211.000,26187.000,26194.000
2914.748,25210.000,25025.000,24930.000,25109.000,25133.000,25022.000,24939.000,24980.000,25022.000,24932.000
2917.503,23612.000,23824.000,23637.000,23664.000,23752.000,23523.000,23543.000,23587.000,23521.000,23597.000
2920.257,22558.000,22652.000,22746.000,22816.000,22546.000,22610.000,22605.000,22728.000,22543.000,22561.000
2923.012,21640.000,21705.000,21718.000,21589.000,21803.000,21575.000,21593.000,21647.000,21512.000,21725.000
2925.765,21196.000,21212.000,21281.000,21152.000,21227.000,20973.000,21089.000,21038.000,20998.000,21081.000
2928.516,21571.000,21526.000,21463.000,21642.000,21406.000,21334.000,21374.000,21523.000,21534.000,21485.000
2931.267,22252.000,22257.000,22243.000,22261.000,22258.000,22295.000,22183.000,22345.000,22212.000,22238.000
2934.017,22838.000,22801.000,22872.000,22772.000,22926.000,22776.000,22851.000,22738.000,22834.000,22872.000
2936.765,22857.000,22907.000,23065.000,22948.000,22837.000,22894.000,22870.000,22859.000,22931.000,22885.000
2939.515,21954.000,22055.000,22042.000,21920.000,21891.000,21874.000,21819.000,21852.000,21881.000,21721.000
2942.261,20513.000,20670.000,20777.000,20565.000,20671.000,20501.000,20506.000,20656.000,20555.000,20579.000
2945.007,19186.000,19273.000,19328.000,19209.000,19228.000,19351.000,19177.000,19104.000,19163.000,19016.000
2947.752,17364.000,17374.000,17279.000,17342.000,17389.000,17273.000,17479.000,17552.000,17331.000,17221.000
2950.496,15461.000,15330.000,15398.000,15511.000,15528.000,15387.000,15468.000,15318.000,15264.000,15397.000
2953.239,13837.000,13942.000,13908.000,13829.000,14009.000,13826.000,13892.000,13779.000,13865.000,13888.000
2955.983,12572.000,12499.000,12612.000,12487.000,12431.000,12359.000,12395.000,12396.000,12449.000,12485.000
2958.724,11312.000,11289.000,11341.000,11374.000,11273.000,11224.000,11309.000,11385.000,11356.000,11159.000
2961.464,10271.000,10431.000,10397.000,10358.000,10329.000,10403.000,10375.000,10265.000,10330.000,10242.000
2964.203,9528.000,9440.000,9481.000,9399.000,9422.000,9363.000,9440.000,9464.000,9447.000,9462.000
2966.941,8772.000,8733.000,8784.000,8808.000,8806.000,8692.000,8726.000,8756.000,8779.000,8796.000
2969.679,8223.000,8248.000,8253.000,8321.000,8168.000,8319.000,8162.000,8191.000,8144.000,8283.000
2972.417,7519.000,7495.000,7613.000,7531.000,7463.000,7485.000,7587.000,7500.000,7426.000,7597.000
2975.152,6701.000,6813.000,6733.000,6792.000,6689.000,6783.000,7193.000,6748.000,6730.000,6708.000
2977.886,5996.000,5945.000,6031.000,6028.000,6037.000,6000.000,5941.000,5955.000,6023.000,5884.000
2980.620,5223.000,5221.000,5208.000,5280.000,5139.000,5116.000,5113.000,5190.000,5214.000,5179.000
2983.353,4531.000,4533.000,4561.000,4553.000,4492.000,4511.000,4526.000,4548.000,4594.000,4569.000
2986.084,4021.000,4036.000,3974.000,4137.000,4033.000,4007.000,4037.000,4070.000,4094.000,4041.000
2988.816,3677.000,3579.000,3669.000,3646.000,3595.000,3643.000,3577.000,3609.000,3628.000,3533.000
2991.546,3283.000,3286.000,3262.000,3243.000,3229.000,3314.000,3190.000,3273.000,3291.000,3294.000
2994.275,3069.000,2954.000,2967.000,2977.000,3007.000,2927.000,2993.000,3019.000,2943.000,2976.000
2997.003,2764.000,2733.000,2716.000,2733.000,2743.000,2717.000,2758.000,2746.000,2703.000,2674.000
2999.730,2530.000,2537.000,2547.000,2538.000,2501.000,2570.000,2556.000,2508.000,2535.000,2504.000
3002.456,2340.000,2541.000,2357.000,2424.000,2402.000,2375.000,2376.000,2366.000,2368.000,2364.000
3005.182,2175.000,2207.000,2265.000,2238.000,2245.000,2216.000,2148.000,2163.000,2242.000,2225.000
3007.906,2130.000,2151.000,2110.000,2140.000,2118.000,2100.000,2115.000,2096.000,2141.000,2303.000
3010.629,2054.000,2021.000,2024.000,2042.000,2030.000,2009.000,2013.000,1976.000,1983.000,2031.000
3013.352,1904.000,1901.000,1892.000,1925.000,1932.000,1921.000,1938.000,1939.000,1898.000,1881.000
3016.073,1848.000,1861.000,1847.000,1856.000,1830.000,1860.000,1874.000,1822.000,1836.000,1895.000
3018.793,1787.000,1795.000,1749.000,1788.000,1771.000,1811.000,1753.000,1767.000,1765.000,1800.000
3021.514,1700.000,1724.000,1672.000,1684.000,1723.000,1691.000,1699.000,1713.000,1669.000,1675.000
3024.233,1656.000,1678.000,1644.000,1645.000,1647.000,1655.000,1643.000,1642.000,1648.000,1688.000
3026.950,1642.000,1647.000,1640.000,1635.000,1664.000,1610.000,1613.000,1616.000,1641.000,1646.000
3029.667,1591.000,1601.000,1584.000,1591.000,1573.000,1580.000,1603.000,1577.000,1595.000,1590.000
3032.382,1595.000,1554.000,1564.000,1523.000,1625.000,1570.000,1505.000,1555.000,1565.000,1547.000
3035.097,1538.000,1552.000,1534.000,1548.000,1532.000,1518.000,1527.000,1503.000,1532.000,1537.000
3037.812,1509.000,1551.000,1489.000,1468.000,1490.000,1507.000,1491.000,1517.000,1489.000,1502.000
3040.525,1500.000,1482.000,1457.000,1474.000,1435.000,1447.000,1458.000,1470.000,1453.000,1493.000
3043.237,1456.000,1457.000,1479.000,1443.000,1493.000,1488.000,1487.000,1444.000,1478.000,1478.000
3045.948,1447.000,1447.000,1471.000,1419.000,1453.000,1462.000,1464.000,1431.000,1438.000,1419.000
3048.658,1414.000,1461.000,1462.000,1425.000,1435.000,1450.000,1450.000,1457.000,1453.000,1420.000
3051.367,1456.000,1463.000,1445.000,1440.000,1424.000,1451.000,1419.000,1397.000,1453.000,1438.000
3054.077,1448.000,1435.000,1454.000,1436.000,1450.000,1445.000,1443.000,1442.000,1439.000,1437.000
3056.784,1440.000,1461.000,1464.000,1448.000,1480.000,1432.000,1425.000,1443.000,1451.000,1449.000
3059.491,1443.000,1465.000,1464.000,1467.000,1448.000,1441.000,1468.000,1458.000,1453.000,1469.000
3062.196,1446.000,1449.000,1431.000,1453.000,1483.000,1445.000,1445.000,1463.000,1447.000,1456.000
3064.900,1457.000,1458.000,1482.000,1510.000,1453.000,1435.000,1458.000,1465.000,1470.000,1435.000
3067.604,1466.000,1530.000,1498.000,1503.000,1449.000,1470.000,1455.000,1485.000,1486.000,1484.000
3070.308,1458.000,1438.000,1503.000,1444.000,1469.000,1455.000,1471.000,1463.000,1463.000,1452.000
3073.010,1494.000,1471.000,1468.000,1495.000,1494.000,1462.000,1457.000,1492.000,1457.000,1438.000
3075.711,1467.000,1446.000,1445.000,1482.000,1446.000,1468.000,1448.000,1451.000,1479.000,1439.000
3078.410,1426.000,1454.000,1429.000,1465.000,1421.000,1418.000,1415.000,1409.000,1462.000,1409.000
3081.109,1410.000,1405.000,1414.000,1421.000,1420.000,1415.000,1408.000,1423.000,1385.000,1417.000
3083.807,1402.000,1397.000,1400.000,1384.000,1412.000,1385.000,1396.000,1402.000,1383.000,1401.000
3086.506,1366.000,1364.000,1377.000,1332.000,1388.000,1373.000,1344.000,1393.000,1362.000,1380.000
3089.202,1352.000,1353.000,1319.000,1363.000,1358.000,1344.000,1320.000,1356.000,1347.000,1365.000
3091.897,1299.000,1331.000,1328.000,1342.000,1363.000,1296.000,1320.000,1339.000,1304.000,1325.000
3094.591,1329.000,1330.000,1283.000,1284.000,1305.000,1331.000,1307.000,1317.000,1308.000,1301.000
3097.285,1285.000,1279.000,1281.000,1315.000,1290.000,1276.000,1314.000,1299.000,1275.000,1263.000
3099.977,1293.000,1251.000,1248.000,1238.000,1287.000,1264.000,1230.000,1246.000,1217.000,1235.000
3102.670,1228.000,1251.000,1223.000,1225.000,1242.000,1228.000,1214.000,1238.000,1226.000,1223.000
3105.361,1218.000,1214.000,1208.000,1221.000,1212.000,1198.000,1214.000,1225.000,1231.000,1200.000
3108.050,1196.000,1166.000,1198.000,1170.000,1167.000,1171.000,1158.000,1172.000,1154.000,1166.000
3110.739,1136.000,1136.000,1159.000,1140.000,1151.000,1179.000,1180.000,1155.000,1142.000,1138.000
3113.427,1146.000,1109.000,1135.000,1147.000,1149.000,1137.000,1146.000,1144.000,1137.000,1134.000
3116.114,1118.000,1096.000,1114.000,1101.000,1107.000,1119.000,1115.000,1099.000,1102.000,1134.000
3118.801,1087.000,1057.000,1086.000,1106.000,1077.000,1077.000,1105.000,1074.000,1081.000,1078.000
3121.486,1072.000,1069.000,1079.000,1074.000,1077.000,1052.000,1065.000,1062.000,1048.000,1063.000
3124.170,1037.000,1057.000,1050.000,1046.000,1093.000,1047.000,1060.000,1060.000,1052.000,1045.000
3126.853,1040.000,1045.000,1018.000,1068.000,1045.000,1057.000,1056.000,1039.000,1063.000,1044.000
3129.536,1011.000,1045.000,1027.000,1037.000,1018.000,1063.000,1036.000,1029.000,1014.000,1027.000
3132.217,1018.000,1040.000,1018.000,1009.000,1028.000,1016.000,1021.000,1041.000,1004.000,1031.000
3134.899,1010.000,1008.000,1012.000,996.000,1026.000,1003.000,997.000,997.000,1022.000,969.000
3137.579,993.000,974.000,1004.000,1014.000,996.000,1000.000,989.000,996.000,1005.000,981.000
3140.257,998.000,986.000,991.000,1002.000,988.000,998.000,995.000,973.000,985.000,998.000
3142.935,987.000,998.000,1006.000,993.000,991.000,983.000,987.000,981.000,987.000,991.000
3145.612,1008.000,978.000,977.000,971.000,978.000,965.000,987.000,967.000,968.000,989.000
3148.288,978.000,974.000,971.000,975.000,963.000,958.000,978.000,983.000,977.000,990.000
3150.964,970.000,972.000,976.000,980.000,961.000,991.000,969.000,953.000,982.000,970.000
3153.638,953.000,980.000,949.000,973.000,965.000,967.000,969.000,976.000,972.000,963.000
3156.311,979.000,987.000,967.000,956.000,953.000,966.000,960.000,965.000,959.000,960.000
3158.983,965.000,974.000,971.000,946.000,942.000,945.000,959.000,969.000,979.000,949.000
3161.655,965.000,969.000,969.000,973.000,961.000,973.000,984.000,953.000,979.000,969.000
3164.325,984.000,975.000,969.000,970.000,975.000,971.000,959.000,984.000,975.000,979.000
3166.996,992.000,968.000,959.000,972.000,958.000,960.000,972.000,976.000,962.000,970.000
3169.665,987.000,975.000,978.000,971.000,963.000,969.000,964.000,983.000,958.000,967.000
3172.332,973.000,990.000,1003.000,984.000,989.000,968.000,979.000,989.000,991.000,973.000
3174.999,994.000,1004.000,993.000,966.000,980.000,978.000,979.000,1004.000,968.000,993.000
3177.665,1001.000,987.000,1000.000,1014.000,999.000,1012.000,999.000,991.000,1003.000,1010.000
3180.330,1014.000,1033.000,1013.000,1001.000,999.000,1015.000,1009.000,988.000,1018.000,1007.000
3182.995,1026.000,1034.000,1022.000,1045.000,1020.000,1019.000,1029.000,1031.000,1011.000,995.000
3185.658,1021.000,1039.000,1047.000,1040.000,1039.000,1030.000,1026.000,1027.000,1030.000,1043.000
3188.320,1047.000,1052.000,1022.000,1064.000,1069.000,1060.000,1043.000,1043.000,1067.000,1015.000
3190.982,1064.000,1065.000,1075.000,1045.000,1055.000,1031.000,1038.000,1051.000,1085.000,1075.000
3193.642,1063.000,1080.000,1066.000,1053.000,1074.000,1090.000,1050.000,1067.000,1306.000,1045.000
3196.302,1085.000,1440.000,1095.000,1085.000,1060.000,1073.000,1066.000,1076.000,1115.000,1060.000
3198.962,1075.000,1091.000,1111.000,1058.000,1088.000,1090.000,1095.000,1084.000,1070.000,1069.000
3201.619,1059.000,1104.000,1086.000,1103.000,1093.000,1097.000,1087.000,1099.000,1107.000,1114.000
3204.276,1104.000,1112.000,1116.000,1092.000,1133.000,1086.000,1109.000,1097.000,1120.000,1087.000
3206.932,1098.000,1109.000,1135.000,1105.000,1121.000,1122.000,1127.000,1059.000,1126.000,1118.000
3209.587,1137.000,1135.000,1134.000,1123.000,1150.000,1117.000,1107.000,1137.000,1102.000,1377.000
3212.241,1143.000,1156.000,1129.000,1111.000,1148.000,1141.000,1123.000,1145.000,1150.000,1159.000
3214.895,1135.000,1138.000,1128.000,1137.000,1111.000,1145.000,1155.000,1156.000,1141.000,1144.000
3217.548,1141.000,1128.000,1160.000,1147.000,1157.000,1155.000,1165.000,1137.000,1139.000,1302.000
3220.199,1129.000,1172.000,1156.000,1177.000,1173.000,1148.000,1158.000,1151.000,1162.000,1162.000
3222.849,1151.000,1154.000,1158.000,1173.000,1337.000,1173.000,1155.000,1181.000,1189.000,1164.000
3225.499,1170.000,1164.000,1205.000,1173.000,1198.000,1167.000,1159.000,1171.000,1185.000,1175.000
3228.148,1210.000,1170.000,1209.000,1209.000,1211.000,1193.000,1186.000,1216.000,1183.000,1198.000
3230.797,1203.000,1236.000,1202.000,1220.000,1204.000,1222.000,1213.000,1220.000,1187.000,1205.000
3233.444,1217.000,1240.000,1255.000,1236.000,1245.000,1225.000,1245.000,1223.000,1249.000,1219.000
3236.090,1288.000,1278.000,1279.000,1246.000,1288.000,1255.000,1261.000,1236.000,1263.000,1263.000
3238.735,1319.000,1305.000,1307.000,1311.000,1293.000,1281.000,1278.000,1281.000,1303.000,1313.000
3241.379,1332.000,1321.000,1343.000,1352.000,1332.000,1323.000,1314.000,1332.000,1328.000,1318.000
3244.022,1362.000,1416.000,1407.000,1380.000,1381.000,1379.000,1375.000,1356.000,1360.000,1407.000
3246.666,1437.000,1449.000,1414.000,1397.000,1431.000,1425.000,1397.000,1419.000,1453.000,1445.000
3249.307,1451.000,1465.000,1476.000,1462.000,1455.000,1509.000,1474.000,1466.000,1492.000,1482.000
3251.948,1569.000,1543.000,1542.000,1553.000,1533.000,1581.000,1538.000,1509.000,1507.000,1526.000
3254.587,1607.000,1600.000,1616.000,1620.000,1581.000,1573.000,1613.000,1599.000,1546.000,1588.000
3257.226,1677.000,1652.000,1635.000,1650.000,1670.000,1641.000,1648.000,1628.000,1647.000,1640.000
3259.864,1719.000,1726.000,1747.000,1721.000,1751.000,1748.000,1728.000,1740.000,1728.000,1724.000
3262.502,1769.000,1825.000,1791.000,1823.000,1816.000,1777.000,1804.000,1796.000,1781.000,1796.000
3265.138,1852.000,1850.000,1890.000,1903.000,1878.000,1879.000,1905.000,1846.000,1880.000,1868.000
3267.773,1936.000,1951.000,1954.000,1986.000,1981.000,1946.000,1968.000,1940.000,1976.000,1959.000
3270.408,2091.000,2051.000,2062.000,2078.000,2026.000,2093.000,2052.000,2054.000,2080.000,2018.000
3273.041,2192.000,2215.000,2183.000,2192.000,2179.000,2166.000,2172.000,2172.000,2172.000,2175.000
3275.674,2277.000,2312.000,2329.000,2300.000,2285.000,2298.000,2297.000,2282.000,2272.000,2280.000
3278.305,2419.000,2415.000,2407.000,2393.000,2400.000,2386.000,2430.000,2439.000,2440.000,2431.000
3280.937,2507.000,2563.000,2547.000,2532.000,2541.000,2575.000,2547.000,2546.000,2569.000,2520.000
3283.567,2728.000,2709.000,2747.000,2730.000,2723.000,2665.000,2756.000,2725.000,2724.000,2750.000
3286.196,2963.000,2951.000,2933.000,2946.000,2981.000,2969.000,2911.000,2977.000,2959.000,2970.000
3288.824,3203.000,3175.000,3277.000,3177.000,3193.000,3222.000,3177.000,3230.000,3184.000,3226.000
3291.451,3571.000,3550.000,3600.000,3612.000,3566.000,3585.000,3615.000,3591.000,3535.000,3578.000
3294.079,4112.000,4151.000,4168.000,4059.000,4095.000,4060.000,4080.000,4131.000,4129.000,4064.000
3296.704,4692.000,4722.000,4754.000,4770.000,4694.000,4702.000,4678.000,4717.000,4709.000,4755.000
3299.329,5380.000,5408.000,5392.000,5491.000,5383.000,5438.000,5368.000,5427.000,5386.000,5439.000
3301.952,5852.000,5867.000,5891.000,5903.000,5875.000,5874.000,5879.000,5872.000,5832.000,5822.000
3304.575,5673.000,5771.000,5858.000,5838.000,5796.000,5808.000,5803.000,5855.000,5803.000,5778.000
3307.197,5391.000,5486.000,5311.000,5445.000,5355.000,5381.000,5367.000,5391.000,5410.000,5418.000
3309.818,4965.000,4979.000,4882.000,4895.000,4931.000,4963.000,4857.000,4904.000,4833.000,4862.000
3312.439,4415.000,4345.000,4366.000,4475.000,4412.000,4361.000,4472.000,4368.000,4378.000,4398.000
3315.058,4031.000,3988.000,3941.000,4058.000,4060.000,4005.000,3998.000,3955.000,4033.000,3947.000
3317.676,3731.000,3715.000,3700.000,3687.000,3721.000,3726.000,3682.000,3713.000,3755.000,3679.000
3320.294,3474.000,3476.000,3494.000,3484.000,3491.000,3517.000,3464.000,3494.000,3482.000,3416.000
3322.910,3243.000,3250.000,3322.000,3322.000,3275.000,3222.000,3243.000,3258.000,3300.000,3252.000
3325.527,3128.000,3129.000,3117.000,3099.000,3145.000,3111.000,3063.000,3133.000,3050.000,3114.000
3328.142,2902.000,2877.000,2927.000,2921.000,2906.000,2883.000,2960.000,2886.000,2914.000,2948.000
3330.756,2697.000,2707.000,2680.000,2625.000,2694.000,2724.000,2674.000,2648.000,2713.000,2653.000
3333.369,2489.000,2540.000,2526.000,2540.000,2525.000,2498.000,2545.000,2522.000,2503.000,2565.000
3335.981,2307.000,2385.000,2415.000,2362.000,2351.000,2349.000,2334.000,2348.000,2330.000,2331.000
3338.592,2181.000,2221.000,2210.000,2161.000,2211.000,2233.000,2205.000,2196.000,2198.000,2173.000
3341.202,2078.000,2082.000,2061.000,2127.000,2125.000,2086.000,2094.000,2080.000,2066.000,2050.000
3343.813,2007.000,2001.000,1989.000,1957.000,2006.000,1976.000,1990.000,1991.000,1975.000,2029.000
3346.422,1841.000,1881.000,1866.000,1914.000,1899.000,1858.000,1845.000,1841.000,1879.000,1845.000
3349.029,1815.000,1801.000,1814.000,1773.000,1789.000,1808.000,1808.000,1798.000,1807.000,1778.000
3351.636,1752.000,1729.000,1769.000,1746.000,1731.000,1705.000,1734.000,1718.000,1749.000,1688.000
3354.242,1650.000,1655.000,1653.000,1660.000,1629.000,1619.000,1651.000,1626.000,1664.000,1620.000
3356.848,1609.000,1614.000,1608.000,1603.000,1557.000,1566.000,1593.000,1574.000,1616.000,1581.000
3359.453,1528.000,1539.000,1533.000,1573.000,1546.000,1537.000,1523.000,1518.000,1526.000,1510.000
3362.056,1443.000,1486.000,1457.000,1474.000,1499.000,1450.000,1494.000,1487.000,1486.000,1481.000
3364.658,1413.000,1396.000,1433.000,1397.000,1418.000,1395.000,1442.000,1432.000,1424.000,1389.000
3367.260,1392.000,1396.000,1384.000,1400.000,1376.000,1387.000,1388.000,1387.000,1381.000,1378.000
3369.860,1370.000,1333.000,1348.000,1336.000,1333.000,1361.000,1355.000,1333.000,1342.000,1337.000
3372.460,1319.000,1310.000,1317.000,1303.000,1304.000,1293.000,1311.000,1304.000,1288.000,1328.000
3375.060,1273.000,1281.000,1263.000,1283.000,1297.000,1273.000,1268.000,1298.000,1284.000,1292.000
3377.658,1279.000,1260.000,1239.000,1276.000,1277.000,1255.000,1245.000,1258.000,1254.000,1231.000
3380.256,1254.000,1224.000,1254.000,1226.000,1217.000,1222.000,1191.000,1228.000,1229.000,1241.000
3382.852,1211.000,1204.000,1208.000,1247.000,1229.000,1211.000,1243.000,1213.000,1200.000,1218.000
3385.447,1156.000,1179.000,1182.000,1157.000,1182.000,1198.000,1170.000,1172.000,1215.000,1190.000
3388.043,1149.000,1167.000,1170.000,1189.000,1185.000,1163.000,1188.000,1146.000,1186.000,1166.000
3390.637,1164.000,1175.000,1173.000,1164.000,1170.000,1151.000,1167.000,1152.000,1154.000,1154.000
3393.229,1150.000,1141.000,1154.000,1139.000,1123.000,1139.000,1110.000,1139.000,1130.000,1154.000
3395.821,1138.000,1116.000,1109.000,1147.000,1157.000,1114.000,1132.000,1128.000,1144.000,1102.000
3398.412,1121.000,1096.000,1142.000,1113.000,1121.000,1099.000,1100.000,1109.000,1107.000,1114.000
3401.002,1104.000,1109.000,1110.000,1103.000,1139.000,1090.000,1135.000,1102.000,1082.000,1096.000
3403.592,1065.000,1100.000,1075.000,1110.000,1061.000,1110.000,1083.000,1087.000,1076.000,1087.000
3406.182,1091.000,1069.000,1083.000,1071.000,1054.000,1081.000,1066.000,1059.000,1092.000,1096.000
3408.769,1074.000,1087.000,1089.000,1063.000,1085.000,1080.000,1066.000,1075.000,1086.000,1063.000
3411.356,1074.000,1075.000,1081.000,1077.000,1067.000,1073.000,1050.000,1060.000,1092.000,1063.000
3413.941,1069.000,1055.000,1070.000,1049.000,1063.000,1046.000,1065.000,1067.000,1048.000,1044.000
3416.526,1049.000,1053.000,1058.000,1056.000,1087.000,1045.000,1058.000,1050.000,1032.000,1032.000
3419.112,1053.000,1050.000,1042.000,1048.000,1059.000,1044.000,1052.000,1027.000,1043.000,1032.000
3421.695,1052.000,1057.000,1044.000,1039.000,1020.000,1043.000,1025.000,1044.000,1047.000,1037.000
3424.277,1020.000,1049.000,1057.000,1045.000,1057.000,1043.000,1016.000,1041.000,1038.000,1042.000
3426.859,1017.000,1038.000,1029.000,1021.000,1032.000,1016.000,1024.000,1022.000,1030.000,1038.000
3429.439,1003.000,1034.000,1039.000,1024.000,1029.000,1048.000,1028.000,1016.000,1035.000,1010.000
3432.019,1027.000,1009.000,1023.000,1031.000,1026.000,1021.000,1009.000,1033.000,1042.000,1016.000
3434.598,1019.000,1029.000,1024.000,1032.000,1008.000,1022.000,1025.000,993.000,1036.000,1026.000
3437.177,1013.000,1004.000,1011.000,1006.000,1025.000,1003.000,996.000,1018.000,1021.000,1007.000
3439.754,1006.000,1018.000,1001.000,995.000,1010.000,1022.000,997.000,1023.000,984.000,1018.000
3442.331,999.000,1004.000,1009.000,997.000,1006.000,1009.000,991.000,1008.000,997.000,1009.000
3444.906,983.000,997.000,988.000,970.000,1001.000,981.000,1003.000,985.000,970.000,995.000
3447.481,1023.000,991.000,1012.000,1002.000,996.000,1021.000,1022.000,995.000,996.000,994.000
3450.056,1011.000,1000.000,995.000,974.000,975.000,1022.000,992.000,1008.000,1035.000,1002.000
3452.628,971.000,976.000,993.000,1000.000,997.000,999.000,983.000,988.000,1004.000,973.000
3455.200,970.000,988.000,985.000,998.000,968.000,998.000,978.000,985.000,959.000,967.000
3457.771,962.000,979.000,974.000,976.000,978.000,973.000,993.000,965.000,966.000,995.000
3460.342,950.000,981.000,983.000,977.000,939.000,946.000,932.000,939.000,978.000,979.000
3462.911,934.000,957.000,953.000,943.000,945.000,937.000,961.000,958.000,939.000,965.000
3465.479,946.000,942.000,935.000,945.000,932.000,965.000,920.000,950.000,922.000,944.000
3468.048,932.000,937.000,940.000,921.000,900.000,926.000,944.000,901.000,936.000,924.000
3470.615,916.000,946.000,906.000,930.000,915.000,925.000,914.000,924.000,908.000,933.000
3473.181,923.000,909.000,878.000,889.000,915.000,898.000,904.000,894.000,901.000,909.000
3475.746,890.000,909.000,905.000,911.000,914.000,910.000,1295.000,916.000,894.000,895.000
3478.310,863.000,890.000,905.000,884.000,887.000,904.000,883.000,889.000,903.000,881.000
3480.875,889.000,894.000,870.000,901.000,875.000,893.000,891.000,884.000,888.000,899.000
3483.438,887.000,892.000,889.000,890.000,892.000,884.000,887.000,882.000,887.000,886.000
3485.999,871.000,891.000,873.000,866.000,875.000,870.000,887.000,867.000,872.000,864.000
3488.560,873.000,877.000,879.000,868.000,860.000,871.000,863.000,863.000,871.000,852.000
3491.120,874.000,861.000,877.000,859.000,860.000,864.000,872.000,876.000,869.000,853.000
3493.679,838.000,858.000,852.000,863.000,873.000,862.000,861.000,852.000,858.000,859.000
3496.237,852.000,849.000,869.000,851.000,855.000,856.000,849.000,854.000,846.000,866.000
3498.796,854.000,869.000,855.000,854.000,848.000,851.000,854.000,861.000,841.000,847.000
3501.352,849.000,842.000,858.000,841.000,845.000,844.000,848.000,845.000,844.000,847.000
3503.908,849.000,842.000,840.000,850.000,848.000,834.000,853.000,834.000,853.000,830.000
3506.463,843.000,830.000,837.000,838.000,846.000,846.000,864.000,840.000,861.000,853.000
3509.017,845.000,844.000,847.000,836.000,818.000,839.000,856.000,839.000,858.000,832.000
3511.570,840.000,835.000,841.000,841.000,831.000,844.000,834.000,828.000,821.000,826.000
3514.123,830.000,823.000,845.000,830.000,822.000,838.000,830.000,832.000,832.000,827.000
3516.675,820.000,837.000,831.000,838.000,840.000,820.000,832.000,829.000,847.000,825.000
3519.225,817.000,831.000,830.000,836.000,819.000,831.000,815.000,819.000,811.000,821.000
3521.775,829.000,822.000,805.000,826.000,821.000,825.000,822.000,821.000,824.000,827.000
3524.324,831.000,821.000,820.000,828.000,831.000,829.000,821.000,811.000,813.000,822.000
3526.871,824.000,817.000,810.000,820.000,806.000,823.000,811.000,824.000,813.000,819.000
3529.420,816.000,814.000,825.000,798.000,826.000,812.000,824.000,811.000,818.000,800.000
3531.966,817.000,795.000,809.000,817.000,824.000,794.000,804.000,799.000,821.000,798.000
3534.512,805.000,813.000,822.000,814.000,822.000,827.000,802.000,810.000,812.000,813.000
3537.056,792.000,807.000,806.000,814.000,792.000,810.000,822.000,813.000,803.000,800.000
3539.600,807.000,808.000,825.000,811.000,812.000,792.000,816.000,803.000,794.000,793.000
3542.143,804.000,803.000,801.000,796.000,810.000,795.000,793.000,799.000,792.000,801.000
3544.686,795.000,809.000,795.000,804.000,799.000,804.000,796.000,806.000,801.000,787.000
3547.227,803.000,798.000,797.000,802.000,791.000,806.000,814.000,799.000,778.000,800.000
3549.768,794.000,791.000,784.000,778.000,785.000,788.000,793.000,785.000,775.000,796.000
3552.307,785.000,774.000,790.000,795.000,779.000,787.000,787.000,795.000,781.000,787.000
3554.846,802.000,768.000,790.000,784.000,790.000,790.000,798.000,783.000,781.000,793.000
3557.383,777.000,797.000,780.000,783.000,785.000,803.000,799.000,784.000,779.000,787.000
3559.922,794.000,787.000,779.000,785.000,775.000,799.000,801.000,788.000,773.000,770.000
3562.458,784.000,778.000,779.000,797.000,780.000,778.000,800.000,792.000,784.000,777.000
3564.993,777.000,790.000,792.000,799.000,791.000,771.000,797.000,793.000,780.000,771.000
3567.528,786.000,785.000,781.000,789.000,775.000,775.000,766.000,774.000,777.000,786.000
3570.061,768.000,801.000,793.000,780.000,786.000,793.000,796.000,784.000,771.000,791.000
3572.594,786.000,778.000,784.000,789.000,763.000,771.000,786.000,787.000,784.000,769.000
3575.127,798.000,784.000,788.000,786.000,778.000,783.000,766.000,783.000,750.000,773.000
3577.658,775.000,775.000,773.000,786.000,782.000,767.000,761.000,759.000,787.000,793.000
3580.188,763.000,780.000,781.000,787.000,780.000,776.000,778.000,776.000,764.000,766.000
3582.718,789.000,792.000,795.000,795.000,773.000,783.000,790.000,772.000,776.000,777.000
3585.246,760.000,776.000,773.000,785.000,789.000,769.000,792.000,782.000,780.000,775.000
3587.774,780.000,767.000,771.000,771.000,773.000,769.000,781.000,775.000,776.000,773.000
3590.302,779.000,784.000,793.000,772.000,777.000,758.000,781.000,780.000,772.000,778.000
3592.828,782.000,762.000,783.000,767.000,774.000,773.000,765.000,771.000,775.000,790.000
3595.353,770.000,776.000,791.000,765.000,772.000,781.000,773.000,775.000,787.000,785.000
3597.877,779.000,778.000,769.000,792.000,771.000,769.000,782.000,782.000,770.000,780.000
3600.401,774.000,775.000,781.000,779.000,768.000,777.000,786.000,767.000,771.000,780.000
3602.924,778.000,767.000,780.000,776.000,780.000,760.000,777.000,1405.000,762.000,774.000
3605.447,767.000,768.000,775.000,794.000,780.000,784.000,770.000,782.000,767.000,777.000
3607.968,791.000,774.000,773.000,780.000,782.000,783.000,767.000,780.000,780.000,768.000
3610.488,773.000,780.000,782.000,783.000,778.000,780.000,787.000,767.000,780.000,768.000
3613.007,767.000,784.000,778.000,777.000,767.000,761.000,785.000,773.000,779.000,776.000
3615.526,781.000,778.000,789.000,779.000,773.000,980.000,783.000,3671.000,778.000,769.000
3618.043,770.000,779.000,780.000,777.000,784.000,772.000,767.000,793.000,771.000,773.000
3620.561,786.000,781.000,796.000,768.000,774.000,788.000,769.000,816.000,758.000,767.000
3623.077,788.000,773.000,783.000,779.000,767.000,787.000,767.000,842.000,770.000,767.000
3625.592,770.000,774.000,772.000,782.000,788.000,784.000,781.000,774.000,787.000,783.000
3628.107,789.000,770.000,789.000,786.000,780.000,784.000,779.000,774.000,775.000,780.000
3630.620,775.000,782.000,775.000,777.000,788.000,777.000,778.000,791.000,789.000,770.000
3633.133,781.000,786.000,780.000,785.000,777.000,782.000,775.000,784.000,771.000,777.000
3635.646,794.000,781.000,789.000,782.000,781.000,787.000,791.000,794.000,791.000,794.000
3638.157,798.000,789.000,790.000,788.000,785.000,781.000,784.000,775.000,793.000,777.000
3640.667,780.000,798.000,784.000,788.000,774.000,782.000,778.000,791.000,783.000,792.000
3643.176,780.000,804.000,790.000,777.000,790.000,793.000,802.000,782.000,777.000,791.000
3645.685,785.000,816.000,806.000,799.000,786.000,784.000,785.000,787.000,778.000,782.000
3648.192,798.000,793.000,794.000,795.000,790.000,775.000,769.000,784.000,795.000,780.000
3650.701,781.000,790.000,783.000,797.000,790.000,792.000,802.000,815.000,786.000,784.000
3653.206,803.000,804.000,795.000,786.000,785.000,786.000,789.000,808.000,793.000,801.000
3655.712,790.000,781.000,796.000,802.000,775.000,789.000,800.000,794.000,790.000,793.000
3658.216,794.000,790.000,791.000,802.000,776.000,780.000,804.000,789.000,801.000,791.000
3660.719,799.000,807.000,807.000,794.000,801.000,797.000,796.000,806.000,798.000,799.000
3663.222,799.000,811.000,799.000,805.000,797.000,802.000,800.000,794.000,802.000,814.000
3665.725,789.000,789.000,801.000,809.000,804.000,794.000,811.000,813.000,798.000,802.000
3668.226,806.000,812.000,815.000,820.000,795.000,820.000,827.000,825.000,805.000,802.000
3670.726,815.000,805.000,807.000,822.000,814.000,825.000,809.000,817.000,806.000,823.000
3673.226,819.000,798.000,808.000,814.000,822.000,812.000,815.000,810.000,818.000,836.000
3675.724,814.000,815.000,830.000,815.000,815.000,823.000,817.000,803.000,811.000,820.000
3678.222,819.000,816.000,822.000,822.000,824.000,820.000,827.000,803.000,817.000,805.000
3680.720,823.000,818.000,822.000,831.000,831.000,832.000,818.000,812.000,829.000,821.000
3683.216,817.000,823.000,826.000,823.000,833.000,837.000,833.000,825.000,824.000,828.000
3685.711,821.000,824.000,819.000,817.000,823.000,828.000,823.000,829.000,823.000,808.000
3688.206,826.000,836.000,831.000,826.000,832.000,825.000,814.000,830.000,802.000,832.000
3690.699,813.000,824.000,820.000,816.000,813.000,811.000,800.000,817.000,816.000,815.000
3693.192,811.000,820.000,810.000,825.000,828.000,821.000,813.000,815.000,824.000,827.000
3695.685,821.000,814.000,810.000,816.000,807.000,824.000,806.000,806.000,813.000,806.000
3698.177,811.000,805.000,824.000,808.000,816.000,810.000,802.000,816.000,814.000,796.000
3700.667,820.000,821.000,823.000,815.000,826.000,808.000,810.000,825.000,809.000,797.000
3703.156,827.000,819.000,823.000,810.000,820.000,814.000,799.000,812.000,797.000,829.000
3705.645,815.000,815.000,822.000,800.000,811.000,817.000,825.000,804.000,820.000,820.000
3708.133,828.000,833.000,802.000,825.000,823.000,816.000,816.000,815.000,806.000,800.000
3710.621,820.000,805.000,815.000,827.000,821.000,808.000,811.000,815.000,822.000,824.000
3713.107,820.000,817.000,812.000,831.000,824.000,824.000,807.000,816.000,829.000,818.000
3715.593,823.000,803.000,801.000,808.000,815.000,830.000,811.000,813.000,812.000,846.000
3718.077,811.000,818.000,835.000,822.000,903.000,824.000,811.000,818.000,815.000,811.000
3720.561,814.000,826.000,821.000,826.000,823.000,809.000,814.000,819.000,821.000,807.000
3723.044,805.000,831.000,821.000,822.000,820.000,811.000,811.000,829.000,800.000,813.000
3725.527,812.000,807.000,811.000,814.000,831.000,805.000,822.000,829.000,821.000,819.000
3728.008,803.000,806.000,805.000,824.000,814.000,809.000,805.000,823.000,821.000,821.000
3730.489,831.000,807.000,834.000,810.000,810.000,811.000,820.000,817.000,812.000,818.000
3732.969,821.000,814.000,825.000,817.000,819.000,833.000,822.000,816.000,813.000,836.000
3735.447,823.000,837.000,817.000,808.000,809.000,821.000,818.000,818.000,819.000,819.000
3737.925,824.000,813.000,827.000,824.000,824.000,826.000,832.000,828.000,808.000,827.000
3740.404,828.000,837.000,827.000,839.000,827.000,814.000,818.000,830.000,828.000,819.000
3742.880,813.000,821.000,829.000,831.000,830.000,833.000,825.000,831.000,824.000,823.000
3745.356,845.000,814.000,836.000,872.000,840.000,834.000,835.000,833.000,819.000,826.000
3747.831,828.000,823.000,828.000,846.000,822.000,850.000,825.000,818.000,823.000,829.000
3750.304,835.000,839.000,831.000,832.000,838.000,822.000,844.000,815.000,823.000,831.000
3752.778,844.000,840.000,822.000,831.000,833.000,828.000,856.000,831.000,843.000,833.000
3755.251,836.000,842.000,841.000,828.000,833.000,834.000,840.000,853.000,826.000,850.000
3757.723,834.000,846.000,861.000,851.000,847.000,836.000,854.000,857.000,846.000,836.000
3760.193,844.000,846.000,843.000,847.000,843.000,854.000,842.000,848.000,827.000,846.000
3762.663,854.000,854.000,854.000,841.000,851.000,841.000,853.000,853.000,867.000,857.000
3765.132,853.000,837.000,861.000,847.000,848.000,856.000,851.000,858.000,850.000,863.000
3767.601,882.000,862.000,860.000,839.000,848.000,845.000,844.000,841.000,855.000,843.000
3770.069,851.000,847.000,870.000,853.000,844.000,870.000,849.000,864.000,836.000,851.000
3772.536,853.000,855.000,853.000,859.000,862.000,835.000,861.000,851.000,852.000,857.000
3775.002,869.000,873.000,845.000,859.000,875.000,852.000,868.000,874.000,863.000,849.000
3777.467,857.000,884.000,1082.000,865.000,867.000,868.000,861.000,852.000,863.000,860.000
3779.931,874.000,867.000,966.000,859.000,868.000,878.000,863.000,860.000,864.000,842.000
3782.394,883.000,871.000,925.000,869.000,883.000,867.000,874.000,883.000,879.000,854.000
3784.858,882.000,873.000,872.000,884.000,895.000,863.000,883.000,863.000,867.000,870.000
3787.320,873.000,886.000,893.000,891.000,875.000,877.000,877.000,876.000,879.000,885.000
3789.781,870.000,875.000,870.000,891.000,883.000,891.000,871.000,893.000,875.000,880.000
3792.241,901.000,878.000,877.000,890.000,879.000,882.000,904.000,879.000,897.000,891.000
3794.701,883.000,881.000,902.000,898.000,891.000,895.000,887.000,895.000,893.000,883.000
3797.159,902.000,895.000,881.000,902.000,894.000,890.000,886.000,891.000,901.000,903.000
3799.618,909.000,899.000,896.000,917.000,901.000,902.000,909.000,919.000,888.000,884.000
3802.075,915.000,905.000,890.000,906.000,911.000,912.000,901.000,914.000,894.000,912.000
3804.531,916.000,906.000,904.000,901.000,919.000,920.000,917.000,931.000,906.000,922.000
3806.987,926.000,913.000,919.000,897.000,886.000,915.000,907.000,927.000,931.000,913.000
3809.441,930.000,928.000,933.000,926.000,925.000,924.000,918.000,917.000,923.000,943.000
3811.895,942.000,937.000,942.000,933.000,937.000,936.000,942.000,937.000,930.000,940.000
3814.349,949.000,947.000,939.000,935.000,951.000,930.000,956.000,958.000,950.000,939.000
3816.801,948.000,940.000,959.000,939.000,952.000,946.000,962.000,953.000,971.000,947.000
3819.252,977.000,993.000,959.000,954.000,960.000,964.000,972.000,955.000,945.000,954.000
3821.703,977.000,972.000,972.000,959.000,975.000,996.000,955.000,988.000,990.000,988.000
3824.153,994.000,973.000,979.000,999.000,986.000,982.000,975.000,996.000,982.000,995.000
3826.602,1020.000,996.000,1004.000,1028.000,993.000,983.000,999.000,1002.000,995.000,998.000
3829.051,1007.000,999.000,1027.000,1031.000,1001.000,1025.000,1003.000,1022.000,1005.000,1019.000
3831.498,1026.000,1022.000,1050.000,1039.000,1027.000,1055.000,1037.000,1043.000,1035.000,1030.000
3833.945,1067.000,1045.000,1052.000,1052.000,1053.000,1063.000,1038.000,1046.000,1041.000,1054.000
3836.391,1093.000,1090.000,1074.000,1081.000,1068.000,1072.000,1065.000,1101.000,1076.000,1066.000
3838.835,1106.000,1078.000,1108.000,1097.000,1110.000,1115.000,1079.000,1100.000,1088.000,1100.000
3841.280,1138.000,1151.000,1130.000,1130.000,1099.000,1105.000,1132.000,1153.000,1124.000,1137.000
3843.724,1161.000,1185.000,1163.000,1157.000,1173.000,1162.000,1191.000,1200.000,1171.000,1147.000
3846.167,1238.000,1204.000,1209.000,1199.000,1209.000,1215.000,1175.000,1210.000,1201.000,1196.000
3848.608,1232.000,1270.000,1287.000,1243.000,1232.000,1228.000,1269.000,1228.000,1270.000,1280.000
3849.829,1287.000,1303.000,1306.000,1287.000,1286.000,1307.000,1287.000,1273.000,1271.000,1312.000