File: Raman/2022_11_26_Nylon6_532nm_Pol_6mW_750mm_600gv_0wn_iDus_10s_10accum_Pos1.csv
-1054.088,653.000,657.000,648.000,652.000,650.000,662.000,648.000,653.000,653.000,647.000
-1049.746,647.000,645.000,654.000,649.000,649.000,653.000,654.000,652.000,658.000,651.000
-1045.406,645.000,648.000,656.000,648.000,657.000,649.000,643.000,659.000,653.000,649.000
-1041.068,655.000,656.000,659.000,659.000,649.000,651.000,653.000,659.000,651.000,643.000
-1036.731,650.000,655.000,651.000,655.000,649.000,649.000,655.000,653.000,661.000,658.000
-1032.397,651.000,651.000,649.000,651.000,651.000,652.000,655.000,656.000,650.000,657.000
-1028.063,654.000,648.000,653.000,654.000,645.000,656.000,651.000,651.000,656.000,658.000
-1023.733,652.000,654.000,654.000,649.000,652.000,653.000,655.000,654.000,651.000,649.000
-1019.403,651.000,651.000,652.000,652.000,649.000,647.000,650.000,656.000,653.000,652.000
-1015.077,648.000,649.000,645.000,652.000,654.000,653.000,652.000,643.000,651.000,647.000
-1010.751,653.000,643.000,650.000,651.000,644.000,647.000,650.000,655.000,643.000,648.000
-1006.429,651.000,651.000,650.000,655.000,652.000,656.000,651.000,648.000,651.000,652.000
-1002.107,656.000,650.000,654.000,650.000,648.000,658.000,650.000,651.000,653.000,647.000
-997.788,647.000,656.000,644.000,654.000,642.000,652.000,650.000,651.000,649.000,647.000
-993.469,652.000,644.000,654.000,657.000,653.000,655.000,648.000,656.000,647.000,637.000
-989.154,646.000,652.000,651.000,652.000,653.000,648.000,650.000,655.000,647.000,648.000
-984.840,651.000,653.000,654.000,649.000,650.000,653.000,648.000,655.000,653.000,652.000
-980.529,647.000,654.000,654.000,651.000,656.000,654.000,652.000,658.000,657.000,647.000
-976.218,651.000,655.000,647.000,649.000,649.000,651.000,655.000,650.000,659.000,651.000
-971.910,654.000,653.000,650.000,655.000,652.000,650.000,653.000,648.000,653.000,655.000
-967.603,652.000,652.000,652.000,654.000,655.000,648.000,653.000,649.000,655.000,651.000
-963.299,646.000,654.000,654.000,642.000,653.000,651.000,652.000,658.000,650.000,650.000
-958.996,656.000,654.000,653.000,658.000,647.000,651.000,653.000,653.000,651.000,656.000
-954.696,654.000,652.000,653.000,659.000,650.000,653.000,647.000,651.000,644.000,652.000
-950.397,642.000,655.000,662.000,650.000,656.000,646.000,662.000,659.000,645.000,652.000
-946.100,657.000,654.000,649.000,662.000,660.000,658.000,651.000,653.000,645.000,650.000
-941.805,655.000,657.000,650.000,652.000,656.000,658.000,657.000,655.000,652.000,651.000
-937.512,655.000,655.000,654.000,655.000,647.000,654.000,652.000,651.000,647.000,651.000
-933.220,653.000,650.000,662.000,650.000,658.000,647.000,653.000,655.000,654.000,651.000
-928.931,655.000,654.000,652.000,652.000,647.000,650.000,657.000,651.000,653.000,657.000
-924.643,652.000,651.000,657.000,655.000,654.000,654.000,654.000,647.000,651.000,651.000
-920.358,651.000,649.000,654.000,662.000,651.000,650.000,656.000,656.000,654.000,653.000
-916.073,659.000,647.000,655.000,654.000,654.000,650.000,651.000,650.000,655.000,654.000
-911.792,649.000,658.000,656.000,656.000,657.000,654.000,656.000,653.000,649.000,652.000
-907.511,654.000,660.000,656.000,659.000,656.000,658.000,649.000,657.000,653.000,652.000
-903.233,654.000,656.000,656.000,656.000,655.000,652.000,657.000,663.000,652.000,651.000
-898.956,647.000,655.000,652.000,651.000,653.000,648.000,652.000,655.000,651.000,653.000
-894.682,658.000,651.000,653.000,655.000,648.000,651.000,647.000,657.000,653.000,653.000
-890.409,650.000,653.000,657.000,651.000,648.000,651.000,648.000,661.000,651.000,650.000
-886.138,646.000,657.000,656.000,652.000,652.000,656.000,653.000,653.000,649.000,655.000
-881.869,661.000,644.000,653.000,652.000,660.000,649.000,649.000,648.000,656.000,656.000
-877.602,658.000,652.000,649.000,658.000,656.000,654.000,658.000,648.000,651.000,655.000
-873.336,651.000,656.000,659.000,654.000,653.000,659.000,649.000,653.000,651.000,657.000
-869.073,654.000,661.000,650.000,655.000,651.000,658.000,654.000,658.000,648.000,657.000
-864.811,650.000,655.000,651.000,650.000,647.000,657.000,649.000,650.000,655.000,652.000
-860.552,651.000,654.000,649.000,658.000,654.000,654.000,653.000,653.000,649.000,653.000
-856.293,648.000,651.000,656.000,656.000,646.000,658.000,658.000,652.000,661.000,654.000
-852.038,655.000,660.000,658.000,653.000,658.000,653.000,648.000,647.000,660.000,653.000
-847.783,650.000,647.000,653.000,657.000,649.000,653.000,651.000,655.000,651.000,649.000
-843.531,656.000,658.000,646.000,654.000,654.000,658.000,657.000,656.000,650.000,650.000
-839.280,651.000,656.000,655.000,660.000,651.000,659.000,656.000,651.000,645.000,654.000
-835.032,652.000,645.000,651.000,659.000,650.000,653.000,652.000,653.000,657.000,655.000
-830.784,653.000,656.000,652.000,651.000,652.000,657.000,659.000,648.000,654.000,657.000
-826.540,650.000,652.000,655.000,651.000,643.000,653.000,654.000,654.000,654.000,650.000
-822.296,657.000,654.000,649.000,658.000,653.000,655.000,659.000,656.000,663.000,650.000
-818.055,655.000,662.000,656.000,645.000,662.000,650.000,654.000,649.000,651.000,655.000
-813.815,656.000,661.000,656.000,661.000,655.000,662.000,657.000,654.000,655.000,647.000
-809.578,655.000,652.000,656.000,659.000,655.000,658.000,644.000,647.000,656.000,650.000
-805.341,655.000,655.000,660.000,647.000,649.000,657.000,662.000,651.000,651.000,656.000
-801.108,647.000,647.000,655.000,656.000,651.000,652.000,654.000,652.000,653.000,653.000
-796.875,655.000,654.000,657.000,657.000,658.000,654.000,648.000,655.000,650.000,656.000
-792.645,654.000,656.000,657.000,651.000,654.000,653.000,651.000,650.000,659.000,653.000
-788.416,654.000,652.000,659.000,652.000,651.000,655.000,653.000,652.000,650.000,655.000
-784.190,655.000,650.000,651.000,653.000,649.000,655.000,650.000,656.000,654.000,652.000
-779.964,654.000,656.000,654.000,650.000,650.000,653.000,663.000,657.000,652.000,642.000
-775.742,656.000,655.000,649.000,659.000,656.000,653.000,654.000,654.000,658.000,656.000
-771.520,650.000,656.000,653.000,648.000,648.000,649.000,664.000,656.000,658.000,655.000
-767.301,656.000,649.000,657.000,660.000,653.000,654.000,659.000,650.000,656.000,655.000
-763.083,649.000,652.000,653.000,652.000,654.000,651.000,654.000,651.000,653.000,648.000
-758.867,655.000,654.000,649.000,661.000,655.000,658.000,652.000,655.000,647.000,654.000
-754.653,659.000,658.000,658.000,653.000,658.000,653.000,654.000,658.000,660.000,649.000
-750.441,655.000,650.000,654.000,662.000,651.000,654.000,657.000,659.000,660.000,655.000
-746.230,664.000,660.000,659.000,657.000,647.000,649.000,667.000,660.000,651.000,650.000
-742.022,651.000,654.000,651.000,655.000,655.000,656.000,658.000,671.000,662.000,652.000
-737.815,649.000,659.000,649.000,650.000,655.000,657.000,657.000,661.000,661.000,656.000
-733.610,653.000,652.000,652.000,649.000,645.000,655.000,656.000,650.000,653.000,650.000
-729.407,655.000,655.000,657.000,655.000,655.000,662.000,652.000,661.000,649.000,658.000
-725.205,658.000,651.000,652.000,653.000,651.000,657.000,659.000,646.000,653.000,657.000
-721.007,653.000,653.000,656.000,648.000,662.000,657.000,657.000,653.000,655.000,651.000
-716.808,649.000,655.000,656.000,661.000,659.000,648.000,646.000,653.000,650.000,656.000
-712.612,655.000,651.000,659.000,654.000,657.000,664.000,655.000,647.000,652.000,659.000
-708.417,661.000,652.000,653.000,655.000,651.000,648.000,650.000,654.000,655.000,655.000
-704.227,641.000,651.000,657.000,663.000,649.000,657.000,651.000,659.000,666.000,651.000
-700.036,649.000,653.000,654.000,658.000,646.000,652.000,652.000,650.000,653.000,652.000
-695.846,652.000,655.000,660.000,658.000,651.000,653.000,655.000,651.000,651.000,659.000
-691.659,647.000,649.000,652.000,652.000,652.000,652.000,658.000,654.000,654.000,650.000
-687.475,660.000,657.000,650.000,653.000,659.000,657.000,650.000,652.000,651.000,660.000
-683.292,657.000,654.000,654.000,656.000,655.000,661.000,655.000,653.000,658.000,658.000
-679.109,656.000,656.000,651.000,655.000,654.000,656.000,657.000,652.000,656.000,660.000
-674.929,653.000,653.000,658.000,650.000,652.000,650.000,657.000,653.000,661.000,662.000
-670.753,648.000,659.000,654.000,656.000,654.000,654.000,655.000,657.000,659.000,659.000
-666.576,648.000,655.000,656.000,651.000,654.000,655.000,654.000,646.000,650.000,650.000
-662.401,650.000,664.000,650.000,654.000,650.000,652.000,656.000,651.000,658.000,652.000
-658.228,652.000,656.000,655.000,658.000,660.000,659.000,656.000,652.000,652.000,664.000
-654.059,657.000,656.000,663.000,653.000,659.000,653.000,657.000,660.000,660.000,654.000
-649.889,659.000,650.000,653.000,650.000,650.000,651.000,655.000,654.000,651.000,655.000
-645.722,655.000,655.000,652.000,649.000,652.000,645.000,659.000,657.000,654.000,657.000
-641.556,655.000,648.000,650.000,645.000,655.000,653.000,656.000,651.000,655.000,649.000
-637.394,656.000,649.000,655.000,658.000,651.000,647.000,649.000,651.000,653.000,652.000
-633.231,654.000,655.000,660.000,655.000,655.000,654.000,655.000,651.000,655.000,655.000
-629.071,661.000,655.000,653.000,656.000,656.000,656.000,650.000,652.000,659.000,648.000
-624.912,659.000,658.000,650.000,659.000,660.000,647.000,647.000,656.000,655.000,650.000
-620.757,649.000,659.000,650.000,652.000,657.000,657.000,656.000,657.000,649.000,651.000
-616.602,658.000,661.000,662.000,655.000,660.000,658.000,658.000,660.000,658.000,661.000
-612.448,664.000,653.000,654.000,652.000,643.000,661.000,658.000,662.000,659.000,651.000
-608.297,660.000,654.000,653.000,656.000,648.000,653.000,654.000,656.000,650.000,652.000
-604.149,654.000,656.000,653.000,658.000,657.000,660.000,652.000,661.000,658.000,656.000
-600.001,658.000,655.000,654.000,659.000,651.000,656.000,658.000,656.000,653.000,655.000
-595.854,660.000,660.000,655.000,657.000,652.000,656.000,663.000,655.000,652.000,654.000
-591.710,658.000,659.000,660.000,667.000,659.000,660.000,658.000,657.000,657.000,658.000
-587.569,656.000,661.000,659.000,661.000,667.000,665.000,654.000,650.000,658.000,651.000
-583.428,655.000,658.000,664.000,665.000,655.000,651.000,656.000,663.000,662.000,661.000
-579.289,658.000,648.000,659.000,655.000,657.000,656.000,659.000,663.000,661.000,659.000
-575.151,650.000,645.000,654.000,656.000,663.000,657.000,661.000,662.000,646.000,663.000
-571.017,656.000,659.000,661.000,652.000,655.000,661.000,660.000,664.000,659.000,651.000
-566.883,660.000,654.000,654.000,662.000,659.000,660.000,654.000,661.000,660.000,660.000
-562.751,656.000,661.000,655.000,654.000,657.000,645.000,658.000,658.000,656.000,659.000
-558.621,660.000,657.000,660.000,659.000,649.000,661.000,655.000,653.000,654.000,658.000
-554.494,664.000,658.000,654.000,656.000,658.000,656.000,648.000,651.000,657.000,657.000
-550.367,648.000,655.000,658.000,652.000,658.000,654.000,658.000,654.000,662.000,654.000
-546.242,657.000,659.000,664.000,661.000,656.000,650.000,649.000,659.000,656.000,659.000
-542.118,650.000,654.000,651.000,651.000,662.000,653.000,655.000,656.000,651.000,651.000
-537.999,651.000,656.000,660.000,654.000,656.000,656.000,658.000,660.000,662.000,654.000
-533.879,652.000,656.000,658.000,657.000,657.000,656.000,654.000,653.000,654.000,654.000
-529.761,662.000,665.000,654.000,661.000,665.000,661.000,652.000,653.000,658.000,657.000
-525.644,654.000,655.000,659.000,662.000,658.000,656.000,662.000,659.000,658.000,658.000
-521.532,657.000,656.000,659.000,653.000,661.000,654.000,658.000,652.000,654.000,665.000
-517.419,660.000,654.000,662.000,659.000,656.000,660.000,657.000,659.000,652.000,658.000
-513.308,658.000,667.000,663.000,662.000,649.000,656.000,654.000,656.000,665.000,647.000
-509.198,649.000,659.000,654.000,654.000,657.000,663.000,653.000,662.000,658.000,660.000
-505.093,662.000,663.000,657.000,648.000,656.000,662.000,661.000,647.000,651.000,659.000
-500.987,656.000,660.000,655.000,654.000,655.000,651.000,655.000,660.000,659.000,663.000
-496.883,658.000,665.000,659.000,663.000,660.000,652.000,656.000,658.000,654.000,656.000
-492.780,653.000,656.000,661.000,658.000,665.000,661.000,655.000,659.000,653.000,652.000
-488.682,662.000,659.000,654.000,658.000,656.000,651.000,655.000,657.000,655.000,659.000
-484.583,655.000,657.000,653.000,654.000,662.000,657.000,659.000,660.000,659.000,658.000
-480.486,665.000,663.000,657.000,657.000,655.000,661.000,657.000,659.000,649.000,658.000
-476.390,655.000,663.000,649.000,666.000,664.000,657.000,657.000,662.000,658.000,656.000
-472.299,661.000,654.000,655.000,665.000,658.000,656.000,658.000,659.000,658.000,659.000
-468.207,653.000,656.000,659.000,660.000,658.000,667.000,659.000,658.000,658.000,654.000
-464.116,658.000,654.000,656.000,656.000,660.000,661.000,660.000,654.000,654.000,661.000
-460.028,665.000,659.000,657.000,656.000,659.000,656.000,659.000,661.000,656.000,652.000
-455.943,655.000,662.000,655.000,655.000,651.000,656.000,660.000,653.000,649.000,659.000
-451.858,659.000,659.000,661.000,665.000,661.000,658.000,654.000,660.000,662.000,658.000
-447.775,658.000,654.000,660.000,654.000,654.000,659.000,659.000,660.000,661.000,657.000
-443.693,656.000,662.000,659.000,652.000,666.000,652.000,660.000,661.000,653.000,663.000
-439.616,657.000,664.000,655.000,657.000,659.000,664.000,655.000,659.000,659.000,663.000
-435.538,660.000,658.000,656.000,659.000,652.000,662.000,662.000,653.000,657.000,659.000
-431.461,659.000,665.000,661.000,653.000,655.000,661.000,660.000,659.000,663.000,654.000
-427.386,665.000,663.000,657.000,658.000,659.000,664.000,666.000,659.000,662.000,667.000
-423.316,669.000,656.000,661.000,664.000,659.000,668.000,668.000,662.000,654.000,654.000
-419.244,662.000,667.000,661.000,660.000,668.000,664.000,656.000,660.000,662.000,658.000
-415.175,660.000,669.000,664.000,663.000,658.000,663.000,665.000,661.000,652.000,659.000
-411.107,666.000,662.000,663.000,662.000,661.000,654.000,657.000,667.000,656.000,661.000
-407.043,663.000,652.000,659.000,658.000,656.000,660.000,659.000,660.000,656.000,663.000
-402.979,657.000,659.000,667.000,653.000,659.000,659.000,662.000,662.000,663.000,658.000
-398.916,666.000,654.000,666.000,664.000,657.000,657.000,666.000,658.000,661.000,661.000
-394.855,661.000,665.000,665.000,659.000,657.000,658.000,657.000,651.000,657.000,660.000
-390.799,668.000,666.000,662.000,662.000,660.000,658.000,657.000,663.000,658.000,669.000
-386.741,658.000,664.000,650.000,667.000,664.000,661.000,661.000,664.000,655.000,665.000
-382.685,656.000,669.000,661.000,665.000,670.000,659.000,658.000,663.000,661.000,665.000
-378.631,662.000,667.000,655.000,663.000,660.000,656.000,662.000,659.000,662.000,664.000
-374.581,668.000,662.000,661.000,664.000,667.000,662.000,663.000,664.000,664.000,666.000
-370.531,667.000,663.000,672.000,663.000,666.000,674.000,663.000,661.000,667.000,658.000
-366.482,667.000,668.000,659.000,662.000,659.000,670.000,664.000,659.000,669.000,672.000
-362.434,665.000,670.000,674.000,669.000,668.000,663.000,657.000,671.000,664.000,669.000
-358.391,677.000,674.000,675.000,667.000,665.000,670.000,672.000,666.000,672.000,671.000
-354.347,662.000,663.000,663.000,671.000,667.000,670.000,664.000,664.000,664.000,660.000
-350.305,667.000,665.000,665.000,665.000,663.000,671.000,660.000,670.000,671.000,665.000
-346.265,662.000,673.000,668.000,667.000,673.000,672.000,667.000,674.000,672.000,659.000
-342.229,668.000,670.000,665.000,670.000,673.000,674.000,664.000,671.000,673.000,669.000
-338.192,673.000,673.000,678.000,668.000,669.000,674.000,681.000,673.000,673.000,676.000
-334.156,683.000,667.000,669.000,667.000,670.000,671.000,662.000,675.000,674.000,663.000
-330.123,669.000,676.000,672.000,675.000,665.000,672.000,665.000,679.000,670.000,674.000
-326.093,667.000,670.000,669.000,671.000,679.000,674.000,675.000,670.000,673.000,671.000
-322.063,672.000,676.000,671.000,674.000,679.000,668.000,673.000,667.000,679.000,672.000
-318.035,679.000,678.000,668.000,668.000,669.000,670.000,683.000,669.000,671.000,677.000
-314.008,676.000,678.000,672.000,665.000,670.000,676.000,665.000,674.000,671.000,673.000
-309.985,679.000,678.000,673.000,674.000,680.000,673.000,684.000,678.000,673.000,670.000
-305.962,680.000,675.000,679.000,677.000,674.000,669.000,675.000,676.000,681.000,676.000
-301.940,674.000,676.000,672.000,682.000,674.000,673.000,675.000,683.000,676.000,675.000
-297.920,692.000,682.000,683.000,674.000,676.000,678.000,682.000,674.000,676.000,670.000
-293.904,687.000,683.000,675.000,685.000,678.000,687.000,681.000,679.000,677.000,679.000
-289.887,687.000,679.000,678.000,681.000,682.000,674.000,678.000,684.000,667.000,673.000
-285.872,691.000,684.000,678.000,675.000,683.000,682.000,680.000,692.000,681.000,687.000
-281.859,678.000,688.000,689.000,689.000,689.000,687.000,683.000,696.000,688.000,687.000
-277.850,694.000,692.000,693.000,690.000,698.000,696.000,687.000,689.000,679.000,690.000
-273.840,680.000,681.000,687.000,683.000,679.000,683.000,692.000,693.000,689.000,688.000
-269.832,696.000,677.000,692.000,677.000,684.000,682.000,685.000,683.000,689.000,685.000
-265.825,701.000,689.000,688.000,681.000,686.000,683.000,693.000,685.000,687.000,686.000
-261.823,699.000,691.000,680.000,677.000,682.000,695.000,688.000,683.000,691.000,691.000
-257.820,691.000,697.000,690.000,696.000,682.000,688.000,688.000,686.000,682.000,688.000
-253.818,702.000,692.000,697.000,695.000,690.000,699.000,701.000,697.000,690.000,697.000
-249.818,700.000,683.000,704.000,691.000,696.000,685.000,683.000,696.000,694.000,695.000
-245.822,696.000,695.000,702.000,689.000,695.000,691.000,699.000,703.000,689.000,697.000
-241.826,704.000,700.000,705.000,703.000,703.000,710.000,693.000,698.000,702.000,703.000
-237.831,695.000,707.000,707.000,696.000,701.000,708.000,711.000,703.000,704.000,703.000
-233.838,711.000,708.000,711.000,709.000,706.000,709.000,694.000,689.000,705.000,716.000
-229.849,710.000,706.000,700.000,719.000,706.000,717.000,704.000,698.000,711.000,698.000
-225.859,711.000,715.000,704.000,712.000,708.000,700.000,715.000,711.000,714.000,716.000
-221.871,727.000,721.000,734.000,714.000,717.000,728.000,719.000,723.000,712.000,719.000
-217.885,713.000,717.000,718.000,734.000,714.000,719.000,724.000,721.000,714.000,735.000
-213.903,730.000,729.000,720.000,714.000,724.000,712.000,730.000,709.000,734.000,717.000
-209.920,744.000,725.000,734.000,721.000,724.000,727.000,737.000,739.000,727.000,723.000
-205.938,726.000,734.000,743.000,739.000,736.000,732.000,729.000,734.000,738.000,725.000
-201.959,742.000,733.000,733.000,734.000,735.000,738.000,734.000,729.000,743.000,741.000
-197.983,752.000,747.000,727.000,745.000,738.000,750.000,731.000,735.000,753.000,740.000
-194.006,742.000,738.000,740.000,731.000,735.000,735.000,751.000,747.000,735.000,743.000
-190.032,748.000,751.000,745.000,752.000,746.000,754.000,743.000,764.000,754.000,746.000
-186.059,758.000,748.000,762.000,752.000,753.000,758.000,755.000,745.000,763.000,750.000
-182.090,776.000,751.000,752.000,757.000,762.000,767.000,758.000,763.000,759.000,761.000
-178.120,768.000,765.000,777.000,777.000,773.000,767.000,773.000,766.000,774.000,767.000
-174.152,789.000,787.000,791.000,795.000,790.000,768.000,774.000,772.000,793.000,780.000
-170.185,786.000,786.000,790.000,787.000,791.000,783.000,782.000,803.000,798.000,789.000
-166.223,821.000,813.000,823.000,811.000,801.000,802.000,795.000,807.000,793.000,813.000
-162.260,833.000,821.000,816.000,819.000,816.000,835.000,826.000,816.000,823.000,820.000
-158.298,833.000,842.000,824.000,824.000,827.000,804.000,820.000,828.000,819.000,836.000
-154.339,863.000,855.000,863.000,844.000,858.000,853.000,853.000,849.000,853.000,841.000
-150.383,862.000,866.000,873.000,855.000,861.000,846.000,858.000,864.000,874.000,863.000
-146.426,887.000,893.000,888.000,890.000,889.000,875.000,898.000,868.000,873.000,880.000
-142.472,909.000,937.000,906.000,913.000,908.000,912.000,922.000,895.000,931.000,934.000
-138.518,933.000,942.000,942.000,949.000,928.000,949.000,939.000,941.000,946.000,937.000
-134.569,985.000,971.000,983.000,968.000,957.000,989.000,940.000,959.000,987.000,977.000
-130.619,1025.000,1027.000,1007.000,1026.000,1024.000,1041.000,1016.000,1040.000,982.000,1025.000
-126.671,1088.000,1092.000,1083.000,1059.000,1057.000,1052.000,1076.000,1063.000,1065.000,1066.000
-122.724,1137.000,1133.000,1130.000,1109.000,1098.000,1128.000,1140.000,1126.000,1110.000,1125.000
-118.782,1226.000,1236.000,1237.000,1236.000,1220.000,1253.000,1197.000,1220.000,1220.000,1245.000
-114.838,1358.000,1308.000,1331.000,1316.000,1329.000,1322.000,1322.000,1351.000,1316.000,1307.000
-110.897,1492.000,1472.000,1472.000,1478.000,1450.000,1478.000,1465.000,1468.000,1451.000,1446.000
-106.957,1749.000,1708.000,1691.000,1689.000,1708.000,1721.000,1705.000,1723.000,1701.000,1739.000
-103.021,1908.000,1899.000,1838.000,1838.000,1860.000,1860.000,1852.000,1881.000,1891.000,1885.000
-99.084,2026.000,2022.000,1993.000,2020.000,2029.000,1980.000,1981.000,2017.000,1975.000,2013.000
-95.149,2171.000,2160.000,2107.000,2087.000,2104.000,2101.000,2127.000,2076.000,2096.000,2093.000
-91.216,2097.000,2078.000,2050.000,2018.000,2067.000,2003.000,2056.000,2055.000,2061.000,2017.000
-87.286,2038.000,2057.000,2014.000,2011.000,2022.000,1994.000,1967.000,2009.000,1995.000,1984.000
-83.356,2109.000,2086.000,2086.000,2074.000,2041.000,2091.000,2094.000,2081.000,2050.000,2036.000
-79.427,2110.000,2116.000,2078.000,2050.000,2023.000,2031.000,2077.000,2070.000,2080.000,2018.000
-75.500,2107.000,2105.000,2135.000,2108.000,2092.000,2091.000,2095.000,2104.000,2092.000,2098.000
-71.577,2197.000,2193.000,2223.000,2210.000,2167.000,2180.000,2203.000,2204.000,2200.000,2195.000
-67.654,2270.000,2200.000,2220.000,2197.000,2195.000,2215.000,2249.000,2218.000,2219.000,2209.000
-63.732,2355.000,2336.000,2289.000,2319.000,2316.000,2285.000,2261.000,2285.000,2322.000,2299.000
-59.811,2498.000,2447.000,2439.000,2454.000,2455.000,2434.000,2429.000,2434.000,2368.000,2428.000
-55.895,2499.000,2553.000,2493.000,2466.000,2460.000,2468.000,2423.000,2464.000,2492.000,2492.000
-51.978,2660.000,2631.000,2614.000,2628.000,2588.000,2576.000,2534.000,2563.000,2577.000,2561.000
-48.062,2665.000,2633.000,2640.000,2675.000,2673.000,2636.000,2636.000,2700.000,2667.000,2653.000
-44.149,2675.000,2589.000,2546.000,2611.000,2617.000,2611.000,2642.000,2563.000,2647.000,2592.000
-40.239,2734.000,2701.000,2672.000,2678.000,2619.000,2675.000,2687.000,2660.000,2664.000,2642.000
-36.328,2757.000,2685.000,2692.000,2710.000,2679.000,2690.000,2688.000,2641.000,2711.000,2748.000
-32.419,2729.000,2707.000,2699.000,2744.000,2647.000,2694.000,2709.000,2696.000,2717.000,2704.000
-28.512,2958.000,2896.000,2898.000,2879.000,2824.000,2861.000,2881.000,2870.000,2865.000,2835.000
-24.608,3015.000,2980.000,2907.000,2862.000,2940.000,3016.000,2934.000,2907.000,2900.000,2911.000
-20.704,3084.000,3004.000,2940.000,3037.000,3003.000,2996.000,3019.000,3022.000,2987.000,2955.000
-16.801,3239.000,3272.000,3240.000,3180.000,3241.000,3171.000,3182.000,3119.000,3179.000,3178.000
-12.901,3363.000,3343.000,3338.000,3312.000,3304.000,3251.000,3291.000,3287.000,3320.000,3270.000
-9.004,3420.000,3377.000,3327.000,3426.000,3397.000,3321.000,3299.000,3343.000,3422.000,3394.000
-5.106,3734.000,3663.000,3653.000,3694.000,3646.000,3575.000,3686.000,3703.000,3632.000,3606.000
-1.210,2060.000,2092.000,1986.000,2027.000,2051.000,2054.000,2033.000,1996.000,2061.000,2067.000
2.685,857.000,843.000,855.000,857.000,868.000,861.000,870.000,874.000,837.000,847.000
6.575,1016.000,999.000,1014.000,1004.000,1025.000,1016.000,995.000,1032.000,977.000,991.000
10.466,3388.000,3334.000,3336.000,3337.000,3327.000,3344.000,3326.000,3315.000,3265.000,3314.000
14.356,4146.000,4156.000,4194.000,4172.000,4125.000,4124.000,4134.000,4132.000,4171.000,4072.000
18.244,4006.000,3938.000,3917.000,3918.000,3894.000,3862.000,3960.000,3916.000,3844.000,3843.000
22.128,3706.000,3602.000,3622.000,3647.000,3707.000,3671.000,3619.000,3641.000,3573.000,3599.000
26.013,3569.000,3512.000,3505.000,3526.000,3488.000,3476.000,3493.000,3441.000,3489.000,3473.000
29.896,3517.000,3419.000,3470.000,3466.000,3427.000,3448.000,3420.000,3454.000,3408.000,3448.000
33.777,3390.000,3365.000,3343.000,3267.000,3299.000,3267.000,3324.000,3279.000,3387.000,3258.000
37.655,3318.000,3238.000,3238.000,3245.000,3233.000,3174.000,3171.000,3177.000,3186.000,3241.000
41.533,3262.000,3263.000,3220.000,3221.000,3233.000,3227.000,3186.000,3215.000,3232.000,3226.000
45.410,3102.000,3091.000,3079.000,3040.000,3143.000,3080.000,3049.000,3064.000,3079.000,3150.000
49.285,3251.000,3140.000,3104.000,3142.000,3106.000,3125.000,3098.000,3092.000,3108.000,3101.000
53.157,3283.000,3275.000,3241.000,3201.000,3197.000,3238.000,3163.000,3208.000,3171.000,3224.000
57.029,3166.000,3158.000,3166.000,3182.000,3167.000,3125.000,3151.000,3159.000,3084.000,3174.000
60.899,3263.000,3216.000,3188.000,3124.000,3192.000,3172.000,3188.000,3172.000,3162.000,3163.000
64.768,3275.000,3169.000,3178.000,3189.000,3213.000,3180.000,3176.000,3220.000,3192.000,3170.000
68.633,3072.000,3019.000,3042.000,3017.000,2996.000,3013.000,3029.000,3038.000,3010.000,3033.000
72.498,2976.000,2997.000,3015.000,2993.000,2994.000,2962.000,2946.000,2958.000,2929.000,2950.000
76.362,2920.000,2928.000,2929.000,2928.000,2894.000,2883.000,2870.000,2879.000,2955.000,2900.000
80.224,2807.000,2784.000,2774.000,2817.000,2782.000,2767.000,2732.000,2809.000,2817.000,2778.000
84.083,2854.000,2824.000,2748.000,2779.000,2772.000,2742.000,2758.000,2783.000,2779.000,2808.000
87.942,2850.000,2845.000,2809.000,2827.000,2777.000,2826.000,2800.000,2786.000,2793.000,2797.000
91.800,2703.000,2733.000,2708.000,2763.000,2724.000,2747.000,2736.000,2725.000,2728.000,2710.000
95.656,2798.000,2767.000,2695.000,2739.000,2759.000,2738.000,2731.000,2723.000,2789.000,2761.000
99.508,2848.000,2884.000,2827.000,2853.000,2798.000,2791.000,2811.000,2766.000,2826.000,2779.000
103.361,2865.000,2809.000,2807.000,2784.000,2855.000,2772.000,2855.000,2781.000,2824.000,2847.000
107.212,2976.000,2940.000,2957.000,2960.000,2897.000,2918.000,2875.000,2920.000,2967.000,2907.000
111.061,2867.000,2783.000,2820.000,2855.000,2808.000,3786.000,2787.000,2805.000,2804.000,2864.000
114.907,2542.000,2534.000,2538.000,2504.000,2555.000,3115.000,2535.000,2500.000,2520.000,2533.000
118.754,2331.000,2316.000,2290.000,2256.000,2233.000,2882.000,2316.000,2249.000,2295.000,2247.000
122.599,2018.000,1991.000,2011.000,1988.000,2048.000,2007.000,2009.000,1984.000,1967.000,1988.000
126.442,1779.000,1729.000,1713.000,1744.000,1736.000,1762.000,1727.000,1713.000,1753.000,1731.000
130.281,1617.000,1601.000,1621.000,1569.000,1614.000,1618.000,1610.000,1593.000,1619.000,1606.000
134.122,1519.000,1503.000,1483.000,1480.000,1496.000,1476.000,1480.000,1474.000,1460.000,1468.000
137.960,1376.000,1370.000,1370.000,1371.000,1398.000,1367.000,1399.000,1348.000,1355.000,1384.000
141.797,1320.000,1335.000,1302.000,1295.000,1315.000,1342.000,1282.000,1310.000,1304.000,1297.000
145.630,1282.000,1275.000,1291.000,1282.000,1260.000,1279.000,1263.000,1270.000,1284.000,1257.000
149.464,1213.000,1209.000,1196.000,1192.000,1205.000,1193.000,1206.000,1185.000,1193.000,1196.000
153.296,1180.000,1152.000,1170.000,1174.000,1155.000,1169.000,1180.000,1162.000,1146.000,1183.000
157.127,1121.000,1129.000,1111.000,1147.000,1154.000,1123.000,1124.000,1107.000,1124.000,1123.000
160.954,1098.000,1094.000,1102.000,1066.000,1093.000,1081.000,1084.000,1082.000,1076.000,1077.000
164.781,1080.000,1079.000,1097.000,1055.000,1076.000,1062.000,1054.000,1055.000,1076.000,1059.000
168.607,1031.000,1049.000,1053.000,1036.000,1034.000,1049.000,1040.000,1056.000,1027.000,1048.000
172.432,1022.000,1035.000,1004.000,1017.000,1023.000,1015.000,1003.000,1018.000,976.000,1003.000
176.252,1030.000,992.000,1008.000,1015.000,1008.000,975.000,997.000,994.000,992.000,1024.000
180.074,972.000,979.000,981.000,957.000,987.000,960.000,960.000,988.000,966.000,970.000
183.893,956.000,948.000,954.000,955.000,943.000,942.000,926.000,945.000,949.000,975.000
187.711,951.000,947.000,960.000,953.000,938.000,941.000,950.000,937.000,948.000,947.000
191.526,937.000,923.000,933.000,926.000,925.000,924.000,920.000,915.000,930.000,926.000
195.341,905.000,911.000,906.000,901.000,900.000,904.000,906.000,903.000,915.000,909.000
199.154,911.000,903.000,897.000,899.000,905.000,896.000,904.000,907.000,889.000,911.000
202.966,901.000,899.000,885.000,895.000,903.000,901.000,904.000,889.000,908.000,920.000
206.774,898.000,878.000,870.000,860.000,870.000,888.000,897.000,867.000,869.000,873.000
210.583,909.000,876.000,884.000,884.000,865.000,885.000,887.000,883.000,880.000,890.000
214.390,878.000,870.000,866.000,868.000,862.000,1469.000,883.000,854.000,857.000,865.000
218.196,864.000,857.000,860.000,857.000,868.000,856.000,868.000,855.000,865.000,847.000
221.998,885.000,872.000,854.000,872.000,860.000,878.000,871.000,872.000,870.000,867.000
225.800,861.000,848.000,867.000,844.000,854.000,855.000,860.000,870.000,843.000,854.000
229.601,842.000,846.000,851.000,849.000,847.000,847.000,833.000,832.000,843.000,850.000
233.400,846.000,834.000,831.000,848.000,835.000,841.000,838.000,825.000,831.000,837.000
237.196,850.000,826.000,837.000,853.000,842.000,841.000,845.000,841.000,844.000,837.000
240.992,831.000,832.000,809.000,827.000,821.000,835.000,807.000,824.000,811.000,831.000
244.787,827.000,826.000,812.000,826.000,821.000,816.000,822.000,832.000,825.000,811.000
248.580,793.000,820.000,811.000,811.000,811.000,806.000,819.000,807.000,808.000,812.000
252.370,807.000,805.000,795.000,823.000,804.000,813.000,813.000,811.000,802.000,807.000
256.160,798.000,793.000,795.000,789.000,807.000,819.000,809.000,793.000,812.000,814.000
259.948,795.000,793.000,786.000,801.000,796.000,787.000,816.000,788.000,793.000,813.000
263.735,786.000,791.000,798.000,791.000,795.000,787.000,802.000,795.000,777.000,793.000
267.518,791.000,793.000,786.000,785.000,779.000,786.000,787.000,773.000,787.000,773.000
271.302,781.000,763.000,784.000,781.000,771.000,778.000,792.000,780.000,785.000,789.000
275.085,775.000,783.000,774.000,786.000,774.000,771.000,765.000,789.000,767.000,781.000
278.865,785.000,784.000,772.000,769.000,768.000,782.000,779.000,780.000,784.000,769.000
282.643,779.000,788.000,754.000,775.000,776.000,770.000,775.000,769.000,771.000,770.000
286.420,786.000,776.000,775.000,773.000,780.000,775.000,777.000,772.000,767.000,772.000
290.196,805.000,795.000,786.000,809.000,767.000,780.000,796.000,785.000,794.000,789.000
293.971,799.000,792.000,810.000,780.000,788.000,789.000,776.000,785.000,795.000,779.000
297.742,784.000,774.000,779.000,782.000,782.000,782.000,775.000,780.000,783.000,789.000
301.513,779.000,779.000,763.000,777.000,773.000,771.000,769.000,764.000,757.000,759.000
305.283,774.000,775.000,776.000,769.000,765.000,764.000,758.000,768.000,762.000,779.000
309.052,756.000,766.000,767.000,750.000,760.000,754.000,771.000,757.000,759.000,763.000
312.817,744.000,760.000,779.000,748.000,760.000,756.000,775.000,760.000,753.000,752.000
316.582,768.000,759.000,759.000,766.000,737.000,744.000,748.000,764.000,761.000,753.000
320.346,742.000,764.000,751.000,749.000,745.000,757.000,747.000,751.000,741.000,754.000
324.108,758.000,745.000,746.000,755.000,757.000,744.000,747.000,753.000,749.000,744.000
327.867,757.000,742.000,760.000,757.000,747.000,747.000,752.000,757.000,735.000,746.000
331.626,753.000,747.000,750.000,763.000,739.000,740.000,746.000,745.000,760.000,742.000
335.384,745.000,737.000,746.000,746.000,746.000,751.000,748.000,753.000,735.000,755.000
339.140,739.000,747.000,743.000,739.000,734.000,746.000,747.000,739.000,740.000,736.000
342.893,752.000,747.000,744.000,736.000,751.000,727.000,742.000,745.000,732.000,727.000
346.646,748.000,745.000,735.000,729.000,741.000,746.000,744.000,739.000,744.000,735.000
350.398,742.000,739.000,735.000,748.000,732.000,729.000,735.000,735.000,723.000,734.000
354.148,734.000,731.000,730.000,726.000,733.000,733.000,721.000,727.000,743.000,745.000
357.894,741.000,740.000,745.000,736.000,723.000,726.000,735.000,741.000,739.000,731.000
361.641,742.000,729.000,738.000,750.000,746.000,735.000,729.000,727.000,730.000,731.000
365.387,749.000,745.000,730.000,753.000,747.000,733.000,743.000,738.000,736.000,739.000
369.131,751.000,758.000,742.000,737.000,751.000,748.000,749.000,741.000,758.000,740.000
372.871,742.000,740.000,733.000,740.000,728.000,744.000,746.000,739.000,738.000,744.000
376.612,728.000,722.000,723.000,722.000,730.000,717.000,727.000,718.000,730.000,719.000
380.351,722.000,724.000,734.000,722.000,726.000,715.000,718.000,716.000,717.000,729.000
384.089,713.000,735.000,723.000,709.000,714.000,715.000,718.000,2562.000,721.000,702.000
387.824,707.000,718.000,705.000,712.000,715.000,703.000,711.000,704.000,722.000,713.000
391.559,706.000,713.000,712.000,723.000,709.000,705.000,708.000,706.000,720.000,708.000
395.292,717.000,707.000,713.000,718.000,711.000,709.000,711.000,722.000,703.000,719.000
399.024,698.000,716.000,711.000,704.000,721.000,715.000,725.000,709.000,699.000,705.000
402.752,718.000,700.000,713.000,694.000,715.000,702.000,708.000,704.000,712.000,705.000
406.481,700.000,713.000,709.000,704.000,702.000,722.000,712.000,714.000,705.000,711.000
410.208,704.000,709.000,701.000,705.000,708.000,709.000,710.000,703.000,705.000,695.000
413.934,714.000,712.000,703.000,699.000,697.000,699.000,710.000,709.000,709.000,707.000
417.656,712.000,708.000,710.000,710.000,703.000,709.000,708.000,706.000,704.000,704.000
421.379,713.000,715.000,704.000,713.000,710.000,705.000,711.000,704.000,711.000,694.000
425.100,705.000,712.000,713.000,713.000,714.000,717.000,707.000,702.000,705.000,714.000
428.820,716.000,723.000,725.000,718.000,718.000,717.000,718.000,715.000,712.000,722.000
432.536,717.000,732.000,711.000,722.000,711.000,714.000,715.000,715.000,723.000,714.000
436.253,718.000,715.000,718.000,710.000,721.000,715.000,712.000,711.000,713.000,710.000
439.969,705.000,701.000,712.000,704.000,711.000,709.000,710.000,701.000,712.000,706.000
443.682,700.000,704.000,707.000,694.000,708.000,699.000,707.000,713.000,712.000,705.000
447.393,712.000,705.000,710.000,712.000,710.000,708.000,698.000,718.000,712.000,712.000
451.103,702.000,714.000,706.000,715.000,699.000,695.000,699.000,697.000,692.000,705.000
454.813,703.000,704.000,695.000,695.000,699.000,700.000,701.000,701.000,705.000,697.000
458.520,707.000,705.000,697.000,691.000,694.000,704.000,703.000,691.000,692.000,703.000
462.225,702.000,703.000,699.000,690.000,708.000,699.000,706.000,700.000,698.000,701.000
465.929,695.000,696.000,703.000,702.000,700.000,698.000,700.000,695.000,698.000,693.000
469.633,695.000,696.000,701.000,695.000,702.000,690.000,699.000,687.000,694.000,699.000
473.334,703.000,703.000,696.000,710.000,701.000,694.000,693.000,697.000,707.000,696.000
477.033,712.000,706.000,693.000,708.000,702.000,696.000,702.000,693.000,701.000,707.000
480.731,703.000,696.000,693.000,694.000,699.000,691.000,695.000,694.000,704.000,687.000
484.429,702.000,700.000,690.000,704.000,697.000,702.000,707.000,705.000,698.000,698.000
488.124,706.000,704.000,698.000,695.000,707.000,699.000,705.000,711.000,696.000,701.000
491.817,706.000,701.000,707.000,707.000,703.000,697.000,706.000,700.000,704.000,701.000
495.510,715.000,705.000,708.000,710.000,712.000,704.000,704.000,704.000,703.000,699.000
499.201,707.000,693.000,700.000,707.000,706.000,704.000,716.000,708.000,700.000,706.000
502.891,712.000,708.000,709.000,701.000,694.000,705.000,704.000,704.000,701.000,714.000
506.577,721.000,708.000,694.000,711.000,706.000,707.000,711.000,693.000,708.000,704.000
510.264,709.000,705.000,709.000,714.000,717.000,704.000,702.000,704.000,714.000,717.000
513.949,713.000,708.000,707.000,716.000,704.000,705.000,705.000,706.000,710.000,710.000
517.633,705.000,720.000,712.000,718.000,716.000,709.000,709.000,705.000,719.000,703.000
521.314,728.000,709.000,715.000,710.000,713.000,720.000,713.000,720.000,714.000,707.000
524.994,708.000,715.000,718.000,719.000,700.000,721.000,711.000,714.000,719.000,707.000
528.674,714.000,726.000,714.000,711.000,718.000,714.000,715.000,718.000,718.000,716.000
532.352,721.000,719.000,720.000,727.000,725.000,710.000,726.000,708.000,711.000,719.000
536.026,736.000,736.000,735.000,723.000,724.000,727.000,739.000,731.000,718.000,727.000
539.701,739.000,734.000,733.000,738.000,740.000,728.000,729.000,736.000,728.000,747.000
543.375,736.000,733.000,731.000,720.000,719.000,726.000,726.000,732.000,720.000,721.000
547.047,708.000,706.000,708.000,714.000,706.000,702.000,709.000,712.000,700.000,709.000
550.715,703.000,713.000,704.000,710.000,705.000,694.000,702.000,706.000,691.000,707.000
554.385,700.000,696.000,692.000,699.000,707.000,692.000,699.000,696.000,695.000,705.000
558.052,702.000,699.000,700.000,694.000,690.000,699.000,694.000,701.000,702.000,698.000
561.718,708.000,702.000,701.000,701.000,697.000,697.000,702.000,696.000,698.000,694.000
565.381,701.000,700.000,705.000,708.000,704.000,698.000,706.000,700.000,694.000,707.000
569.044,714.000,708.000,722.000,708.000,706.000,706.000,704.000,701.000,717.000,707.000
572.706,707.000,716.000,721.000,724.000,725.000,717.000,723.000,724.000,718.000,716.000
576.366,730.000,753.000,739.000,754.000,736.000,732.000,731.000,737.000,727.000,728.000
580.023,749.000,751.000,745.000,753.000,730.000,755.000,760.000,743.000,756.000,751.000
583.680,759.000,753.000,734.000,738.000,741.000,747.000,748.000,736.000,739.000,738.000
587.336,752.000,743.000,742.000,742.000,753.000,749.000,742.000,738.000,748.000,745.000
590.990,745.000,736.000,753.000,732.000,745.000,753.000,759.000,742.000,745.000,738.000
594.641,759.000,738.000,745.000,755.000,747.000,741.000,742.000,752.000,733.000,739.000
598.293,748.000,751.000,744.000,747.000,744.000,748.000,744.000,740.000,740.000,739.000
601.943,746.000,748.000,753.000,724.000,758.000,734.000,740.000,738.000,738.000,730.000
605.591,745.000,739.000,738.000,735.000,736.000,737.000,732.000,737.000,735.000,741.000
609.236,737.000,756.000,744.000,745.000,745.000,740.000,745.000,735.000,751.000,741.000
612.882,735.000,738.000,728.000,737.000,724.000,733.000,743.000,734.000,742.000,726.000
616.526,740.000,735.000,736.000,730.000,733.000,737.000,727.000,720.000,740.000,733.000
620.169,740.000,745.000,733.000,752.000,742.000,739.000,738.000,741.000,724.000,743.000
623.808,728.000,725.000,716.000,715.000,734.000,733.000,739.000,730.000,729.000,735.000
627.448,735.000,732.000,720.000,741.000,730.000,736.000,723.000,723.000,719.000,721.000
631.086,730.000,728.000,741.000,736.000,733.000,720.000,728.000,726.000,726.000,718.000
634.723,723.000,722.000,735.000,717.000,734.000,725.000,721.000,727.000,727.000,724.000
638.356,731.000,729.000,729.000,726.000,725.000,714.000,726.000,722.000,727.000,731.000
641.990,728.000,721.000,725.000,718.000,715.000,721.000,726.000,715.000,726.000,721.000
645.623,728.000,718.000,727.000,715.000,723.000,709.000,726.000,728.000,716.000,726.000
649.254,716.000,715.000,714.000,735.000,720.000,721.000,709.000,719.000,725.000,709.000
652.881,715.000,707.000,712.000,705.000,712.000,705.000,709.000,717.000,720.000,723.000
656.509,709.000,718.000,709.000,718.000,712.000,715.000,706.000,707.000,704.000,707.000
660.136,717.000,710.000,703.000,706.000,705.000,703.000,719.000,706.000,711.000,708.000
663.761,715.000,710.000,710.000,715.000,711.000,710.000,717.000,722.000,707.000,703.000
667.383,707.000,699.000,717.000,704.000,707.000,717.000,713.000,701.000,699.000,714.000
671.005,709.000,711.000,714.000,722.000,715.000,704.000,710.000,713.000,705.000,701.000
674.626,702.000,712.000,709.000,707.000,710.000,698.000,707.000,710.000,707.000,710.000
678.246,711.000,723.000,703.000,705.000,706.000,718.000,705.000,709.000,701.000,702.000
681.862,716.000,692.000,720.000,704.000,713.000,704.000,709.000,712.000,711.000,711.000
685.478,716.000,709.000,722.000,700.000,707.000,711.000,709.000,708.000,699.000,712.000
689.093,711.000,712.000,724.000,715.000,711.000,710.000,710.000,719.000,712.000,716.000
692.707,712.000,715.000,710.000,717.000,713.000,716.000,718.000,701.000,712.000,711.000
696.317,731.000,708.000,728.000,714.000,719.000,718.000,713.000,709.000,703.000,708.000
699.928,727.000,712.000,714.000,725.000,715.000,721.000,721.000,716.000,712.000,713.000
703.537,728.000,723.000,732.000,734.000,736.000,714.000,716.000,716.000,721.000,720.000
707.145,722.000,722.000,724.000,724.000,730.000,735.000,718.000,729.000,734.000,725.000
710.750,739.000,736.000,732.000,724.000,725.000,722.000,735.000,743.000,731.000,722.000
714.355,727.000,742.000,728.000,738.000,729.000,740.000,739.000,731.000,726.000,735.000
717.958,739.000,736.000,731.000,728.000,729.000,734.000,737.000,726.000,718.000,738.000
721.560,731.000,720.000,723.000,718.000,731.000,735.000,723.000,716.000,736.000,715.000
725.159,738.000,722.000,733.000,729.000,723.000,717.000,730.000,721.000,733.000,723.000
728.758,726.000,751.000,731.000,728.000,727.000,730.000,735.000,711.000,715.000,724.000
732.356,738.000,733.000,732.000,736.000,733.000,731.000,739.000,738.000,727.000,731.000
735.953,745.000,742.000,735.000,752.000,732.000,728.000,751.000,726.000,737.000,743.000
739.546,736.000,746.000,745.000,733.000,733.000,746.000,752.000,740.000,733.000,734.000
743.139,738.000,738.000,730.000,730.000,743.000,730.000,736.000,738.000,731.000,744.000
746.731,739.000,740.000,731.000,731.000,744.000,721.000,737.000,743.000,734.000,734.000
750.322,743.000,730.000,734.000,730.000,727.000,737.000,730.000,721.000,726.000,729.000
753.909,732.000,732.000,732.000,727.000,730.000,728.000,726.000,729.000,739.000,733.000
757.497,740.000,734.000,726.000,728.000,735.000,743.000,742.000,726.000,732.000,729.000
761.084,735.000,730.000,738.000,728.000,737.000,726.000,735.000,716.000,733.000,735.000
764.669,741.000,736.000,746.000,738.000,726.000,731.000,734.000,736.000,733.000,736.000
768.250,741.000,741.000,755.000,746.000,736.000,740.000,739.000,737.000,743.000,744.000
771.832,782.000,754.000,771.000,752.000,763.000,759.000,763.000,758.000,757.000,754.000
775.413,745.000,756.000,746.000,756.000,749.000,752.000,736.000,746.000,746.000,747.000
778.992,726.000,742.000,733.000,736.000,728.000,729.000,727.000,731.000,727.000,733.000
782.568,729.000,723.000,738.000,735.000,742.000,731.000,727.000,734.000,738.000,741.000
786.145,722.000,735.000,724.000,722.000,738.000,726.000,723.000,727.000,723.000,722.000
789.720,729.000,727.000,721.000,728.000,721.000,732.000,726.000,724.000,727.000,739.000
793.293,722.000,725.000,746.000,721.000,727.000,730.000,730.000,734.000,731.000,724.000
796.864,732.000,732.000,723.000,739.000,739.000,718.000,719.000,729.000,744.000,730.000
800.434,743.000,740.000,745.000,727.000,730.000,734.000,728.000,736.000,727.000,731.000
804.004,737.000,723.000,737.000,730.000,752.000,749.000,726.000,728.000,724.000,738.000
807.572,737.000,737.000,738.000,744.000,739.000,723.000,717.000,734.000,740.000,737.000
811.136,746.000,733.000,736.000,730.000,738.000,738.000,738.000,739.000,739.000,728.000
814.701,749.000,738.000,735.000,740.000,729.000,736.000,727.000,735.000,741.000,732.000
818.265,745.000,756.000,753.000,743.000,745.000,752.000,758.000,748.000,744.000,746.000
821.827,762.000,760.000,758.000,752.000,744.000,750.000,755.000,737.000,746.000,755.000
825.386,764.000,763.000,778.000,764.000,755.000,754.000,761.000,768.000,758.000,757.000
828.946,772.000,764.000,770.000,755.000,784.000,767.000,761.000,765.000,765.000,765.000
832.504,779.000,777.000,779.000,773.000,781.000,776.000,777.000,762.000,763.000,770.000
836.060,780.000,775.000,769.000,774.000,780.000,771.000,780.000,775.000,781.000,786.000
839.614,787.000,788.000,788.000,774.000,793.000,793.000,792.000,783.000,803.000,799.000
843.167,807.000,796.000,796.000,790.000,780.000,782.000,796.000,787.000,793.000,791.000
846.720,798.000,767.000,793.000,789.000,790.000,790.000,769.000,779.000,784.000,793.000
850.271,777.000,804.000,787.000,789.000,793.000,790.000,780.000,783.000,798.000,774.000
853.819,782.000,788.000,780.000,789.000,778.000,775.000,784.000,773.000,782.000,773.000
857.367,755.000,790.000,781.000,791.000,773.000,766.000,756.000,789.000,781.000,785.000
860.914,791.000,775.000,772.000,772.000,777.000,768.000,772.000,767.000,764.000,791.000
864.459,789.000,784.000,786.000,782.000,769.000,775.000,780.000,781.000,778.000,779.000
868.001,805.000,796.000,782.000,792.000,790.000,793.000,789.000,784.000,775.000,797.000
871.544,804.000,802.000,801.000,795.000,805.000,792.000,800.000,803.000,793.000,798.000
875.085,811.000,796.000,808.000,808.000,806.000,804.000,793.000,804.000,810.000,790.000
878.625,817.000,821.000,803.000,807.000,803.000,807.000,808.000,815.000,791.000,813.000
882.161,809.000,815.000,816.000,817.000,817.000,814.000,799.000,810.000,816.000,811.000
885.698,825.000,823.000,813.000,823.000,830.000,832.000,808.000,812.000,810.000,813.000
889.234,824.000,829.000,821.000,804.000,825.000,812.000,822.000,818.000,829.000,804.000
892.768,820.000,824.000,825.000,805.000,829.000,809.000,828.000,840.000,819.000,813.000
896.299,820.000,825.000,835.000,833.000,819.000,825.000,823.000,830.000,814.000,813.000
899.830,808.000,823.000,821.000,822.000,829.000,831.000,835.000,817.000,797.000,822.000
903.360,827.000,817.000,803.000,845.000,812.000,827.000,827.000,808.000,828.000,802.000
906.889,840.000,830.000,852.000,839.000,850.000,839.000,834.000,831.000,832.000,831.000
910.414,844.000,831.000,859.000,841.000,842.000,838.000,838.000,843.000,838.000,848.000
913.940,864.000,866.000,847.000,862.000,851.000,836.000,866.000,860.000,870.000,870.000
917.465,875.000,868.000,883.000,879.000,858.000,871.000,880.000,881.000,873.000,886.000
920.988,892.000,888.000,888.000,891.000,884.000,890.000,884.000,885.000,887.000,879.000
924.508,922.000,923.000,916.000,895.000,910.000,915.000,909.000,917.000,910.000,1081.000
928.028,981.000,969.000,956.000,962.000,972.000,969.000,966.000,982.000,972.000,972.000
931.547,1062.000,1025.000,1061.000,1053.000,1034.000,1026.000,1037.000,1075.000,1072.000,1048.000
935.064,999.000,1028.000,1013.000,991.000,980.000,1001.000,979.000,994.000,974.000,1003.000
938.579,936.000,916.000,904.000,909.000,915.000,882.000,907.000,903.000,920.000,910.000
942.093,899.000,894.000,881.000,898.000,885.000,879.000,857.000,882.000,882.000,878.000
943.850,872.000,875.000,889.000,866.000,861.000,873.000,891.000,891.000,881.000,880.000