File: Raman/2022_11_26_Hagfish_Film_Unstreched_532nm_Pol_6mW_750mm_600gv_2250wn_iDus_100s_10accum_Pos2.csv
1443.187,1773.000,1738.000,1755.000,1714.000,1647.000,1642.000,1571.000,1577.000,1546.000,1538.000
1448.136,1861.000,1890.000,1828.000,1757.000,1719.000,1723.000,1689.000,1684.000,1659.000,1640.000
1453.083,2028.000,1967.000,1955.000,1863.000,1877.000,1817.000,1816.000,1771.000,1769.000,1762.000
1458.026,2120.000,2028.000,1959.000,1942.000,1912.000,1875.000,1864.000,1861.000,1815.000,1841.000
1462.968,2161.000,2145.000,2083.000,2059.000,2021.000,1960.000,1966.000,1928.000,1928.000,1865.000
1467.906,2120.000,2062.000,1971.000,1971.000,1928.000,1894.000,1830.000,1859.000,1880.000,1860.000
1472.842,2084.000,1972.000,1976.000,1956.000,1932.000,1863.000,1877.000,1844.000,1797.000,1841.000
1477.774,2050.000,2016.000,1952.000,1926.000,1915.000,1875.000,1867.000,1790.000,1794.000,1777.000
1482.704,1989.000,1928.000,1894.000,1850.000,1801.000,1801.000,1752.000,1764.000,1716.000,1784.000
1487.631,1912.000,1837.000,1841.000,1795.000,1741.000,1733.000,1749.000,1665.000,1674.000,1615.000
1492.556,1813.000,1782.000,1749.000,1736.000,1651.000,1681.000,1640.000,1558.000,1585.000,1554.000
1497.476,1811.000,1764.000,1690.000,1699.000,1631.000,1619.000,1601.000,1623.000,1559.000,1537.000
1502.396,1778.000,1699.000,1686.000,1642.000,1581.000,1551.000,1515.000,1516.000,1500.000,1482.000
1507.311,1738.000,1671.000,1594.000,1572.000,1569.000,1541.000,1496.000,1467.000,1461.000,1468.000
1512.224,1721.000,1629.000,1644.000,1562.000,1554.000,1502.000,1471.000,1441.000,1465.000,1414.000
1517.134,1695.000,1633.000,1575.000,1564.000,1501.000,1490.000,1463.000,1451.000,1431.000,1409.000
1522.042,1687.000,1633.000,1583.000,1563.000,1470.000,1466.000,1439.000,1417.000,1449.000,1413.000
1526.946,1680.000,1594.000,1619.000,1564.000,1534.000,1468.000,1463.000,1429.000,1431.000,1427.000
1531.849,1732.000,1637.000,1594.000,1623.000,1545.000,1479.000,1449.000,1427.000,1439.000,1407.000
1536.747,1707.000,1663.000,1579.000,1588.000,1538.000,1522.000,1481.000,1471.000,1429.000,1409.000
1541.644,1737.000,1687.000,1673.000,1617.000,1568.000,1522.000,1515.000,1504.000,1441.000,1448.000
1546.537,1731.000,1684.000,1657.000,1631.000,1603.000,1555.000,1506.000,1496.000,1494.000,1474.000
1551.428,1758.000,1710.000,1679.000,1609.000,1591.000,1591.000,1529.000,1500.000,1531.000,1448.000
1556.315,1802.000,1754.000,1723.000,1643.000,1603.000,1548.000,1574.000,1533.000,1480.000,1472.000
1561.201,1872.000,1790.000,1758.000,1706.000,1681.000,1607.000,1622.000,1593.000,1556.000,1483.000
1566.083,1870.000,1788.000,1788.000,1707.000,1668.000,1674.000,1673.000,1573.000,1608.000,1561.000
1570.964,1896.000,1815.000,1746.000,1724.000,1662.000,1673.000,1632.000,1615.000,1577.000,1584.000
1575.840,1875.000,1851.000,1770.000,1711.000,1672.000,1658.000,1669.000,4028.000,1536.000,1578.000
1580.715,1889.000,1834.000,1740.000,1715.000,1699.000,1623.000,1663.000,1583.000,1572.000,1552.000
1585.585,1889.000,1791.000,1779.000,1728.000,1713.000,1645.000,1664.000,1595.000,1587.000,1538.000
1590.455,1870.000,1818.000,1756.000,1735.000,1663.000,1632.000,1626.000,1578.000,1567.000,1560.000
1595.320,2778.000,1814.000,1749.000,1709.000,1687.000,1666.000,1600.000,1614.000,1584.000,1565.000
1600.182,1895.000,1779.000,1753.000,1717.000,1702.000,1630.000,1615.000,1592.000,1605.000,1563.000
1605.043,1875.000,1819.000,1758.000,1678.000,1655.000,1673.000,1631.000,1569.000,1570.000,1509.000
1609.900,1948.000,1865.000,1785.000,1761.000,1764.000,1689.000,1668.000,1637.000,1642.000,1577.000
1614.756,2003.000,1923.000,1845.000,1807.000,1827.000,1754.000,1702.000,1662.000,1651.000,1619.000
1619.607,2018.000,1981.000,1892.000,1845.000,1799.000,1749.000,1762.000,1732.000,1716.000,1695.000
1624.457,2052.000,1985.000,1902.000,1916.000,1835.000,1782.000,1775.000,1775.000,1726.000,1705.000
1629.303,2071.000,1997.000,1952.000,1931.000,1835.000,1825.000,1756.000,1770.000,1744.000,1734.000
1634.148,2023.000,1924.000,1910.000,1883.000,1830.000,1825.000,1767.000,1719.000,1747.000,1671.000
1638.988,2013.000,1937.000,1939.000,1860.000,1782.000,1802.000,1777.000,1729.000,1686.000,1694.000
1643.827,2056.000,2005.000,1954.000,1944.000,1877.000,1825.000,1795.000,1802.000,2001.000,1716.000
1648.662,2151.000,2082.000,1973.000,1950.000,1904.000,1887.000,1817.000,1827.000,1781.000,1807.000
1653.496,2203.000,2170.000,2118.000,2065.000,2019.000,1978.000,1931.000,1926.000,1915.000,1908.000
1658.326,2357.000,2310.000,2206.000,2201.000,2139.000,2106.000,2055.000,2054.000,2024.000,1995.000
1663.154,2500.000,2447.000,2371.000,2318.000,2287.000,2272.000,2288.000,2203.000,2157.000,2121.000
1667.978,2711.000,2586.000,2514.000,2532.000,2501.000,2456.000,2438.000,2431.000,2361.000,2355.000
1672.801,2868.000,2823.000,2747.000,2725.000,2659.000,2644.000,2561.000,2586.000,2582.000,2536.000
1677.620,3221.000,3158.000,3156.000,3061.000,3038.000,3006.000,2900.000,2898.000,2947.000,2863.000
1682.437,3589.000,3517.000,3410.000,3369.000,3328.000,3282.000,3230.000,3249.000,3260.000,3171.000
1687.250,3335.000,3280.000,3223.000,3177.000,3082.000,3086.000,2981.000,2991.000,2917.000,2957.000
1692.062,2860.000,2750.000,2721.000,2671.000,2602.000,2610.000,2569.000,2574.000,2531.000,2493.000
1696.870,2495.000,2435.000,2402.000,2371.000,2317.000,2293.000,2237.000,2188.000,2164.000,2174.000
1701.677,2360.000,2227.000,2200.000,2171.000,2092.000,2075.000,2034.000,2055.000,2027.000,2032.000
1706.479,2142.000,2114.000,2015.000,2053.000,1954.000,1890.000,1890.000,1865.000,1853.000,1838.000
1711.281,2115.000,2006.000,1950.000,1862.000,1861.000,1835.000,1770.000,1779.000,1710.000,1721.000
1716.077,1977.000,1875.000,1886.000,1835.000,1759.000,1775.000,1704.000,1691.000,1648.000,1613.000
1720.873,1968.000,1865.000,1761.000,1747.000,1704.000,1663.000,1627.000,1591.000,1574.000,1564.000
1725.665,1911.000,1826.000,1730.000,1699.000,1603.000,1651.000,1569.000,1559.000,1553.000,1481.000
1730.456,1835.000,1748.000,1712.000,1659.000,1605.000,1591.000,1578.000,1504.000,1482.000,1477.000
1735.242,1819.000,1763.000,1675.000,1649.000,1594.000,1566.000,1540.000,1525.000,1468.000,1488.000
1740.027,1801.000,1763.000,1732.000,1644.000,1585.000,1575.000,1544.000,1464.000,1478.000,1478.000
1744.808,1852.000,1797.000,1705.000,1644.000,1615.000,1559.000,1573.000,1502.000,1508.000,1476.000
1749.586,1838.000,1781.000,1668.000,1656.000,1602.000,1572.000,1546.000,1468.000,1441.000,1413.000
1754.363,1807.000,1752.000,1700.000,1619.000,1575.000,1517.000,1512.000,1477.000,1482.000,1447.000
1759.136,1774.000,1715.000,1660.000,1614.000,1551.000,1528.000,1462.000,1465.000,1440.000,1412.000
1763.908,1790.000,1696.000,1641.000,1601.000,1505.000,1473.000,1457.000,1456.000,1428.000,1401.000
1768.675,1826.000,1703.000,1658.000,1603.000,1516.000,1502.000,1455.000,1456.000,1412.000,1372.000
1773.442,1812.000,1694.000,1656.000,1604.000,1525.000,1510.000,1486.000,1450.000,1419.000,1418.000
1778.204,1791.000,1692.000,1648.000,1601.000,1564.000,1509.000,1496.000,1428.000,1450.000,1417.000
1782.965,1785.000,1725.000,1625.000,1571.000,1567.000,1507.000,1490.000,1432.000,1449.000,1407.000
1787.721,1747.000,1707.000,1615.000,1579.000,1560.000,1511.000,1475.000,1427.000,1437.000,1383.000
1792.477,1771.000,1719.000,1621.000,1576.000,1514.000,1491.000,1467.000,1451.000,1416.000,1372.000
1797.229,1746.000,1657.000,1633.000,1562.000,1511.000,1447.000,1474.000,1432.000,1417.000,1370.000
1801.979,1749.000,1709.000,1624.000,1611.000,1534.000,1536.000,1485.000,1450.000,1431.000,1417.000
1806.725,1761.000,1731.000,2457.000,1612.000,1546.000,1542.000,1489.000,1444.000,1395.000,1412.000
1811.471,1787.000,1731.000,1598.000,1591.000,1592.000,1536.000,1467.000,1468.000,1418.000,1416.000
1816.211,1791.000,1713.000,1654.000,1610.000,1509.000,1536.000,1476.000,1449.000,1431.000,1392.000
1820.951,1783.000,1700.000,1614.000,1606.000,1511.000,1500.000,1473.000,1438.000,1426.000,1379.000
1825.687,1752.000,1676.000,1655.000,1605.000,1528.000,1472.000,1503.000,1463.000,1441.000,1413.000
1830.422,1782.000,1687.000,1673.000,1622.000,1558.000,1515.000,1490.000,1408.000,1403.000,1384.000
1835.152,1790.000,1757.000,1661.000,1599.000,1580.000,1543.000,1512.000,1485.000,1454.000,1431.000
1839.881,1806.000,1711.000,1657.000,1618.000,1575.000,1554.000,1510.000,1475.000,1465.000,1404.000
1844.606,1865.000,1744.000,1640.000,1621.000,1597.000,1506.000,1485.000,1454.000,1455.000,1426.000
1849.330,1817.000,1709.000,1653.000,1613.000,1574.000,1502.000,1505.000,1472.000,1430.000,1407.000
1854.050,1821.000,1728.000,1658.000,1627.000,1567.000,1516.000,1492.000,1436.000,1411.000,1392.000
1858.769,1810.000,1736.000,1665.000,1571.000,1566.000,1543.000,1483.000,1468.000,1424.000,1438.000
1863.483,1810.000,1746.000,1679.000,1612.000,1567.000,1561.000,1479.000,1499.000,1454.000,1430.000
1868.197,1865.000,1760.000,1709.000,1642.000,1611.000,1557.000,1516.000,1456.000,1466.000,1461.000
1872.906,1848.000,1727.000,1712.000,1665.000,1581.000,1525.000,1500.000,1503.000,1448.000,1445.000
1877.614,1824.000,1724.000,1659.000,1607.000,1593.000,1543.000,1473.000,1478.000,1440.000,1429.000
1882.318,1835.000,1736.000,1696.000,1626.000,1578.000,1518.000,1479.000,1469.000,1428.000,1450.000
1887.021,1823.000,1728.000,1700.000,1617.000,1581.000,1531.000,1539.000,1448.000,1482.000,1396.000
1891.720,1812.000,1800.000,1748.000,1610.000,1590.000,1575.000,1552.000,1497.000,1474.000,1426.000
1896.416,1916.000,1774.000,1734.000,1656.000,1600.000,1596.000,1571.000,2541.000,1482.000,1454.000
1901.111,1826.000,1719.000,1715.000,1654.000,1594.000,1561.000,1533.000,1470.000,1457.000,1421.000
1905.802,1823.000,1740.000,1679.000,1657.000,1559.000,1515.000,1481.000,1460.000,1471.000,1435.000
1910.492,1840.000,1745.000,1660.000,1610.000,1578.000,1507.000,1507.000,1457.000,1490.000,1427.000
1915.178,1877.000,1776.000,1716.000,1629.000,1589.000,1542.000,1514.000,1491.000,1455.000,1439.000
1919.863,1868.000,1774.000,1716.000,1696.000,1602.000,1559.000,1530.000,1483.000,1482.000,1416.000
1924.544,1898.000,1795.000,1707.000,1657.000,1600.000,1571.000,1546.000,1517.000,1452.000,1458.000
1929.223,1863.000,1787.000,1717.000,1637.000,1632.000,1591.000,1532.000,1465.000,1469.000,1419.000
1933.898,1873.000,1768.000,1715.000,1664.000,1608.000,1560.000,1480.000,1492.000,1423.000,1414.000
1938.573,1828.000,1760.000,1720.000,1665.000,1628.000,1569.000,1526.000,1498.000,1448.000,1436.000
1943.243,1840.000,1753.000,1727.000,1693.000,1582.000,1559.000,1585.000,1505.000,1454.000,1443.000
1947.912,1924.000,1811.000,1722.000,1644.000,1649.000,1583.000,1539.000,1551.000,1475.000,1492.000
1952.577,1887.000,1833.000,1758.000,1699.000,1594.000,1620.000,1553.000,1527.000,1510.000,1481.000
1957.241,1857.000,1765.000,1735.000,1645.000,1612.000,1600.000,1511.000,1521.000,1486.000,1463.000
1961.901,1891.000,1796.000,1717.000,1661.000,1610.000,1573.000,1541.000,1488.000,1466.000,1468.000
1966.560,1885.000,1778.000,1690.000,1696.000,1614.000,1585.000,1551.000,1493.000,1454.000,1438.000
1971.215,1881.000,1812.000,1759.000,1718.000,1651.000,1611.000,1563.000,1531.000,1513.000,1475.000
1975.869,1936.000,1815.000,1761.000,1671.000,1656.000,1605.000,1580.000,1503.000,1504.000,1510.000
1980.518,1882.000,1807.000,1770.000,1653.000,1638.000,1621.000,1527.000,1546.000,1470.000,1445.000
1985.167,1915.000,1791.000,1751.000,1702.000,1665.000,1588.000,1570.000,1517.000,1511.000,1429.000
1989.811,1873.000,1827.000,1752.000,1691.000,1642.000,1619.000,1803.000,1541.000,1498.000,1467.000
1994.455,1939.000,1816.000,1756.000,1716.000,1644.000,1608.000,1607.000,1539.000,1489.000,1522.000
1999.094,1928.000,1843.000,1771.000,1759.000,1665.000,1569.000,1566.000,1574.000,1514.000,1485.000
2003.732,1935.000,1830.000,1781.000,1721.000,1658.000,1626.000,1566.000,1542.000,1529.000,1501.000
2008.366,1931.000,1850.000,1736.000,1693.000,1664.000,1617.000,1595.000,1511.000,1504.000,1492.000
2013.000,1864.000,1803.000,1713.000,1659.000,1656.000,1600.000,1581.000,1495.000,1471.000,1448.000
2017.629,1885.000,1811.000,1700.000,1674.000,1644.000,1597.000,1569.000,1544.000,1499.000,1507.000
2022.257,1915.000,1858.000,1791.000,1694.000,1642.000,1603.000,1573.000,1583.000,1503.000,1514.000
2026.881,1971.000,1846.000,1791.000,1706.000,1699.000,1654.000,1599.000,1604.000,1530.000,1529.000
2031.504,1944.000,1877.000,1786.000,1746.000,1682.000,1620.000,1600.000,1553.000,1523.000,1488.000
2036.123,1922.000,1839.000,1773.000,1712.000,1656.000,1625.000,1601.000,1530.000,1524.000,1515.000
2040.739,1898.000,1816.000,1761.000,1693.000,1676.000,1622.000,1586.000,1559.000,1507.000,1486.000
2045.354,1932.000,1846.000,1794.000,1712.000,1649.000,1604.000,1564.000,1520.000,1458.000,1480.000
2049.966,1929.000,1874.000,1789.000,1740.000,1635.000,1642.000,1568.000,1575.000,1541.000,1481.000
2054.576,1924.000,1859.000,1809.000,1740.000,1670.000,1664.000,1612.000,1507.000,1532.000,1528.000
2059.182,1943.000,1819.000,1847.000,1707.000,1691.000,1637.000,1581.000,1561.000,1543.000,1499.000
2063.787,1938.000,1828.000,1791.000,1702.000,1633.000,1635.000,1579.000,1571.000,1521.000,1494.000
2068.388,2021.000,1881.000,1820.000,1735.000,1658.000,1641.000,1609.000,1566.000,1544.000,1533.000
2072.988,1986.000,1882.000,1803.000,1756.000,1692.000,1655.000,1588.000,1581.000,1525.000,1490.000
2077.584,1963.000,1887.000,1808.000,1758.000,1696.000,1627.000,1587.000,1561.000,1552.000,1488.000
2082.180,1967.000,1845.000,1828.000,1752.000,1645.000,1594.000,1595.000,1566.000,1538.000,1532.000
2086.771,1919.000,1854.000,1761.000,1721.000,1660.000,1601.000,1568.000,1580.000,1531.000,1503.000
2091.361,1953.000,1867.000,1814.000,1710.000,1673.000,1639.000,1578.000,1583.000,1538.000,1475.000
2095.947,1945.000,1878.000,1851.000,1721.000,1652.000,1685.000,1599.000,1554.000,1575.000,1515.000
2100.532,1970.000,1887.000,1850.000,1762.000,1723.000,1657.000,1623.000,1587.000,1586.000,1549.000
2105.112,1967.000,1847.000,1830.000,1787.000,1667.000,1662.000,1633.000,1612.000,1536.000,1518.000
2109.692,1981.000,1883.000,1845.000,1764.000,1680.000,1658.000,1628.000,1570.000,1569.000,1490.000
2114.268,1996.000,1872.000,1821.000,1717.000,1691.000,1633.000,1661.000,1578.000,1559.000,1498.000
2118.843,1972.000,1900.000,1813.000,1744.000,1698.000,1701.000,1595.000,1577.000,1544.000,1544.000
2123.414,1994.000,1895.000,1843.000,1771.000,1711.000,1672.000,1666.000,1599.000,1579.000,1531.000
2127.984,1958.000,1872.000,1802.000,1762.000,1646.000,1696.000,1611.000,1577.000,1530.000,1524.000
2132.550,1978.000,1900.000,1806.000,1762.000,1684.000,1671.000,1604.000,1595.000,1556.000,1554.000
2137.115,1963.000,1878.000,1809.000,1760.000,1725.000,1625.000,1648.000,1585.000,1536.000,1531.000
2141.676,2009.000,1885.000,1817.000,1720.000,1696.000,1693.000,1626.000,1581.000,1537.000,1540.000
2146.236,1987.000,1915.000,1810.000,1753.000,1716.000,1654.000,1626.000,1604.000,1551.000,1536.000
2150.792,2008.000,2628.000,1838.000,1724.000,1661.000,1657.000,1616.000,1572.000,1561.000,1549.000
2155.347,1970.000,1886.000,1819.000,1756.000,1690.000,1658.000,1612.000,1560.000,1550.000,1539.000
2159.897,1963.000,1861.000,1818.000,1706.000,1642.000,1639.000,1610.000,1588.000,1539.000,1532.000
2164.447,1979.000,1855.000,1831.000,1741.000,1704.000,1645.000,1617.000,1576.000,1531.000,1508.000
2168.993,1971.000,1900.000,1792.000,1747.000,1696.000,1641.000,1621.000,1599.000,1571.000,1531.000
2173.538,1944.000,1907.000,1826.000,1763.000,1707.000,1650.000,1626.000,1614.000,1550.000,1522.000
2178.079,1995.000,1888.000,1795.000,1728.000,1683.000,1679.000,1617.000,1587.000,1592.000,1545.000
2182.618,1960.000,1866.000,1778.000,1797.000,1686.000,1660.000,1606.000,1540.000,1530.000,1517.000
2187.155,2006.000,1818.000,1825.000,1769.000,1724.000,1648.000,1618.000,1567.000,1542.000,1559.000
2191.689,1968.000,1858.000,1848.000,1741.000,1669.000,1648.000,1644.000,1588.000,1546.000,1495.000
2196.221,1944.000,1919.000,1829.000,1713.000,1729.000,1651.000,1644.000,1609.000,1593.000,1511.000
2200.750,1982.000,1861.000,1783.000,1744.000,1672.000,1645.000,1629.000,1558.000,1537.000,1525.000
2205.277,1988.000,1880.000,1774.000,1791.000,1683.000,1653.000,1622.000,1573.000,1576.000,1508.000
2209.801,1954.000,1881.000,1819.000,1743.000,1694.000,1671.000,1601.000,1594.000,1571.000,1519.000
2214.324,2000.000,1910.000,1795.000,1775.000,1680.000,1608.000,1634.000,1577.000,1567.000,1514.000
2218.842,1937.000,1870.000,1829.000,1715.000,1671.000,1655.000,1630.000,1570.000,1553.000,1514.000
2223.360,1952.000,1905.000,1849.000,1819.000,1667.000,1687.000,1640.000,1604.000,1551.000,1559.000
2227.874,2026.000,1885.000,1851.000,1777.000,1712.000,1679.000,1636.000,1600.000,1561.000,1532.000
2232.387,2000.000,1859.000,1846.000,1731.000,1693.000,1665.000,1608.000,1599.000,1552.000,1518.000
2236.896,2003.000,1913.000,1820.000,1773.000,1663.000,1684.000,1595.000,1562.000,1590.000,1545.000
2241.404,1997.000,1852.000,1822.000,1763.000,1700.000,1623.000,1620.000,1554.000,1582.000,1538.000
2245.908,1990.000,1863.000,1865.000,1811.000,1726.000,1719.000,1657.000,1587.000,1556.000,1563.000
2250.411,1987.000,1882.000,1863.000,1760.000,1740.000,1720.000,1607.000,1599.000,1586.000,1555.000
2254.910,1944.000,1849.000,1847.000,1761.000,1696.000,1695.000,1605.000,1595.000,1569.000,1533.000
2259.408,1944.000,1889.000,1861.000,1797.000,1743.000,1665.000,1613.000,1588.000,1568.000,1533.000
2263.902,2023.000,1850.000,1844.000,1761.000,1715.000,1691.000,1620.000,1606.000,1573.000,1561.000
2268.395,2033.000,1923.000,1821.000,1848.000,1756.000,1678.000,1638.000,1618.000,1622.000,1575.000
2272.885,2060.000,1924.000,1835.000,1815.000,1719.000,1697.000,1680.000,1618.000,1600.000,1563.000
2277.373,2010.000,1874.000,1838.000,1804.000,1703.000,1682.000,1659.000,1625.000,1579.000,1561.000
2281.857,1992.000,1864.000,1859.000,1787.000,1726.000,1673.000,1630.000,1633.000,1586.000,1552.000
2286.341,2021.000,1903.000,1842.000,1804.000,1742.000,1711.000,1640.000,1629.000,1601.000,1555.000
2290.820,2038.000,1911.000,1862.000,1845.000,1722.000,1708.000,1663.000,1647.000,1615.000,1566.000
2295.299,2065.000,1951.000,1896.000,1800.000,1739.000,1720.000,1672.000,1612.000,1579.000,1572.000
2299.774,2036.000,1913.000,1839.000,1777.000,1744.000,1729.000,1668.000,1614.000,1583.000,1553.000
2304.248,2028.000,1962.000,1873.000,1836.000,1708.000,1681.000,1671.000,1663.000,1602.000,1553.000
2308.717,2040.000,1919.000,1878.000,1788.000,1768.000,1691.000,1636.000,1643.000,1619.000,1605.000
2313.186,2078.000,1946.000,1873.000,1830.000,1770.000,1702.000,1645.000,1645.000,1590.000,1599.000
2317.651,2026.000,1936.000,1873.000,1844.000,1757.000,1752.000,1680.000,1599.000,1591.000,1564.000
2322.114,1994.000,1932.000,1851.000,1839.000,1733.000,1706.000,1696.000,1604.000,1599.000,1539.000
2326.575,2050.000,1933.000,1863.000,1814.000,1749.000,1736.000,1672.000,1642.000,1627.000,1551.000
2331.033,2118.000,1983.000,1867.000,1856.000,1763.000,1734.000,1691.000,1662.000,1621.000,1603.000
2335.490,2072.000,2001.000,1937.000,1884.000,1804.000,1800.000,1667.000,1687.000,1690.000,1636.000
2339.943,1967.000,1883.000,1825.000,1775.000,1763.000,1712.000,1663.000,1648.000,1556.000,1570.000
2344.395,1983.000,1918.000,1840.000,1775.000,1728.000,1673.000,1652.000,1606.000,1601.000,1591.000
2348.843,2111.000,1982.000,1876.000,1814.000,1735.000,1737.000,1654.000,1647.000,1614.000,1584.000
2353.290,2111.000,1933.000,1890.000,1841.000,1811.000,1709.000,1696.000,1632.000,1604.000,1573.000
2357.734,2065.000,1974.000,1875.000,1823.000,1743.000,1740.000,1696.000,1628.000,1640.000,1590.000
2362.176,2034.000,1887.000,1880.000,1763.000,1723.000,1716.000,1657.000,1647.000,1572.000,1896.000
2366.614,2057.000,1947.000,1857.000,1817.000,1725.000,1739.000,1648.000,1622.000,1582.000,1586.000
2371.052,2075.000,1976.000,1930.000,1835.000,1770.000,1737.000,1694.000,1632.000,1614.000,1605.000
2375.486,2074.000,1938.000,1896.000,1870.000,1756.000,1744.000,1714.000,1639.000,1641.000,1591.000
2379.919,2018.000,1930.000,1887.000,1813.000,1736.000,1694.000,1673.000,1649.000,1599.000,1593.000
2384.347,1994.000,1924.000,1840.000,1821.000,1740.000,1684.000,1687.000,1614.000,1587.000,1553.000
2388.776,2035.000,1902.000,1897.000,1857.000,1750.000,1709.000,1679.000,1633.000,1617.000,1564.000
2393.200,2082.000,1940.000,1913.000,1846.000,1770.000,1738.000,1700.000,1707.000,1666.000,1605.000
2397.623,2108.000,2005.000,1931.000,1829.000,1823.000,1753.000,1729.000,1645.000,1624.000,1603.000
2402.042,2038.000,1911.000,1856.000,1824.000,1742.000,1719.000,1699.000,1658.000,1586.000,1606.000
2406.461,2068.000,2002.000,1887.000,1841.000,1768.000,1724.000,1690.000,1654.000,1617.000,1606.000
2410.875,2089.000,1974.000,1988.000,1860.000,1789.000,1770.000,1728.000,1668.000,1648.000,1630.000
2415.289,2117.000,2007.000,1922.000,1842.000,1830.000,1767.000,1709.000,1670.000,1663.000,1632.000
2419.699,2061.000,1973.000,1874.000,1827.000,1763.000,1753.000,1701.000,1680.000,1663.000,1580.000
2424.108,2051.000,1900.000,1896.000,1797.000,1770.000,1689.000,1656.000,1668.000,1588.000,1565.000
2428.513,2101.000,1980.000,1919.000,1868.000,1771.000,1791.000,1688.000,1672.000,1640.000,1612.000
2432.917,2120.000,2000.000,1911.000,1859.000,1793.000,1760.000,1733.000,1688.000,1652.000,1626.000
2437.318,2090.000,1975.000,1891.000,1886.000,1826.000,1758.000,1718.000,1727.000,1629.000,1629.000
2441.717,2071.000,1964.000,1879.000,1835.000,1766.000,1776.000,1694.000,1656.000,1628.000,1612.000
2446.113,2106.000,1986.000,1850.000,1858.000,1751.000,1722.000,1701.000,1685.000,1625.000,1620.000
2450.508,2139.000,2020.000,1971.000,1856.000,1797.000,1755.000,1718.000,1628.000,1659.000,1620.000
2454.899,2114.000,2004.000,1914.000,1875.000,1826.000,1768.000,1757.000,1682.000,1675.000,1589.000
2459.287,2113.000,1965.000,1908.000,1862.000,1738.000,1706.000,1717.000,1641.000,1659.000,1613.000
2463.675,2050.000,1979.000,1930.000,1835.000,1767.000,1747.000,1685.000,1651.000,1642.000,1589.000
2468.059,2104.000,2013.000,1952.000,1841.000,1825.000,1731.000,1717.000,1676.000,1658.000,1626.000
2472.442,2155.000,1976.000,1935.000,1902.000,1827.000,1781.000,1758.000,1689.000,1689.000,1639.000
2476.821,2116.000,1981.000,1976.000,1864.000,1800.000,1741.000,1753.000,1652.000,1662.000,1616.000
2481.199,2078.000,1941.000,1888.000,1824.000,1791.000,1728.000,1714.000,1687.000,1627.000,1629.000
2485.573,2123.000,2016.000,1927.000,1870.000,1780.000,1754.000,1735.000,1679.000,1659.000,1634.000
2489.947,2116.000,2027.000,1897.000,1878.000,1810.000,1774.000,1737.000,1696.000,1669.000,1631.000
2494.317,2087.000,1993.000,1958.000,1947.000,1806.000,1761.000,1733.000,1724.000,1643.000,1628.000
2498.686,2073.000,1976.000,1914.000,1816.000,1780.000,1737.000,1752.000,1687.000,1639.000,1606.000
2503.051,2088.000,1983.000,1886.000,1818.000,1804.000,1755.000,1749.000,1688.000,1643.000,1609.000
2507.415,2181.000,2005.000,1939.000,1875.000,1847.000,1787.000,1725.000,1695.000,1674.000,1665.000
2511.775,2157.000,1979.000,1977.000,1882.000,1868.000,1788.000,1761.000,1754.000,1702.000,1692.000
2516.135,2105.000,2028.000,1945.000,1834.000,1780.000,1735.000,1738.000,1691.000,1662.000,1600.000
2520.491,2139.000,2055.000,1950.000,1878.000,1843.000,1765.000,1744.000,1722.000,1627.000,1590.000
2524.846,2146.000,1975.000,1925.000,1861.000,1842.000,1789.000,1720.000,1725.000,1658.000,1680.000
2529.197,2202.000,2092.000,1951.000,1915.000,1817.000,1799.000,1754.000,1709.000,1707.000,1670.000
2533.547,2113.000,2031.000,1960.000,1880.000,1778.000,1797.000,1698.000,1667.000,1678.000,1667.000
2537.893,2119.000,1968.000,1955.000,1838.000,1764.000,1732.000,1735.000,1684.000,1651.000,1654.000
2542.239,2124.000,2012.000,2507.000,1883.000,1866.000,1760.000,2395.000,1671.000,1672.000,1659.000
2546.581,2209.000,2012.000,1985.000,1906.000,1869.000,1814.000,1770.000,1750.000,1719.000,1669.000
2550.922,2155.000,2061.000,1975.000,1941.000,1857.000,1830.000,1978.000,1734.000,1717.000,1651.000
2555.259,2143.000,2006.000,1987.000,1945.000,1822.000,1789.000,1771.000,1703.000,1684.000,1645.000
2559.595,2189.000,2050.000,2011.000,1896.000,1836.000,1833.000,1793.000,1759.000,1698.000,1662.000
2563.928,2179.000,2082.000,2007.000,1951.000,1875.000,1836.000,1805.000,1761.000,1701.000,1699.000
2568.259,2203.000,2077.000,2029.000,1957.000,1855.000,1894.000,1771.000,3411.000,1716.000,1647.000
2572.587,2140.000,2076.000,1962.000,1915.000,1862.000,1790.000,1755.000,1738.000,1686.000,1625.000
2576.914,2206.000,2094.000,2027.000,1992.000,1863.000,1876.000,1814.000,1788.000,1733.000,1681.000
2581.237,2296.000,2123.000,2057.000,1985.000,1895.000,1856.000,1807.000,3439.000,1736.000,1740.000
2585.560,2188.000,2072.000,2083.000,1996.000,1919.000,1878.000,1790.000,1817.000,1776.000,1726.000
2589.879,2264.000,2061.000,2029.000,1973.000,1917.000,1858.000,1768.000,1977.000,1700.000,1677.000
2594.195,2181.000,2132.000,2040.000,1924.000,1911.000,1831.000,1808.000,1761.000,1750.000,1720.000
2598.510,2266.000,2136.000,2080.000,1960.000,1928.000,1845.000,1857.000,1783.000,1759.000,1731.000
2602.822,2256.000,2129.000,2052.000,2000.000,1965.000,1905.000,1836.000,1795.000,1774.000,1723.000
2607.133,2187.000,2068.000,2073.000,1982.000,1885.000,1827.000,1818.000,1753.000,1720.000,1721.000
2611.440,2258.000,2117.000,1972.000,1959.000,1894.000,1844.000,1812.000,1795.000,1770.000,1720.000
2615.747,2257.000,2163.000,2078.000,2009.000,1981.000,1883.000,1871.000,1755.000,1766.000,1754.000
2620.049,2281.000,2170.000,2037.000,2022.000,1964.000,1924.000,1834.000,1791.000,1779.000,1756.000
2624.351,2224.000,2175.000,2037.000,2021.000,1946.000,1922.000,1796.000,1791.000,1779.000,1751.000
2628.649,2196.000,2112.000,2049.000,2011.000,1940.000,1899.000,1855.000,1776.000,1779.000,1750.000
2632.946,2330.000,2179.000,2088.000,2015.000,1954.000,1916.000,1888.000,1851.000,1749.000,1787.000
2637.240,4983.000,2179.000,2114.000,2058.000,2004.000,1906.000,1867.000,1845.000,1796.000,1759.000
2641.532,2200.000,2162.000,2067.000,1991.000,1922.000,1875.000,1824.000,1792.000,1754.000,1743.000
2645.821,2242.000,2124.000,2070.000,2028.000,1925.000,1889.000,1826.000,1830.000,1762.000,1747.000
2650.109,2299.000,2215.000,2143.000,2007.000,1963.000,1893.000,1859.000,1848.000,1788.000,1763.000
2654.394,2330.000,2251.000,2127.000,1985.000,1968.000,1967.000,1874.000,1821.000,1822.000,1786.000
2658.677,2270.000,2197.000,2136.000,2019.000,1968.000,1971.000,1865.000,1817.000,1791.000,1755.000
2662.957,2251.000,2164.000,2098.000,1994.000,1944.000,1906.000,1871.000,1834.000,1783.000,1758.000
2667.236,2339.000,2215.000,2152.000,2069.000,2017.000,1940.000,1903.000,1861.000,1833.000,1793.000
2671.511,2345.000,2237.000,2144.000,2048.000,2018.000,1949.000,1931.000,1869.000,1843.000,1829.000
2675.786,2337.000,2196.000,2170.000,2110.000,2011.000,1966.000,1879.000,1843.000,1849.000,1831.000
2680.057,2314.000,2243.000,2129.000,2054.000,1981.000,1980.000,1931.000,1899.000,1832.000,1820.000
2684.327,2379.000,2245.000,2139.000,2142.000,2030.000,1982.000,1953.000,1922.000,1855.000,1809.000
2688.593,2374.000,2278.000,2199.000,2123.000,2071.000,1975.000,1937.000,1900.000,1892.000,1856.000
2692.858,2370.000,2266.000,2162.000,2137.000,2053.000,2014.000,1936.000,1924.000,1902.000,1811.000
2697.120,2358.000,2255.000,2162.000,2090.000,2042.000,1983.000,1960.000,1913.000,1876.000,1834.000
2701.381,2411.000,2272.000,2196.000,2187.000,2094.000,2007.000,1974.000,1949.000,1875.000,1885.000
2705.638,2478.000,2313.000,2200.000,2223.000,2135.000,2041.000,2026.000,1962.000,1954.000,1915.000
2709.894,2417.000,2338.000,2239.000,2174.000,2036.000,2009.000,2021.000,1946.000,1901.000,1883.000
2714.147,2411.000,2343.000,2276.000,2232.000,2130.000,2093.000,2057.000,1995.000,1934.000,1935.000
2718.399,2483.000,2412.000,2318.000,2247.000,2210.000,2081.000,2078.000,2001.000,2042.000,1967.000
2722.647,2580.000,2436.000,2373.000,2302.000,2258.000,2156.000,2186.000,2084.000,2085.000,2035.000
2726.893,2601.000,2457.000,2391.000,2341.000,2265.000,2236.000,2162.000,2107.000,2080.000,2025.000
2731.138,2650.000,2477.000,2397.000,2323.000,2279.000,2232.000,2211.000,2137.000,2085.000,2079.000
2735.380,2595.000,2463.000,2464.000,2375.000,2305.000,2240.000,2209.000,2143.000,2143.000,2067.000
2739.620,2592.000,2497.000,2463.000,2351.000,2222.000,2249.000,2182.000,2118.000,2110.000,2091.000
2743.857,2551.000,2427.000,2356.000,2283.000,2251.000,2167.000,2076.000,2069.000,2105.000,2062.000
2748.093,2500.000,2411.000,2354.000,2245.000,2196.000,2138.000,2130.000,2086.000,2095.000,2004.000
2752.326,2574.000,2416.000,2334.000,2265.000,2211.000,2143.000,2127.000,2042.000,2089.000,1999.000
2756.558,2517.000,2368.000,2354.000,2273.000,2158.000,2124.000,2124.000,2066.000,2053.000,1965.000
2760.786,2491.000,2394.000,2298.000,2256.000,2204.000,2103.000,2077.000,1997.000,2007.000,1942.000
2765.013,2507.000,2403.000,2310.000,2245.000,2167.000,2092.000,2079.000,2000.000,2040.000,1959.000
2769.237,2542.000,2438.000,2331.000,2242.000,2191.000,2155.000,2127.000,2086.000,2068.000,1999.000
2773.459,2567.000,2404.000,2337.000,2285.000,2222.000,2171.000,2119.000,2064.000,2056.000,1970.000
2777.679,2478.000,2391.000,2310.000,2254.000,2206.000,2146.000,2075.000,2059.000,2009.000,2035.000
2781.897,2489.000,2385.000,2326.000,2271.000,2171.000,2117.000,2134.000,2084.000,2023.000,2025.000
2786.112,2534.000,2425.000,2328.000,2277.000,2181.000,2185.000,2064.000,2092.000,2086.000,2020.000
2790.326,2543.000,2370.000,2326.000,2290.000,2197.000,2144.000,2104.000,2068.000,2004.000,1973.000
2794.536,2497.000,2363.000,2344.000,2281.000,2198.000,2125.000,2128.000,2071.000,2031.000,1980.000
2798.745,2510.000,2424.000,2273.000,2225.000,2211.000,2135.000,2082.000,2039.000,1998.000,1963.000
2802.951,2571.000,2420.000,2340.000,2263.000,2191.000,2178.000,2110.000,2061.000,2017.000,1989.000
2807.156,2513.000,2376.000,2353.000,2280.000,2262.000,2159.000,2115.000,2084.000,2053.000,2012.000
2811.358,2570.000,2463.000,2348.000,2328.000,2205.000,2209.000,2150.000,2109.000,2081.000,2054.000
2815.558,2585.000,2518.000,2344.000,2306.000,2268.000,2241.000,2191.000,2126.000,2065.000,2064.000
2819.755,2582.000,2536.000,2451.000,2347.000,2348.000,2233.000,2216.000,2168.000,2142.000,2088.000
2823.952,2656.000,2579.000,2471.000,2443.000,2301.000,2266.000,2209.000,2196.000,2121.000,2074.000
2828.144,2741.000,2611.000,2539.000,2421.000,2342.000,2326.000,2277.000,2242.000,2187.000,2149.000
2832.336,2745.000,2671.000,2591.000,2488.000,2423.000,2391.000,2352.000,2301.000,2295.000,2233.000
2836.524,2852.000,2735.000,2659.000,2620.000,2571.000,2490.000,2471.000,2420.000,2416.000,2345.000
2840.712,3064.000,2920.000,2837.000,2808.000,2721.000,2634.000,2608.000,2545.000,2552.000,2466.000
2844.896,3294.000,3163.000,3077.000,3006.000,2972.000,2932.000,2915.000,2853.000,2791.000,2796.000
2849.079,3733.000,3652.000,3553.000,3475.000,3397.000,3317.000,3317.000,3294.000,3229.000,3163.000
2853.258,4101.000,3987.000,3883.000,3832.000,3835.000,3669.000,3658.000,3637.000,3608.000,3604.000
2857.435,4376.000,4163.000,4139.000,4049.000,4014.000,3972.000,3904.000,3822.000,3778.000,3781.000
2861.612,4639.000,4526.000,4484.000,4410.000,4331.000,4285.000,4203.000,4138.000,4043.000,4117.000
2865.784,5055.000,4878.000,4865.000,4841.000,4753.000,4711.000,4609.000,4549.000,4593.000,4507.000
2869.957,5727.000,5454.000,5545.000,5435.000,5394.000,5360.000,5287.000,5210.000,5308.000,5170.000
2874.125,6411.000,6263.000,6216.000,6092.000,6023.000,5987.000,5923.000,5873.000,5894.000,5936.000
2878.293,6747.000,6751.000,6600.000,6500.000,6460.000,6359.000,6414.000,6311.000,6244.000,6336.000
2882.457,6740.000,6657.000,6585.000,6489.000,6447.000,6428.000,6416.000,6274.000,6297.000,6268.000
2886.620,6729.000,6644.000,6481.000,6439.000,6414.000,6435.000,6365.000,6312.000,6175.000,6286.000
2890.780,6608.000,6467.000,6336.000,6346.000,6310.000,6230.000,6186.000,6136.000,6103.000,6037.000
2894.939,6590.000,6482.000,6572.000,6443.000,6330.000,6234.000,6289.000,6150.000,6105.000,6169.000
2899.095,6665.000,6676.000,6561.000,6503.000,6503.000,6336.000,6282.000,6270.000,6218.000,6294.000
2903.249,6930.000,6820.000,6790.000,6719.000,6650.000,6527.000,6559.000,6512.000,6507.000,6388.000
2907.400,7102.000,7120.000,6944.000,6895.000,6780.000,6789.000,6719.000,6694.000,6680.000,6618.000
2911.551,7530.000,7428.000,7276.000,7267.000,7128.000,7149.000,7058.000,7090.000,7039.000,7071.000
2915.697,8172.000,7995.000,7899.000,7834.000,7763.000,7696.000,7764.000,7737.000,7598.000,7532.000
2919.843,8661.000,8657.000,8496.000,8488.000,8517.000,8348.000,8298.000,8242.000,8250.000,8196.000
2923.986,9118.000,8983.000,8920.000,8945.000,8837.000,8804.000,8713.000,8683.000,8714.000,8608.000
2928.128,9651.000,9460.000,9309.000,9309.000,9211.000,9171.000,9141.000,9188.000,9072.000,9093.000
2932.266,10074.000,10076.000,9811.000,9827.000,9865.000,9604.000,9653.000,9559.000,9509.000,9615.000
2936.403,10279.000,10116.000,10051.000,10019.000,9896.000,9913.000,9838.000,9689.000,9672.000,9660.000
2940.537,10149.000,10085.000,9983.000,9742.000,9870.000,9739.000,9577.000,9573.000,9611.000,9665.000
2944.670,9551.000,9569.000,9455.000,9337.000,9269.000,9203.000,9260.000,9349.000,9223.000,9144.000
2948.799,8952.000,8898.000,8739.000,8638.000,8473.000,8529.000,8473.000,8519.000,8334.000,8267.000
2952.928,8005.000,7900.000,7836.000,7630.000,7748.000,7706.000,7552.000,7464.000,7822.000,7487.000
2957.053,7407.000,7434.000,7278.000,7198.000,7114.000,7127.000,7005.000,6995.000,6999.000,6943.000
2961.178,7300.000,7217.000,7061.000,6928.000,6955.000,6791.000,6832.000,6905.000,6749.000,6695.000
2965.299,7270.000,7039.000,7021.000,6988.000,6979.000,6755.000,6717.000,6759.000,6733.000,6690.000
2969.419,7012.000,6918.000,6776.000,6824.000,6647.000,6642.000,6620.000,6518.000,6457.000,6508.000
2973.535,7021.000,6908.000,6828.000,6707.000,6714.000,6601.000,6610.000,6538.000,6500.000,6501.000
2977.651,6960.000,6791.000,6803.000,6643.000,6591.000,6630.000,6493.000,6486.000,6444.000,6396.000
2981.763,6739.000,6752.000,6596.000,6521.000,6471.000,6484.000,6321.000,6455.000,6285.000,6363.000