File: Raman/2024_10_30_Sample5_CBD_Proline_Cocrystal_Position1_532nm_960wn_1p3mW_10sec_4Scans_Pol.csv
15.605,700.000,704.000,703.000,703.000
17.544,727.000,714.000,710.000,717.000
19.483,720.000,725.000,742.000,732.000
21.422,745.000,759.000,757.000,759.000
23.361,784.000,773.000,756.000,755.000
25.299,799.000,787.000,790.000,785.000
27.236,817.000,799.000,802.000,806.000
29.174,803.000,833.000,825.000,813.000
31.108,826.000,814.000,830.000,803.000
33.045,814.000,823.000,816.000,812.000
34.981,807.000,793.000,800.000,818.000
36.916,775.000,788.000,801.000,784.000
38.851,761.000,776.000,787.000,767.000
40.786,771.000,773.000,764.000,752.000
42.721,759.000,762.000,755.000,764.000
44.655,758.000,760.000,750.000,767.000
46.588,759.000,755.000,751.000,755.000
48.522,764.000,748.000,755.000,762.000
50.454,751.000,761.000,752.000,752.000
52.387,755.000,768.000,748.000,748.000
54.319,752.000,748.000,761.000,750.000
56.250,770.000,776.000,761.000,770.000
58.182,783.000,765.000,773.000,774.000
60.110,783.000,772.000,775.000,790.000
62.041,772.000,785.000,784.000,773.000
63.971,807.000,795.000,802.000,792.000
65.900,799.000,793.000,777.000,788.000
67.830,784.000,803.000,781.000,787.000
69.759,804.000,795.000,802.000,777.000
71.687,776.000,778.000,779.000,783.000
73.615,770.000,765.000,759.000,756.000
75.543,755.000,749.000,749.000,750.000
77.470,749.000,753.000,743.000,745.000
79.397,733.000,745.000,739.000,735.000
81.323,732.000,735.000,730.000,739.000
83.249,730.000,742.000,717.000,732.000
85.175,730.000,732.000,735.000,731.000
87.100,730.000,741.000,725.000,737.000
89.023,739.000,734.000,744.000,736.000
90.948,746.000,749.000,743.000,733.000
92.872,744.000,756.000,727.000,747.000
94.795,739.000,743.000,741.000,741.000
96.719,744.000,754.000,753.000,726.000
98.641,753.000,749.000,742.000,735.000
100.564,752.000,745.000,738.000,752.000
102.486,745.000,764.000,745.000,752.000
104.408,739.000,737.000,738.000,740.000
106.329,735.000,735.000,725.000,739.000
108.250,733.000,728.000,715.000,721.000
110.171,731.000,726.000,715.000,714.000
112.091,729.000,719.000,723.000,719.000
114.010,721.000,719.000,710.000,722.000
115.928,719.000,714.000,707.000,711.000
117.847,699.000,705.000,704.000,694.000
119.765,683.000,692.000,697.000,689.000
121.683,689.000,691.000,692.000,683.000
123.601,685.000,695.000,700.000,698.000
125.518,681.000,695.000,703.000,679.000
127.435,691.000,677.000,681.000,688.000
129.352,676.000,688.000,679.000,678.000
131.268,677.000,682.000,674.000,682.000
133.184,677.000,682.000,676.000,677.000
135.099,675.000,678.000,671.000,680.000
137.014,668.000,682.000,676.000,667.000
138.929,674.000,674.000,675.000,682.000
140.843,675.000,672.000,674.000,666.000
142.757,682.000,682.000,663.000,675.000
144.668,670.000,675.000,673.000,671.000
146.581,672.000,677.000,678.000,669.000
148.494,674.000,674.000,675.000,667.000
150.406,672.000,670.000,670.000,678.000
152.318,670.000,667.000,666.000,669.000
154.230,671.000,668.000,677.000,671.000
156.141,665.000,662.000,666.000,671.000
158.052,672.000,668.000,668.000,667.000
159.962,675.000,672.000,671.000,668.000
161.872,670.000,663.000,667.000,671.000
163.781,663.000,672.000,670.000,666.000
165.690,666.000,661.000,670.000,671.000
167.599,659.000,673.000,669.000,669.000
169.508,665.000,663.000,666.000,668.000
171.415,654.000,658.000,666.000,667.000
173.321,662.000,669.000,674.000,671.000
175.228,662.000,666.000,657.000,675.000
177.135,665.000,666.000,661.000,666.000
179.041,663.000,668.000,668.000,664.000
180.947,671.000,671.000,667.000,666.000
182.853,665.000,663.000,666.000,666.000
184.758,672.000,662.000,663.000,668.000
186.663,667.000,661.000,667.000,672.000
188.567,664.000,663.000,668.000,664.000
190.471,671.000,677.000,664.000,658.000
192.375,657.000,667.000,668.000,666.000
194.278,674.000,663.000,666.000,659.000
196.181,663.000,673.000,656.000,675.000
198.084,660.000,674.000,663.000,664.000
199.986,666.000,663.000,663.000,664.000
201.886,667.000,658.000,671.000,662.000
203.787,662.000,658.000,667.000,662.000
205.688,668.000,660.000,663.000,670.000
207.588,676.000,659.000,652.000,670.000
209.488,667.000,661.000,664.000,659.000
211.388,672.000,666.000,667.000,666.000
213.288,672.000,664.000,661.000,662.000
215.187,670.000,667.000,661.000,673.000
217.085,661.000,670.000,669.000,658.000
218.983,667.000,658.000,678.000,665.000
220.881,659.000,666.000,671.000,663.000
222.779,675.000,667.000,662.000,663.000
224.676,665.000,664.000,667.000,665.000
226.573,674.000,671.000,666.000,676.000
228.469,679.000,672.000,670.000,672.000
230.363,671.000,671.000,662.000,675.000
232.258,681.000,671.000,671.000,678.000
234.153,669.000,677.000,668.000,671.000
236.048,675.000,673.000,665.000,681.000
237.942,666.000,672.000,668.000,671.000
239.836,671.000,672.000,670.000,660.000
241.730,661.000,664.000,669.000,670.000
243.623,678.000,674.000,663.000,669.000
245.516,662.000,662.000,676.000,672.000
247.408,661.000,677.000,682.000,668.000
249.300,681.000,665.000,673.000,669.000
251.192,678.000,674.000,668.000,684.000
253.083,693.000,677.000,678.000,678.000
254.974,681.000,687.000,676.000,681.000
256.865,683.000,686.000,683.000,681.000
258.753,690.000,684.000,676.000,688.000
260.642,689.000,679.000,683.000,680.000
262.532,680.000,679.000,674.000,680.000
264.421,673.000,673.000,674.000,670.000
266.309,663.000,671.000,676.000,679.000
268.197,668.000,669.000,668.000,663.000
270.085,670.000,675.000,671.000,675.000
271.973,667.000,670.000,665.000,674.000
273.860,668.000,672.000,673.000,665.000
275.746,667.000,672.000,665.000,676.000
277.632,664.000,667.000,673.000,675.000
279.518,672.000,677.000,667.000,675.000
281.404,667.000,674.000,658.000,676.000
283.289,673.000,668.000,675.000,665.000
285.172,678.000,676.000,673.000,664.000
287.056,676.000,671.000,677.000,669.000
288.940,680.000,660.000,668.000,674.000
290.823,663.000,664.000,675.000,674.000
292.707,671.000,668.000,672.000,665.000
294.589,666.000,670.000,672.000,664.000
296.472,669.000,661.000,661.000,673.000
298.354,658.000,670.000,667.000,660.000
300.236,673.000,670.000,669.000,667.000
302.117,667.000,661.000,668.000,661.000
303.998,660.000,669.000,666.000,665.000
305.878,659.000,669.000,662.000,668.000
307.758,666.000,664.000,663.000,663.000
309.638,671.000,663.000,667.000,666.000
311.517,670.000,663.000,665.000,670.000
313.394,668.000,663.000,665.000,666.000
315.273,670.000,670.000,665.000,669.000
317.151,666.000,674.000,669.000,1371.000
319.029,660.000,671.000,670.000,916.000
320.906,661.000,664.000,662.000,671.000
322.784,665.000,669.000,666.000,674.000
324.660,673.000,669.000,671.000,671.000
326.537,676.000,678.000,681.000,677.000
328.412,682.000,680.000,681.000,678.000
330.288,683.000,691.000,698.000,690.000
332.163,684.000,696.000,693.000,696.000
334.038,696.000,687.000,684.000,686.000
335.912,686.000,688.000,697.000,682.000
337.786,685.000,689.000,684.000,676.000
339.660,682.000,678.000,674.000,672.000
341.531,671.000,669.000,674.000,672.000
343.404,677.000,669.000,672.000,673.000
345.277,669.000,667.000,676.000,671.000
347.149,671.000,671.000,661.000,662.000
349.020,676.000,662.000,667.000,669.000
350.892,669.000,660.000,667.000,669.000
352.763,661.000,668.000,661.000,665.000
354.633,666.000,668.000,672.000,667.000
356.504,660.000,659.000,674.000,662.000
358.373,661.000,669.000,663.000,667.000
360.243,677.000,665.000,664.000,666.000
362.112,657.000,668.000,666.000,677.000
363.981,669.000,663.000,668.000,659.000
365.849,663.000,653.000,664.000,666.000
367.717,657.000,679.000,667.000,671.000
369.583,658.000,662.000,666.000,663.000
371.450,662.000,664.000,664.000,662.000
373.317,656.000,665.000,664.000,671.000
375.183,659.000,663.000,668.000,661.000
377.049,660.000,664.000,663.000,663.000
378.915,660.000,668.000,667.000,673.000
380.780,663.000,664.000,659.000,661.000
382.645,666.000,669.000,667.000,672.000
384.509,673.000,667.000,670.000,671.000
386.374,681.000,682.000,669.000,665.000
388.237,670.000,675.000,678.000,678.000
390.101,668.000,677.000,674.000,687.000
391.964,677.000,671.000,679.000,666.000
393.827,671.000,671.000,671.000,677.000
395.689,666.000,673.000,667.000,673.000
397.549,657.000,680.000,671.000,670.000
399.410,671.000,673.000,669.000,672.000
401.271,667.000,674.000,666.000,679.000
403.132,683.000,686.000,676.000,671.000
404.993,676.000,677.000,678.000,660.000
406.853,677.000,667.000,675.000,675.000
408.712,666.000,672.000,666.000,674.000
410.571,669.000,676.000,678.000,670.000
412.430,667.000,674.000,662.000,664.000
414.289,667.000,668.000,670.000,661.000
416.147,672.000,674.000,664.000,670.000
418.005,668.000,672.000,663.000,669.000
419.862,671.000,664.000,674.000,662.000
421.719,664.000,666.000,667.000,663.000
423.574,675.000,664.000,671.000,671.000
425.430,672.000,670.000,670.000,667.000
427.286,672.000,667.000,665.000,678.000
429.142,676.000,668.000,665.000,681.000
430.997,676.000,673.000,665.000,675.000
432.851,672.000,670.000,671.000,668.000
434.706,663.000,673.000,671.000,674.000
436.560,670.000,674.000,663.000,667.000
438.413,666.000,677.000,661.000,663.000
440.267,668.000,668.000,664.000,666.000
442.120,667.000,671.000,668.000,659.000
443.972,667.000,664.000,670.000,671.000
445.824,664.000,662.000,664.000,671.000
447.676,659.000,672.000,664.000,673.000
449.528,669.000,673.000,670.000,664.000
451.376,674.000,664.000,670.000,674.000
453.227,675.000,673.000,668.000,678.000
455.077,674.000,669.000,678.000,668.000
456.927,664.000,671.000,669.000,670.000
458.777,671.000,673.000,675.000,664.000
460.626,685.000,676.000,666.000,671.000
462.475,668.000,670.000,671.000,672.000
464.323,682.000,665.000,676.000,678.000
466.171,682.000,671.000,673.000,670.000
468.019,675.000,674.000,681.000,662.000
469.866,674.000,679.000,670.000,676.000
471.713,673.000,675.000,683.000,668.000
473.560,675.000,681.000,674.000,684.000
475.406,672.000,676.000,677.000,678.000
477.252,678.000,670.000,670.000,686.000
479.095,674.000,676.000,686.000,669.000
480.940,674.000,682.000,683.000,673.000
482.785,680.000,683.000,681.000,677.000
484.629,685.000,682.000,674.000,686.000
486.473,688.000,684.000,686.000,685.000
488.317,692.000,672.000,685.000,680.000
490.160,689.000,676.000,679.000,680.000
492.003,681.000,676.000,690.000,678.000
493.845,672.000,675.000,676.000,678.000
495.687,671.000,672.000,673.000,677.000
497.529,686.000,685.000,669.000,676.000
499.370,673.000,674.000,667.000,670.000
501.211,664.000,680.000,671.000,670.000
503.052,672.000,664.000,662.000,669.000
504.892,668.000,675.000,678.000,676.000
506.730,667.000,674.000,668.000,681.000
508.570,670.000,671.000,672.000,672.000
510.409,669.000,685.000,669.000,674.000
512.248,669.000,662.000,667.000,665.000
514.086,669.000,674.000,671.000,671.000
515.924,667.000,667.000,668.000,676.000
517.762,674.000,674.000,678.000,683.000
519.599,673.000,671.000,683.000,666.000
521.436,675.000,678.000,674.000,680.000
523.272,685.000,676.000,681.000,681.000
525.109,688.000,696.000,687.000,695.000
526.944,693.000,690.000,691.000,678.000
528.780,692.000,685.000,690.000,696.000
530.615,680.000,686.000,671.000,688.000
532.450,678.000,678.000,685.000,681.000
534.282,692.000,678.000,678.000,685.000
536.116,687.000,676.000,682.000,681.000
537.949,682.000,679.000,682.000,688.000
539.783,682.000,690.000,683.000,683.000
541.616,686.000,680.000,680.000,688.000
543.448,690.000,692.000,689.000,681.000
545.280,692.000,693.000,689.000,681.000
547.112,704.000,708.000,701.000,698.000
548.943,714.000,696.000,703.000,707.000
550.774,707.000,700.000,707.000,700.000
552.605,699.000,686.000,711.000,692.000
554.435,676.000,695.000,691.000,674.000
556.265,685.000,684.000,690.000,678.000
558.095,679.000,675.000,675.000,673.000
559.924,675.000,678.000,679.000,674.000
561.751,684.000,681.000,671.000,679.000
563.579,686.000,675.000,676.000,677.000
565.407,674.000,683.000,678.000,676.000
567.235,671.000,677.000,672.000,673.000
569.062,665.000,683.000,667.000,673.000
570.889,678.000,680.000,677.000,675.000
572.716,684.000,687.000,668.000,675.000
574.542,674.000,678.000,681.000,678.000
576.368,691.000,683.000,688.000,692.000
578.194,690.000,686.000,698.000,687.000
580.019,702.000,696.000,690.000,694.000
581.844,696.000,699.000,691.000,691.000
583.668,694.000,697.000,704.000,702.000
585.492,698.000,710.000,703.000,710.000
587.316,705.000,710.000,705.000,710.000
589.137,707.000,706.000,711.000,696.000
590.960,697.000,700.000,706.000,713.000
592.783,696.000,693.000,695.000,696.000
594.605,694.000,692.000,684.000,681.000
596.427,685.000,687.000,688.000,683.000
598.248,686.000,680.000,689.000,682.000
600.069,681.000,683.000,686.000,684.000
601.890,684.000,682.000,678.000,689.000
603.711,686.000,677.000,687.000,685.000
605.531,675.000,685.000,676.000,675.000
607.350,675.000,686.000,681.000,680.000
609.170,682.000,682.000,673.000,686.000
610.989,680.000,675.000,679.000,676.000
612.807,683.000,676.000,670.000,682.000
614.625,678.000,684.000,679.000,679.000
616.441,675.000,674.000,671.000,674.000
618.259,675.000,673.000,674.000,679.000
620.076,684.000,678.000,671.000,682.000
621.893,675.000,666.000,675.000,677.000
623.709,674.000,671.000,672.000,670.000
625.525,673.000,667.000,667.000,680.000
627.341,672.000,682.000,674.000,686.000
629.156,677.000,682.000,666.000,672.000
630.971,667.000,673.000,675.000,666.000
632.786,674.000,670.000,668.000,665.000
634.600,682.000,678.000,674.000,663.000
636.414,677.000,678.000,679.000,675.000
638.227,678.000,673.000,676.000,679.000
640.041,678.000,670.000,669.000,672.000
641.851,669.000,682.000,677.000,682.000
643.664,674.000,671.000,678.000,684.000
645.476,679.000,675.000,672.000,678.000
647.288,691.000,683.000,688.000,686.000
649.099,684.000,692.000,688.000,691.000
650.910,678.000,682.000,688.000,685.000
652.720,693.000,696.000,697.000,690.000
654.531,684.000,691.000,687.000,681.000
656.341,690.000,679.000,690.000,682.000
658.150,689.000,693.000,676.000,687.000
659.959,677.000,691.000,689.000,688.000
661.768,684.000,679.000,675.000,686.000
663.577,675.000,674.000,681.000,673.000
665.385,677.000,669.000,674.000,674.000
667.192,668.000,677.000,679.000,679.000
668.998,671.000,687.000,671.000,667.000
670.805,676.000,675.000,669.000,674.000
672.611,677.000,678.000,671.000,675.000
674.418,669.000,678.000,668.000,669.000
676.224,680.000,666.000,673.000,668.000
678.029,676.000,681.000,675.000,679.000
679.834,681.000,686.000,670.000,670.000
681.639,665.000,675.000,671.000,677.000
683.444,674.000,672.000,666.000,673.000
685.248,676.000,677.000,670.000,669.000
687.052,671.000,677.000,668.000,668.000
688.855,675.000,674.000,671.000,673.000
690.658,664.000,678.000,672.000,665.000
692.461,672.000,677.000,672.000,674.000
694.263,669.000,675.000,677.000,674.000
696.063,673.000,674.000,668.000,681.000
697.865,677.000,675.000,679.000,675.000
699.666,671.000,667.000,676.000,685.000
701.467,678.000,679.000,662.000,657.000
703.268,677.000,667.000,671.000,669.000
705.068,668.000,670.000,669.000,679.000
706.868,670.000,674.000,670.000,676.000
708.667,671.000,673.000,673.000,683.000
710.466,671.000,673.000,675.000,681.000
712.265,674.000,673.000,687.000,666.000
714.063,667.000,674.000,677.000,677.000
715.861,669.000,669.000,680.000,667.000
717.659,671.000,673.000,671.000,679.000
719.456,668.000,675.000,672.000,684.000
721.251,683.000,684.000,672.000,683.000
723.048,675.000,673.000,675.000,671.000
724.844,677.000,673.000,674.000,673.000
726.640,675.000,671.000,678.000,679.000
728.436,677.000,689.000,678.000,674.000
730.231,677.000,670.000,679.000,675.000
732.026,680.000,681.000,681.000,671.000
733.820,678.000,675.000,678.000,673.000
735.614,671.000,678.000,679.000,680.000
737.408,675.000,675.000,687.000,668.000
739.201,683.000,680.000,675.000,672.000
740.994,680.000,693.000,673.000,669.000
742.787,682.000,682.000,681.000,676.000
744.579,678.000,684.000,670.000,674.000
746.371,689.000,677.000,683.000,680.000
748.161,689.000,688.000,685.000,675.000
749.952,698.000,686.000,678.000,681.000
751.743,688.000,696.000,686.000,693.000
753.534,681.000,681.000,680.000,671.000
755.324,686.000,685.000,679.000,689.000
757.114,676.000,678.000,686.000,676.000
758.903,680.000,683.000,673.000,685.000
760.692,683.000,676.000,679.000,683.000
762.481,678.000,693.000,668.000,676.000
764.270,686.000,684.000,686.000,677.000
766.058,683.000,693.000,690.000,678.000
767.845,693.000,685.000,685.000,684.000
769.633,701.000,702.000,699.000,700.000
771.420,698.000,705.000,701.000,702.000
773.206,723.000,716.000,717.000,718.000
774.991,738.000,732.000,734.000,745.000
776.777,756.000,767.000,756.000,759.000
778.562,740.000,743.000,737.000,737.000
780.348,714.000,716.000,706.000,710.000
782.132,704.000,715.000,702.000,694.000
783.917,687.000,697.000,694.000,690.000
785.701,691.000,692.000,695.000,687.000
787.485,691.000,695.000,691.000,691.000
789.268,685.000,695.000,686.000,691.000
791.052,691.000,683.000,682.000,686.000
792.834,683.000,686.000,693.000,693.000
794.617,687.000,698.000,700.000,680.000
796.399,698.000,691.000,685.000,688.000
798.180,680.000,690.000,702.000,681.000
799.962,696.000,691.000,692.000,694.000
801.741,697.000,704.000,699.000,687.000
803.521,692.000,699.000,698.000,701.000
805.302,690.000,711.000,697.000,711.000
807.082,690.000,699.000,700.000,685.000
808.861,691.000,702.000,702.000,684.000
810.641,684.000,686.000,688.000,686.000
812.419,684.000,686.000,684.000,690.000
814.198,689.000,685.000,686.000,690.000
815.976,684.000,690.000,692.000,699.000
817.754,692.000,684.000,687.000,690.000
819.531,684.000,695.000,692.000,683.000
821.309,683.000,691.000,681.000,688.000
823.085,683.000,694.000,692.000,687.000
824.862,685.000,690.000,693.000,682.000
826.638,684.000,691.000,686.000,694.000
828.412,697.000,689.000,687.000,688.000
830.187,681.000,690.000,683.000,689.000
831.962,679.000,688.000,679.000,687.000
833.737,682.000,679.000,682.000,681.000
835.511,688.000,677.000,679.000,683.000
837.285,684.000,686.000,688.000,688.000
839.059,679.000,684.000,686.000,680.000
840.832,684.000,686.000,687.000,676.000
842.605,694.000,686.000,680.000,678.000
844.377,685.000,686.000,693.000,693.000
846.150,687.000,689.000,692.000,697.000
847.921,690.000,698.000,693.000,693.000
849.693,692.000,690.000,691.000,688.000
851.464,695.000,699.000,687.000,686.000
853.235,691.000,693.000,687.000,687.000
855.003,691.000,698.000,700.000,697.000
856.774,713.000,695.000,697.000,699.000
858.543,710.000,704.000,706.000,714.000
860.313,710.000,711.000,710.000,714.000
862.082,708.000,707.000,708.000,707.000
863.851,704.000,710.000,710.000,703.000
865.619,702.000,695.000,692.000,705.000
867.387,695.000,706.000,699.000,691.000
869.155,706.000,699.000,698.000,697.000
870.922,698.000,708.000,693.000,698.000
872.689,700.000,697.000,698.000,689.000
874.456,689.000,681.000,694.000,697.000
876.222,684.000,688.000,691.000,688.000
877.988,693.000,695.000,692.000,694.000
879.753,694.000,693.000,698.000,703.000
881.517,696.000,693.000,692.000,691.000
883.282,698.000,698.000,690.000,688.000
885.046,692.000,691.000,691.000,685.000
886.810,687.000,682.000,697.000,683.000
888.574,685.000,680.000,680.000,686.000
890.338,688.000,690.000,685.000,699.000
892.101,692.000,692.000,679.000,683.000
893.864,702.000,687.000,685.000,693.000
895.626,689.000,687.000,692.000,681.000
897.388,703.000,694.000,693.000,702.000
899.150,689.000,692.000,693.000,691.000
900.911,690.000,700.000,693.000,694.000
902.673,694.000,701.000,685.000,691.000
904.433,697.000,699.000,692.000,696.000
906.194,685.000,698.000,679.000,682.000
907.952,687.000,687.000,685.000,693.000
909.711,678.000,684.000,698.000,686.000
911.471,700.000,696.000,690.000,690.000
913.230,692.000,696.000,686.000,702.000
914.988,679.000,688.000,680.000,682.000
916.747,686.000,692.000,686.000,698.000
918.505,684.000,698.000,698.000,684.000
920.262,691.000,684.000,679.000,695.000
922.020,684.000,682.000,694.000,697.000
923.776,706.000,687.000,695.000,681.000
925.533,688.000,689.000,686.000,677.000
927.289,692.000,692.000,696.000,679.000
929.045,683.000,681.000,677.000,679.000
930.801,690.000,679.000,678.000,684.000
932.554,683.000,683.000,692.000,688.000
934.309,690.000,677.000,676.000,675.000
936.063,675.000,682.000,683.000,677.000
937.817,684.000,686.000,671.000,688.000
939.571,685.000,692.000,679.000,681.000
941.325,686.000,684.000,675.000,679.000
943.078,675.000,689.000,688.000,678.000
944.831,680.000,680.000,676.000,670.000
946.583,685.000,678.000,684.000,677.000
948.335,676.000,685.000,675.000,687.000
950.087,686.000,682.000,678.000,679.000
951.838,678.000,680.000,688.000,681.000
953.589,683.000,679.000,684.000,673.000
955.340,689.000,677.000,685.000,680.000
957.091,695.000,692.000,693.000,689.000
958.839,688.000,695.000,686.000,697.000
960.588,693.000,691.000,702.000,694.000
962.338,700.000,689.000,697.000,689.000
964.087,692.000,693.000,693.000,691.000
965.835,692.000,695.000,698.000,692.000
967.584,693.000,689.000,691.000,680.000
969.332,685.000,690.000,689.000,692.000
971.079,692.000,692.000,690.000,688.000
972.827,697.000,697.000,696.000,688.000
974.574,708.000,698.000,698.000,689.000
976.320,699.000,699.000,693.000,691.000
978.066,690.000,701.000,691.000,699.000
979.812,703.000,695.000,707.000,693.000
981.558,712.000,699.000,707.000,702.000
983.303,699.000,704.000,711.000,702.000
985.046,698.000,705.000,706.000,716.000
986.791,700.000,707.000,703.000,700.000
988.535,696.000,697.000,691.000,698.000
990.279,685.000,694.000,698.000,694.000
992.022,699.000,691.000,694.000,686.000
993.766,698.000,682.000,687.000,700.000
995.508,691.000,694.000,703.000,677.000
997.251,693.000,695.000,685.000,699.000
998.993,699.000,692.000,703.000,697.000
1000.735,695.000,703.000,695.000,695.000
1002.476,703.000,705.000,706.000,697.000
1004.217,714.000,712.000,711.000,705.000
1005.958,708.000,715.000,711.000,698.000
1007.699,713.000,713.000,702.000,713.000
1009.437,715.000,722.000,719.000,720.000
1011.177,716.000,713.000,709.000,708.000
1012.916,706.000,715.000,714.000,716.000
1014.655,698.000,711.000,717.000,704.000
1016.394,706.000,704.000,710.000,715.000
1018.132,712.000,702.000,702.000,702.000
1019.871,704.000,707.000,701.000,700.000
1021.608,703.000,706.000,698.000,698.000
1023.346,694.000,700.000,700.000,696.000
1025.083,690.000,703.000,699.000,683.000
1026.819,692.000,694.000,686.000,690.000
1028.556,690.000,691.000,683.000,703.000
1030.292,697.000,690.000,696.000,706.000
1032.028,692.000,690.000,690.000,694.000
1033.763,691.000,695.000,694.000,690.000
1035.496,697.000,696.000,693.000,697.000
1037.231,688.000,697.000,699.000,690.000
1038.965,693.000,687.000,691.000,700.000
1040.699,689.000,689.000,691.000,688.000
1042.433,693.000,689.000,699.000,691.000
1044.166,693.000,686.000,681.000,698.000
1045.899,699.000,697.000,691.000,691.000
1047.632,688.000,699.000,697.000,695.000
1049.364,697.000,697.000,691.000,696.000
1051.096,695.000,694.000,695.000,694.000
1052.828,696.000,689.000,699.000,694.000
1054.559,692.000,696.000,699.000,695.000
1056.290,684.000,699.000,695.000,686.000
1058.021,694.000,703.000,697.000,692.000
1059.751,701.000,699.000,693.000,701.000
1061.479,699.000,699.000,695.000,694.000
1063.209,690.000,705.000,698.000,688.000
1064.938,699.000,696.000,691.000,686.000
1066.667,690.000,699.000,700.000,697.000
1068.395,694.000,695.000,704.000,702.000
1070.124,704.000,698.000,695.000,709.000
1071.852,692.000,702.000,712.000,699.000
1073.579,703.000,695.000,680.000,699.000
1075.306,714.000,705.000,702.000,706.000
1077.033,715.000,727.000,701.000,703.000
1078.760,720.000,718.000,699.000,708.000
1080.486,696.000,703.000,707.000,712.000
1082.212,704.000,702.000,699.000,702.000
1083.938,693.000,697.000,689.000,695.000
1085.663,693.000,695.000,702.000,689.000
1087.386,687.000,695.000,692.000,689.000
1089.110,701.000,687.000,698.000,689.000
1090.835,696.000,707.000,695.000,693.000
1092.559,709.000,699.000,699.000,702.000
1094.282,712.000,705.000,703.000,705.000
1096.005,710.000,696.000,728.000,717.000
1097.728,728.000,725.000,708.000,729.000
1099.451,730.000,745.000,731.000,737.000
1101.173,739.000,739.000,723.000,726.000
1102.895,736.000,737.000,731.000,734.000
1104.617,736.000,724.000,731.000,723.000
1106.338,704.000,721.000,725.000,709.000
1108.059,726.000,712.000,711.000,706.000
1109.779,707.000,706.000,709.000,707.000
1111.499,699.000,715.000,705.000,717.000
1113.217,697.000,716.000,697.000,697.000
1114.937,696.000,693.000,693.000,694.000
1116.656,693.000,683.000,677.000,690.000
1118.375,680.000,688.000,690.000,686.000
1120.093,684.000,690.000,696.000,695.000
1121.812,685.000,675.000,673.000,694.000
1123.530,685.000,685.000,699.000,684.000
1125.247,689.000,684.000,692.000,682.000
1126.964,689.000,688.000,694.000,695.000
1128.681,693.000,707.000,707.000,689.000
1130.398,709.000,705.000,703.000,700.000
1132.114,715.000,700.000,701.000,702.000
1133.830,703.000,701.000,706.000,693.000
1135.545,701.000,706.000,705.000,704.000
1137.261,696.000,701.000,698.000,695.000
1138.973,684.000,686.000,699.000,687.000
1140.688,691.000,688.000,689.000,696.000
1142.402,696.000,685.000,692.000,688.000
1144.116,686.000,689.000,693.000,686.000
1145.830,698.000,696.000,692.000,703.000
1147.543,709.000,700.000,709.000,708.000
1149.256,709.000,709.000,708.000,711.000
1150.968,714.000,699.000,706.000,704.000
1152.680,691.000,696.000,694.000,690.000
1154.392,705.000,687.000,690.000,693.000
1156.104,698.000,691.000,683.000,684.000
1157.815,696.000,690.000,683.000,687.000
1159.526,682.000,691.000,686.000,683.000
1161.237,692.000,681.000,694.000,697.000
1162.947,694.000,678.000,684.000,677.000
1164.655,688.000,709.000,681.000,686.000
1166.364,694.000,696.000,693.000,687.000
1168.073,694.000,700.000,703.000,701.000
1169.782,705.000,699.000,700.000,703.000
1171.491,715.000,706.000,711.000,699.000
1173.199,707.000,703.000,716.000,713.000
1174.907,713.000,703.000,709.000,711.000
1176.615,699.000,708.000,700.000,712.000
1178.322,698.000,703.000,712.000,714.000
1180.029,705.000,707.000,695.000,697.000
1181.735,689.000,700.000,697.000,691.000
1183.442,694.000,704.000,689.000,686.000
1185.147,703.000,694.000,695.000,704.000
1186.853,691.000,692.000,696.000,694.000
1188.558,688.000,703.000,691.000,701.000
1190.261,689.000,704.000,694.000,700.000
1191.966,692.000,701.000,682.000,690.000
1193.670,692.000,690.000,692.000,691.000
1195.374,701.000,686.000,695.000,691.000
1197.078,694.000,692.000,694.000,682.000
1198.781,700.000,691.000,684.000,687.000
1200.484,691.000,685.000,695.000,684.000
1202.187,695.000,689.000,694.000,705.000
1203.889,683.000,697.000,696.000,690.000
1205.591,697.000,703.000,696.000,694.000
1207.292,698.000,693.000,686.000,696.000
1208.994,686.000,698.000,698.000,697.000
1210.695,702.000,689.000,695.000,688.000
1212.395,708.000,697.000,686.000,693.000
1214.096,700.000,692.000,698.000,694.000
1215.794,700.000,703.000,695.000,693.000
1217.493,698.000,701.000,687.000,694.000
1219.193,700.000,706.000,703.000,697.000
1220.892,703.000,702.000,707.000,704.000
1222.590,692.000,702.000,692.000,704.000
1224.289,695.000,704.000,701.000,701.000
1225.987,695.000,698.000,703.000,695.000
1227.684,708.000,700.000,705.000,706.000
1229.382,697.000,708.000,701.000,705.000
1231.079,706.000,714.000,705.000,697.000
1232.775,709.000,702.000,703.000,692.000
1234.472,704.000,700.000,697.000,689.000
1236.168,704.000,688.000,690.000,699.000
1237.864,689.000,692.000,686.000,694.000
1239.559,697.000,686.000,684.000,686.000
1241.252,693.000,699.000,696.000,704.000
1242.947,697.000,696.000,698.000,698.000
1244.641,689.000,698.000,703.000,696.000
1246.335,697.000,697.000,703.000,710.000
1248.029,698.000,701.000,698.000,710.000
1249.723,692.000,702.000,694.000,689.000
1251.416,701.000,689.000,693.000,682.000
1253.108,696.000,673.000,693.000,691.000
1254.801,697.000,678.000,694.000,699.000
1256.493,699.000,694.000,686.000,684.000
1258.185,693.000,688.000,693.000,704.000
1259.876,696.000,695.000,689.000,689.000
1261.567,699.000,693.000,696.000,704.000
1263.256,690.000,699.000,708.000,692.000
1264.947,697.000,696.000,697.000,695.000
1266.637,698.000,697.000,699.000,701.000
1268.327,708.000,709.000,699.000,697.000
1270.016,710.000,704.000,708.000,704.000
1271.705,713.000,709.000,706.000,698.000
1273.394,702.000,702.000,699.000,702.000
1275.083,707.000,709.000,695.000,705.000
1276.771,706.000,710.000,702.000,697.000
1278.459,697.000,701.000,711.000,714.000
1280.147,699.000,718.000,707.000,708.000
1281.834,702.000,705.000,714.000,713.000
1283.521,711.000,722.000,713.000,702.000
1285.207,707.000,704.000,713.000,707.000
1286.894,707.000,718.000,706.000,709.000
1288.578,712.000,698.000,706.000,705.000
1290.263,718.000,716.000,712.000,699.000
1291.948,718.000,726.000,713.000,709.000
1293.633,714.000,712.000,718.000,708.000
1295.318,718.000,714.000,720.000,723.000
1297.002,717.000,735.000,730.000,723.000
1298.686,739.000,722.000,719.000,721.000
1300.370,713.000,719.000,732.000,733.000
1302.053,730.000,727.000,722.000,719.000
1303.736,721.000,736.000,729.000,724.000
1305.419,733.000,732.000,738.000,744.000
1307.101,729.000,745.000,742.000,742.000
1308.783,739.000,744.000,743.000,744.000
1310.465,736.000,725.000,721.000,718.000
1312.147,716.000,728.000,718.000,721.000
1313.826,714.000,715.000,710.000,705.000
1315.507,713.000,707.000,699.000,710.000
1317.187,713.000,706.000,713.000,709.000
1318.867,707.000,715.000,711.000,704.000
1320.547,719.000,718.000,710.000,716.000
1322.226,703.000,720.000,710.000,715.000
1323.905,723.000,715.000,726.000,735.000
1325.584,737.000,724.000,731.000,722.000
1327.263,732.000,733.000,728.000,733.000
1328.941,729.000,720.000,733.000,729.000
1330.619,737.000,738.000,734.000,737.000
1332.296,732.000,740.000,739.000,736.000
1333.973,730.000,731.000,726.000,733.000
1335.650,746.000,737.000,742.000,730.000
1337.327,742.000,737.000,744.000,748.000
1339.001,746.000,737.000,738.000,729.000
1340.677,746.000,734.000,735.000,734.000
1342.353,719.000,730.000,733.000,727.000
1344.028,727.000,738.000,719.000,712.000
1345.703,721.000,720.000,717.000,715.000
1347.378,715.000,714.000,716.000,710.000
1349.052,720.000,715.000,712.000,706.000
1350.726,721.000,707.000,706.000,705.000
1352.400,707.000,714.000,719.000,707.000
1354.073,721.000,703.000,717.000,714.000
1355.746,712.000,709.000,727.000,714.000
1357.419,720.000,715.000,714.000,718.000
1359.091,721.000,716.000,731.000,722.000
1360.763,743.000,738.000,739.000,718.000
1362.435,741.000,720.000,729.000,742.000
1364.104,734.000,738.000,759.000,732.000
1365.776,740.000,734.000,733.000,735.000
1367.446,741.000,740.000,740.000,730.000
1369.117,730.000,737.000,738.000,735.000
1370.787,754.000,738.000,726.000,732.000
1372.457,756.000,744.000,727.000,741.000
1374.126,766.000,739.000,744.000,746.000
1375.795,740.000,733.000,743.000,740.000
1377.464,723.000,724.000,722.000,716.000
1379.133,710.000,701.000,706.000,704.000
1380.801,707.000,694.000,699.000,702.000
1382.469,693.000,704.000,703.000,697.000
1384.136,701.000,702.000,691.000,698.000
1385.804,704.000,692.000,695.000,691.000
1387.471,691.000,696.000,693.000,691.000
1389.135,690.000,689.000,701.000,689.000
1390.802,695.000,698.000,692.000,695.000
1392.468,700.000,703.000,697.000,697.000
1394.133,691.000,720.000,707.000,700.000
1395.799,698.000,694.000,699.000,692.000
1397.464,707.000,703.000,691.000,695.000
1399.128,705.000,704.000,698.000,694.000
1400.793,707.000,690.000,704.000,698.000
1402.457,699.000,696.000,698.000,700.000
1404.121,694.000,695.000,695.000,683.000
1405.784,687.000,689.000,687.000,694.000
1407.447,691.000,699.000,685.000,694.000
1409.110,698.000,691.000,702.000,1074.000
1410.773,695.000,696.000,686.000,1238.000
1412.435,701.000,704.000,692.000,710.000
1414.095,693.000,694.000,689.000,683.000
1415.756,702.000,694.000,695.000,688.000
1417.417,693.000,705.000,700.000,700.000
1419.078,701.000,706.000,696.000,707.000
1420.739,714.000,710.000,719.000,699.000
1422.399,725.000,733.000,727.000,712.000
1424.059,746.000,751.000,726.000,750.000
1425.719,773.000,763.000,777.000,759.000
1427.378,775.000,772.000,785.000,776.000
1429.037,811.000,779.000,796.000,799.000
1430.696,781.000,788.000,782.000,774.000
1432.354,787.000,776.000,771.000,779.000
1434.012,794.000,783.000,774.000,781.000
1435.670,776.000,746.000,773.000,767.000
1437.327,769.000,753.000,752.000,757.000
1438.982,755.000,759.000,746.000,757.000
1440.639,744.000,754.000,739.000,761.000
1442.296,744.000,751.000,744.000,745.000
1443.952,748.000,747.000,747.000,743.000
1445.608,761.000,747.000,750.000,743.000
1447.263,751.000,749.000,754.000,752.000
1448.918,746.000,733.000,726.000,733.000
1450.573,743.000,744.000,748.000,735.000
1452.228,736.000,740.000,731.000,3273.000
1453.882,733.000,747.000,737.000,815.000
1455.536,734.000,730.000,723.000,716.000
1457.190,717.000,723.000,713.000,720.000
1458.843,702.000,716.000,718.000,717.000
1460.496,709.000,705.000,713.000,704.000
1462.149,704.000,698.000,704.000,694.000
1463.799,699.000,693.000,702.000,700.000
1465.451,690.000,700.000,698.000,699.000
1467.103,695.000,704.000,700.000,692.000
1468.754,697.000,686.000,694.000,694.000
1470.405,696.000,688.000,691.000,680.000
1472.056,686.000,693.000,686.000,686.000
1473.707,687.000,690.000,694.000,689.000
1475.357,685.000,688.000,695.000,691.000
1477.007,689.000,698.000,691.000,694.000
1478.656,684.000,679.000,681.000,696.000
1480.305,695.000,685.000,682.000,693.000
1481.954,689.000,695.000,691.000,690.000
1483.603,687.000,686.000,700.000,691.000
1485.251,691.000,686.000,689.000,684.000
1486.899,688.000,680.000,688.000,691.000
1488.545,680.000,683.000,690.000,676.000
1490.192,684.000,681.000,681.000,695.000
1491.839,685.000,686.000,689.000,696.000
1493.486,689.000,680.000,680.000,682.000
1495.132,702.000,697.000,699.000,687.000
1496.778,689.000,693.000,690.000,693.000
1498.424,687.000,685.000,689.000,693.000
1500.070,685.000,688.000,696.000,697.000
1501.715,687.000,684.000,690.000,684.000
1503.359,690.000,687.000,687.000,688.000
1505.004,677.000,690.000,689.000,680.000
1506.648,681.000,694.000,686.000,690.000
1508.292,701.000,698.000,694.000,693.000
1509.936,698.000,684.000,696.000,689.000
1511.579,691.000,687.000,675.000,688.000
1513.220,690.000,691.000,694.000,688.000
1514.863,674.000,687.000,702.000,691.000
1516.505,689.000,678.000,700.000,690.000
1518.147,688.000,686.000,689.000,680.000
1519.789,679.000,688.000,687.000,681.000
1521.430,684.000,684.000,690.000,688.000
1523.071,681.000,691.000,688.000,689.000
1524.712,693.000,671.000,693.000,679.000
1526.352,683.000,689.000,679.000,684.000
1527.992,687.000,683.000,686.000,691.000
1529.632,693.000,696.000,678.000,688.000
1531.272,684.000,681.000,684.000,690.000
1532.911,690.000,684.000,694.000,685.000
1534.550,683.000,694.000,688.000,686.000
1536.189,682.000,684.000,685.000,686.000
1537.825,679.000,687.000,695.000,687.000
1539.463,694.000,684.000,691.000,687.000
1541.101,688.000,685.000,685.000,690.000
1542.738,689.000,699.000,692.000,679.000
1544.375,690.000,680.000,686.000,674.000
1546.012,683.000,700.000,688.000,680.000
1547.648,692.000,681.000,685.000,682.000
1549.284,686.000,687.000,690.000,685.000
1550.920,687.000,688.000,681.000,691.000
1552.555,698.000,698.000,689.000,696.000
1554.191,681.000,684.000,676.000,677.000
1555.825,682.000,679.000,681.000,686.000
1557.460,684.000,692.000,675.000,683.000
1559.092,679.000,682.000,680.000,695.000
1560.726,675.000,690.000,688.000,676.000
1562.360,689.000,691.000,676.000,671.000
1563.993,695.000,685.000,684.000,695.000
1565.626,684.000,690.000,687.000,697.000
1567.259,696.000,691.000,690.000,683.000
1568.891,691.000,687.000,692.000,693.000
1570.523,688.000,704.000,691.000,686.000
1572.155,696.000,697.000,689.000,697.000
1573.787,689.000,686.000,684.000,693.000
1575.418,695.000,701.000,705.000,692.000
1577.049,695.000,688.000,692.000,716.000
1578.679,690.000,695.000,708.000,703.000
1580.309,696.000,701.000,699.000,696.000
1581.939,708.000,698.000,694.000,699.000
1583.567,699.000,699.000,692.000,676.000
1585.196,696.000,701.000,687.000,685.000
1586.825,695.000,694.000,691.000,689.000
1588.454,691.000,686.000,692.000,702.000
1590.082,688.000,700.000,685.000,688.000
1591.710,696.000,691.000,688.000,685.000
1593.338,686.000,684.000,691.000,690.000
1594.966,689.000,696.000,688.000,697.000
1596.593,685.000,691.000,696.000,691.000
1598.220,688.000,699.000,682.000,697.000
1599.846,680.000,699.000,693.000,687.000
1601.472,694.000,688.000,692.000,690.000
1603.098,692.000,679.000,697.000,695.000
1604.724,684.000,679.000,687.000,695.000
1606.349,699.000,697.000,691.000,689.000
1607.972,698.000,704.000,692.000,708.000
1609.597,708.000,696.000,705.000,703.000
1611.221,698.000,707.000,695.000,706.000
1612.845,703.000,695.000,706.000,710.000
1614.469,711.000,716.000,718.000,715.000
1616.093,734.000,725.000,717.000,728.000
1617.716,722.000,742.000,730.000,726.000
1619.338,735.000,722.000,751.000,723.000
1620.961,724.000,729.000,737.000,735.000
1622.583,726.000,731.000,723.000,729.000
1624.205,737.000,743.000,723.000,730.000
1625.827,725.000,730.000,739.000,727.000
1627.448,740.000,731.000,728.000,720.000
1629.069,728.000,722.000,727.000,733.000
1630.690,724.000,723.000,730.000,718.000
1632.308,726.000,714.000,733.000,731.000
1633.928,721.000,730.000,739.000,733.000
1635.548,758.000,750.000,735.000,762.000
1637.168,771.000,770.000,747.000,756.000
1638.787,792.000,771.000,787.000,770.000
1640.406,793.000,772.000,778.000,777.000
1642.024,765.000,764.000,753.000,767.000
1643.642,738.000,727.000,730.000,726.000
1645.260,724.000,731.000,726.000,731.000
1646.878,736.000,727.000,726.000,721.000
1648.495,736.000,720.000,720.000,727.000
1650.112,721.000,736.000,717.000,733.000
1651.729,749.000,753.000,736.000,745.000
1653.345,770.000,758.000,760.000,769.000
1654.962,811.000,789.000,786.000,782.000
1656.576,822.000,807.000,802.000,804.000
1658.191,817.000,817.000,814.000,815.000
1659.806,799.000,802.000,797.000,806.000
1661.421,760.000,757.000,763.000,775.000
1663.036,739.000,736.000,738.000,729.000
1664.650,730.000,724.000,722.000,729.000
1666.264,716.000,720.000,717.000,720.000
1667.878,711.000,714.000,701.000,688.000
1669.491,700.000,709.000,699.000,695.000
1671.104,713.000,692.000,703.000,694.000
1672.717,693.000,690.000,698.000,690.000
1674.329,691.000,694.000,695.000,700.000
1675.942,691.000,682.000,700.000,686.000
1677.553,689.000,694.000,693.000,692.000
1679.165,690.000,694.000,687.000,688.000
1680.774,683.000,682.000,685.000,680.000
1682.385,689.000,685.000,694.000,682.000
1683.996,683.000,685.000,689.000,683.000
1685.606,691.000,688.000,689.000,689.000
1687.216,691.000,692.000,692.000,689.000
1688.826,691.000,688.000,686.000,687.000
1690.435,688.000,680.000,692.000,687.000
1692.045,691.000,695.000,696.000,692.000
1693.653,690.000,687.000,691.000,691.000
1695.262,690.000,696.000,685.000,694.000
1696.870,692.000,690.000,681.000,692.000
1698.478,689.000,695.000,683.000,690.000
1700.086,689.000,689.000,693.000,692.000
1701.693,688.000,684.000,687.000,690.000
1703.300,685.000,694.000,686.000,693.000
1704.905,697.000,687.000,690.000,692.000
1706.511,699.000,679.000,689.000,681.000
1708.117,689.000,689.000,674.000,683.000
1709.723,688.000,697.000,685.000,681.000
1711.329,686.000,682.000,683.000,682.000
1712.934,692.000,683.000,688.000,687.000
1714.539,683.000,687.000,684.000,678.000
1716.143,692.000,685.000,695.000,686.000
1717.748,684.000,678.000,682.000,681.000
1719.352,687.000,689.000,685.000,685.000
1720.955,680.000,687.000,696.000,673.000
1722.559,685.000,691.000,685.000,696.000
1724.162,684.000,690.000,687.000,682.000
1725.765,684.000,680.000,679.000,690.000
1727.367,686.000,689.000,696.000,688.000
1728.967,692.000,689.000,686.000,692.000
1730.569,683.000,686.000,682.000,684.000
1732.171,686.000,683.000,694.000,680.000
1733.772,693.000,692.000,691.000,688.000
1735.373,708.000,682.000,678.000,679.000
1736.974,686.000,689.000,685.000,685.000
1738.574,692.000,690.000,703.000,681.000
1740.174,691.000,690.000,689.000,695.000
1741.774,681.000,683.000,680.000,685.000
1743.374,681.000,684.000,684.000,696.000
1744.973,695.000,676.000,689.000,695.000
1746.572,685.000,704.000,691.000,675.000
1748.170,693.000,694.000,687.000,695.000
1749.769,690.000,685.000,687.000,680.000
1751.367,687.000,694.000,692.000,693.000
1752.962,688.000,690.000,695.000,688.000
1754.560,677.000,692.000,690.000,697.000
1756.157,696.000,683.000,687.000,689.000
1757.754,688.000,686.000,686.000,683.000
1759.350,687.000,693.000,688.000,687.000
1760.946,690.000,690.000,696.000,680.000
1762.542,698.000,691.000,680.000,683.000
1764.138,684.000,685.000,677.000,688.000
1765.733,688.000,697.000,685.000,686.000
1767.328,688.000,703.000,690.000,690.000
1768.923,689.000,700.000,688.000,688.000
1770.517,689.000,687.000,678.000,693.000
1772.111,689.000,684.000,683.000,678.000
1773.705,692.000,688.000,691.000,695.000
1775.299,693.000,687.000,689.000,686.000
1776.890,692.000,697.000,687.000,681.000
1778.483,699.000,685.000,692.000,689.000
1780.075,694.000,693.000,677.000,687.000
1781.668,687.000,684.000,680.000,684.000
1783.260,695.000,681.000,679.000,689.000
1784.851,693.000,691.000,683.000,687.000
1786.443,697.000,691.000,689.000,691.000
1788.034,688.000,691.000,695.000,683.000
1789.625,682.000,691.000,695.000,688.000
1791.215,696.000,693.000,681.000,686.000
1792.806,691.000,689.000,695.000,682.000
1794.395,690.000,697.000,688.000,685.000
1795.985,703.000,681.000,684.000,690.000
1797.574,690.000,688.000,696.000,685.000
1799.163,698.000,689.000,690.000,688.000
1800.750,692.000,688.000,693.000,690.000
1802.339,704.000,697.000,687.000,701.000
1803.927,689.000,695.000,696.000,693.000
1805.515,689.000,694.000,690.000,695.000
1807.102,682.000,699.000,708.000,688.000
1808.690,692.000,702.000,696.000,686.000
1810.277,694.000,694.000,696.000,695.000