File: FTIR/Wes_EC_Silk/AT_outer_yellow_crystals_2021.dpt
3997.66,0.00012
3993.54,-0.00007
3989.42,-0.00002
3985.3,0.00005
3981.18,0.00028
3977.06,0.00019
3972.95,0.00003
3968.83,0.00008
3964.71,-0.00001
3960.59,0.00008
3956.47,0.00002
3952.35,0.00011
3948.23,0.00012
3944.11,0.00003
3939.99,0.00049
3935.87,0.00042
3931.75,-0.00015
3927.63,-0.00004
3923.52,0.00013
3919.4,-0.00004
3915.28,0.00015
3911.16,0.00011
3907.04,0.00012
3902.92,0.00034
3898.8,-0.00014
3894.68,-0.00006
3890.56,0.00030
3886.44,0.00011
3882.32,0.00032
3878.2,0.00040
3874.09,0.00026
3869.97,-0.00006
3865.85,0.00011
3861.73,0.00004
3857.61,-0.00004
3853.49,0.00008
3849.37,-0.00002
3845.25,0.00007
3841.13,0.00036
3837.01,0.00060
3832.89,0.00008
3828.77,-0.00014
3824.66,0.00005
3820.54,0.00033
3816.42,0.00017
3812.3,0.00014
3808.18,0.00012
3804.06,-0.00011
3799.94,0.00001
3795.82,0.00000
3791.7,-0.00001
3787.58,0.00017
3783.46,0.00007
3779.34,-0.00002
3775.23,0.00030
3771.11,0.00006
3766.99,-0.00013
3762.87,0.00015
3758.75,0.00057
3754.63,0.00068
3750.51,0.00036
3746.39,-0.00033
3742.27,0.00011
3738.15,0.00021
3734.03,-0.00001
3729.91,-0.00015
3725.79,-0.00006
3721.68,0.00024
3717.56,0.00037
3713.44,0.00035
3709.32,0.00028
3705.2,0.00019
3701.08,0.00021
3696.96,0.00017
3692.84,0.00044
3688.72,0.00029
3684.6,-0.00007
3680.48,-0.00013
3676.36,0.00005
3672.25,0.00022
3668.13,0.00017
3664.01,0.00024
3659.89,-0.00002
3655.77,-0.00014
3651.65,0.00017
3647.53,0.00001
3643.41,0.00016
3639.29,0.00029
3635.17,0.00011
3631.05,-0.00023
3626.93,0.00010
3622.82,0.00037
3618.7,0.00022
3614.58,0.00043
3610.46,0.00031
3606.34,0.00015
3602.22,0.00036
3598.1,0.00077
3593.98,0.00035
3589.86,0.00005
3585.74,0.00034
3581.62,0.00016
3577.5,0.00005
3573.39,0.00030
3569.27,0.00029
3565.15,0.00080
3561.03,0.00061
3556.91,0.00018
3552.79,0.00021
3548.67,0.00013
3544.55,0.00020
3540.43,0.00033
3536.31,0.00021
3532.19,0.00029
3528.07,0.00017
3523.96,0.00032
3519.84,0.00022
3515.72,0.00030
3511.6,0.00055
3507.48,0.00039
3503.36,0.00049
3499.24,0.00064
3495.12,0.00044
3491,0.00037
3486.88,0.00022
3482.76,0.00024
3478.64,0.00028
3474.53,0.00023
3470.41,0.00020
3466.29,0.00063
3462.17,0.00048
3458.05,0.00054
3453.93,0.00037
3449.81,0.00027
3445.69,0.00044
3441.57,0.00029
3437.45,0.00023
3433.33,0.00037
3429.21,0.00032
3425.1,0.00026
3420.98,0.00063
3416.86,0.00068
3412.74,0.00046
3408.62,0.00044
3404.5,0.00040
3400.38,0.00028
3396.26,0.00034
3392.14,0.00067
3388.02,0.00073
3383.9,0.00053
3379.78,0.00062
3375.66,0.00050
3371.55,0.00042
3367.43,0.00047
3363.31,0.00066
3359.19,0.00056
3355.07,0.00060
3350.95,0.00056
3346.83,0.00071
3342.71,0.00053
3338.59,0.00074
3334.47,0.00072
3330.35,0.00092
3326.23,0.00106
3322.12,0.00081
3318,0.00072
3313.88,0.00086
3309.76,0.00080
3305.64,0.00085
3301.52,0.00095
3297.4,0.00067
3293.28,0.00056
3289.16,0.00103
3285.04,0.00074
3280.92,0.00063
3276.8,0.00075
3272.69,0.00083
3268.57,0.00066
3264.45,0.00065
3260.33,0.00085
3256.21,0.00108
3252.09,0.00086
3247.97,0.00079
3243.85,0.00065
3239.73,0.00052
3235.61,0.00064
3231.49,0.00072
3227.37,0.00056
3223.26,0.00027
3219.14,0.00058
3215.02,0.00080
3210.9,0.00046
3206.78,0.00045
3202.66,0.00067
3198.54,0.00055
3194.42,0.00038
3190.3,0.00052
3186.18,0.00052
3182.06,0.00034
3177.94,0.00042
3173.83,0.00063
3169.71,0.00075
3165.59,0.00061
3161.47,0.00058
3157.35,0.00044
3153.23,0.00017
3149.11,0.00025
3144.99,0.00041
3140.87,0.00043
3136.75,0.00028
3132.63,0.00033
3128.51,0.00041
3124.4,0.00031
3120.28,0.00015
3116.16,0.00051
3112.04,0.00064
3107.92,0.00046
3103.8,0.00030
3099.68,0.00032
3095.56,0.00039
3091.44,0.00036
3087.32,0.00037
3083.2,0.00036
3079.08,0.00056
3074.97,0.00045
3070.85,0.00039
3066.73,0.00032
3062.61,0.00039
3058.49,0.00028
3054.37,0.00036
3050.25,0.00042
3046.13,0.00045
3042.01,0.00043
3037.89,0.00037
3033.77,0.00035
3029.65,0.00037
3025.53,0.00033
3021.42,0.00031
3017.3,0.00024
3013.18,0.00026
3009.06,0.00039
3004.94,0.00030
3000.82,0.00008
2996.7,0.00032
2992.58,0.00022
2988.46,0.00020
2984.34,0.00024
2980.22,0.00029
2976.1,0.00015
2971.99,0.00036
2967.87,0.00023
2963.75,0.00030
2959.63,0.00043
2955.51,0.00029
2951.39,0.00025
2947.27,0.00025
2943.15,0.00034
2939.03,0.00043
2934.91,0.00036
2930.79,0.00043
2926.67,0.00029
2922.56,0.00040
2918.44,0.00035
2914.32,0.00041
2910.2,0.00021
2906.08,0.00028
2901.96,0.00015
2897.84,0.00040
2893.72,0.00028
2889.6,0.00016
2885.48,0.00012
2881.36,0.00013
2877.24,0.00039
2873.13,0.00029
2869.01,0.00020
2864.89,0.00021
2860.77,0.00008
2856.65,0.00016
2852.53,0.00024
2848.41,0.00016
2844.29,0.00000
2840.17,0.00026
2836.05,0.00043
2831.93,0.00034
2827.81,0.00014
2823.7,0.00012
2819.58,0.00025
2815.46,0.00026
2811.34,0.00009
2807.22,0.00007
2803.1,-0.00003
2798.98,0.00013
2794.86,0.00018
2790.74,0.00009
2786.62,0.00013
2782.5,0.00021
2778.38,0.00013
2774.27,0.00010
2770.15,0.00022
2766.03,0.00019
2761.91,0.00011
2757.79,0.00011
2753.67,0.00012
2749.55,0.00011
2745.43,0.00014
2741.31,0.00005
2737.19,0.00017
2733.07,0.00009
2728.95,0.00014
2724.84,0.00014
2720.72,0.00016
2716.6,0.00006
2712.48,-0.00011
2708.36,-0.00005
2704.24,0.00013
2700.12,0.00024
2696,0.00017
2691.88,0.00015
2687.76,-0.00000
2683.64,0.00015
2679.52,0.00023
2675.41,0.00007
2671.29,0.00007
2667.17,0.00006
2663.05,0.00007
2658.93,0.00004
2654.81,0.00007
2650.69,0.00009
2646.57,0.00007
2642.45,0.00003
2638.33,-0.00002
2634.21,0.00015
2630.09,0.00016
2625.97,0.00011
2621.86,0.00010
2617.74,0.00011
2613.62,0.00012
2609.5,0.00008
2605.38,0.00005
2601.26,0.00011
2597.14,0.00029
2593.02,0.00001
2588.9,-0.00013
2584.78,-0.00007
2580.66,0.00018
2576.54,0.00009
2572.43,0.00007
2568.31,0.00026
2564.19,0.00023
2560.07,-0.00012
2555.95,0.00015
2551.83,0.00023
2547.71,0.00027
2543.59,0.00049
2539.47,0.00017
2535.35,0.00037
2531.23,0.00010
2527.11,0.00006
2523,0.00026
2518.88,0.00033
2514.76,0.00013
2510.64,0.00021
2506.52,0.00004
2502.4,0.00018
2498.28,0.00006
2494.16,0.00019
2490.04,0.00006
2485.92,-0.00005
2481.8,-0.00001
2477.68,0.00023
2473.57,0.00035
2469.45,0.00009
2465.33,0.00006
2461.21,0.00043
2457.09,0.00016
2452.97,0.00018
2448.85,-0.00002
2444.73,0.00013
2440.61,0.00018
2436.49,0.00007
2432.37,0.00022
2428.25,0.00005
2424.14,0.00001
2420.02,0.00005
2415.9,0.00021
2411.78,0.00019
2407.66,-0.00002
2403.54,0.00007
2399.42,0.00015
2395.3,0.00003
2391.18,-0.00017
2387.06,0.00011
2382.94,0.00028
2378.82,0.00012
2374.71,0.00006
2370.59,0.00003
2366.47,0.00041
2362.35,0.00019
2358.23,0.00021
2354.11,0.00005
2349.99,-0.00004
2345.87,0.00004
2341.75,0.00006
2337.63,0.00009
2333.51,0.00025
2329.39,0.00005
2325.28,0.00016
2321.16,0.00010
2317.04,0.00022
2312.92,0.00026
2308.8,0.00036
2304.68,0.00027
2300.56,0.00032
2296.44,0.00015
2292.32,0.00024
2288.2,0.00048
2284.08,0.00056
2279.96,0.00032
2275.84,0.00036
2271.73,0.00028
2267.61,0.00024
2263.49,0.00016
2259.37,0.00006
2255.25,0.00027
2251.13,0.00039
2247.01,0.00056
2242.89,0.00039
2238.77,0.00020
2234.65,0.00026
2230.53,0.00024
2226.41,0.00018
2222.3,0.00027
2218.18,0.00010
2214.06,0.00013
2209.94,0.00085
2205.82,-0.00022
2201.7,0.00030
2197.58,0.00019
2193.46,0.00062
2189.34,0.00096
2185.22,0.00107
2181.1,0.00100
2176.98,0.00038
2172.87,0.00095
2168.75,0.00078
2164.63,0.00101
2160.51,0.00144
2156.39,0.00041
2152.27,0.00023
2148.15,0.00053
2144.03,0.00001
2139.91,-0.00010
2135.79,0.00097
2131.67,0.00045
2127.55,0.00005
2123.44,0.00045
2119.32,0.00030
2115.2,0.00014
2111.08,0.00039
2106.96,0.00045
2102.84,0.00065
2098.72,0.00038
2094.6,-0.00000
2090.48,0.00012
2086.36,0.00040
2082.24,0.00050
2078.12,0.00091
2074.01,0.00029
2069.89,0.00106
2065.77,0.00051
2061.65,0.00062
2057.53,0.00042
2053.41,0.00046
2049.29,0.00066
2045.17,0.00048
2041.05,0.00029
2036.93,0.00055
2032.81,0.00133
2028.69,0.00169
2024.58,0.00106
2020.46,0.00042
2016.34,-0.00031
2012.22,0.00134
2008.1,0.00171
2003.98,0.00110
1999.86,0.00058
1995.74,0.00060
1991.62,0.00018
1987.5,0.00026
1983.38,-0.00044
1979.26,0.00066
1975.15,0.00045
1971.03,-0.00029
1966.91,0.00067
1962.79,0.00086
1958.67,0.00047
1954.55,-0.00019
1950.43,-0.00045
1946.31,0.00017
1942.19,0.00057
1938.07,0.00037
1933.95,-0.00040
1929.83,-0.00004
1925.71,0.00031
1921.6,0.00055
1917.48,0.00009
1913.36,0.00054
1909.24,0.00027
1905.12,0.00015
1901,0.00016
1896.88,-0.00005
1892.76,0.00041
1888.64,0.00035
1884.52,-0.00011
1880.4,-0.00019
1876.28,-0.00015
1872.17,0.00003
1868.05,0.00003
1863.93,-0.00010
1859.81,-0.00026
1855.69,0.00020
1851.57,0.00005
1847.45,0.00015
1843.33,-0.00019
1839.21,0.00011
1835.09,0.00032
1830.97,-0.00003
1826.85,-0.00013
1822.74,0.00008
1818.62,0.00005
1814.5,0.00003
1810.38,0.00003
1806.26,-0.00008
1802.14,-0.00013
1798.02,-0.00020
1793.9,-0.00025
1789.78,-0.00020
1785.66,-0.00015
1781.54,-0.00003
1777.42,-0.00003
1773.31,0.00008
1769.19,-0.00001
1765.07,-0.00002
1760.95,-0.00010
1756.83,-0.00012
1752.71,0.00008
1748.59,0.00017
1744.47,0.00003
1740.35,0.00011
1736.23,-0.00002
1732.11,0.00001
1727.99,-0.00010
1723.88,-0.00001
1719.76,0.00005
1715.64,0.00005
1711.52,0.00021
1707.4,0.00033
1703.28,0.00039
1699.16,0.00068
1695.04,0.00099
1690.92,0.00104
1686.8,0.00109
1682.68,0.00143
1678.56,0.00178
1674.45,0.00199
1670.33,0.00219
1666.21,0.00238
1662.09,0.00258
1657.97,0.00290
1653.85,0.00274
1649.73,0.00291
1645.61,0.00260
1641.49,0.00247
1637.37,0.00243
1633.25,0.00232
1629.13,0.00218
1625.02,0.00208
1620.9,0.00197
1616.78,0.00182
1612.66,0.00157
1608.54,0.00148
1604.42,0.00113
1600.3,0.00121
1596.18,0.00092
1592.06,0.00078
1587.94,0.00076
1583.82,0.00080
1579.7,0.00089
1575.58,0.00095
1571.47,0.00084
1567.35,0.00087
1563.23,0.00094
1559.11,0.00104
1554.99,0.00138
1550.87,0.00174
1546.75,0.00196
1542.63,0.00195
1538.51,0.00206
1534.39,0.00226
1530.27,0.00198
1526.15,0.00201
1522.04,0.00221
1517.92,0.00225
1513.8,0.00207
1509.68,0.00197
1505.56,0.00162
1501.44,0.00156
1497.32,0.00133
1493.2,0.00117
1489.08,0.00092
1484.96,0.00068
1480.84,0.00087
1476.72,0.00091
1472.61,0.00094
1468.49,0.00099
1464.37,0.00098
1460.25,0.00108
1456.13,0.00105
1452.01,0.00094
1447.89,0.00094
1443.77,0.00090
1439.65,0.00096
1435.53,0.00097
1431.41,0.00096
1427.29,0.00094
1423.18,0.00088
1419.06,0.00079
1414.94,0.00091
1410.82,0.00097
1406.7,0.00104
1402.58,0.00083
1398.46,0.00082
1394.34,0.00097
1390.22,0.00089
1386.1,0.00088
1381.98,0.00097
1377.86,0.00093
1373.75,0.00085
1369.63,0.00086
1365.51,0.00084
1361.39,0.00098
1357.27,0.00077
1353.15,0.00065
1349.03,0.00074
1344.91,0.00084
1340.79,0.00074
1336.67,0.00082
1332.55,0.00074
1328.43,0.00096
1324.32,0.00094
1320.2,0.00084
1316.08,0.00076
1311.96,0.00084
1307.84,0.00080
1303.72,0.00076
1299.6,0.00090
1295.48,0.00099
1291.36,0.00093
1287.24,0.00080
1283.12,0.00092
1279,0.00092
1274.89,0.00078
1270.77,0.00086
1266.65,0.00076
1262.53,0.00090
1258.41,0.00093
1254.29,0.00091
1250.17,0.00099
1246.05,0.00108
1241.93,0.00096
1237.81,0.00105
1233.69,0.00104
1229.57,0.00102
1225.45,0.00077
1221.34,0.00090
1217.22,0.00086
1213.1,0.00080
1208.98,0.00083
1204.86,0.00073
1200.74,0.00063
1196.62,0.00065
1192.5,0.00056
1188.38,0.00062
1184.26,0.00058
1180.14,0.00063
1176.02,0.00080
1171.91,0.00074
1167.79,0.00062
1163.67,0.00060
1159.55,0.00067
1155.43,0.00071
1151.31,0.00070
1147.19,0.00070
1143.07,0.00064
1138.95,0.00047
1134.83,0.00057
1130.71,0.00045
1126.59,0.00048
1122.48,0.00069
1118.36,0.00067
1114.24,0.00058
1110.12,0.00072
1106,0.00077
1101.88,0.00074
1097.76,0.00079
1093.64,0.00079
1089.52,0.00079
1085.4,0.00074
1081.28,0.00069
1077.16,0.00080
1073.05,0.00087
1068.93,0.00113
1064.81,0.00113
1060.69,0.00104
1056.57,0.00111
1052.45,0.00106
1048.33,0.00115
1044.21,0.00104
1040.09,0.00090
1035.97,0.00095
1031.85,0.00103
1027.73,0.00079
1023.62,0.00085
1019.5,0.00083
1015.38,0.00069
1011.26,0.00064
1007.14,0.00067
1003.02,0.00057
998.9,0.00072
994.781,0.00060
990.662,0.00065
986.543,0.00051
982.424,0.00055
978.304,0.00079
974.185,0.00066
970.066,0.00040
965.947,0.00047
961.828,0.00049
957.708,0.00067
953.589,0.00077
949.47,0.00061
945.351,0.00035
941.232,0.00058
937.113,0.00054
932.993,0.00055
928.874,0.00058
924.755,0.00074
920.636,0.00038
916.517,0.00048
912.398,0.00072
908.278,0.00062
904.159,0.00063
900.04,0.00060
895.921,0.00077
891.802,0.00062
887.682,0.00071
883.563,0.00085
879.444,0.00082
875.325,0.00077
871.206,0.00050
867.087,0.00058
862.967,0.00032
858.848,0.00056
854.729,0.00075
850.61,0.00078
846.491,0.00061
842.372,0.00065
838.252,0.00075
834.133,0.00038
830.014,0.00059
825.895,0.00061
821.776,0.00055
817.656,0.00051
813.537,0.00065
809.418,0.00053
805.299,0.00085
801.18,0.00098
797.061,0.00068
792.941,0.00063
788.822,0.00089
784.703,0.00094
780.584,0.00077
776.465,0.00079
772.346,0.00093
768.226,0.00125
764.107,0.00112
759.988,0.00128
755.869,0.00111
751.75,0.00095
747.63,0.00125
743.511,0.00140
739.392,0.00122
735.273,0.00106
731.154,0.00139
727.035,0.00125
722.915,0.00103
718.796,0.00116
714.677,0.00149
710.558,0.00163
706.439,0.00178
702.32,0.00201
698.2,0.00207
694.081,0.00235
689.962,0.00214
685.843,0.00218
681.724,0.00187
677.605,0.00194
673.485,0.00218
669.366,0.00224
665.247,0.00261
661.128,0.00265
657.009,0.00246
652.889,0.00232
648.77,0.00263
644.651,0.00251
640.532,0.00209
636.413,0.00216
632.294,0.00221
628.174,0.00275
624.055,0.00252
619.936,0.00234
615.817,0.00227
611.698,0.00279
607.578,0.00254
603.459,0.00253
599.34,0.00276
595.221,0.00235
591.102,0.00216
586.983,0.00247
582.863,0.00245
578.744,0.00274
574.625,0.00280
570.506,0.00203
566.387,0.00284
562.268,0.00355
558.148,0.00337
554.029,0.00302
549.91,0.00280
545.791,0.00246
541.672,0.00321
537.553,0.00315
533.433,0.00291
529.314,0.00313
525.195,0.00369
521.076,0.00372
516.957,0.00335
512.837,0.00314
508.718,0.00310
504.599,0.00248
500.48,0.00238
496.361,0.00231
492.242,0.00239
488.122,0.00330
484.003,0.00340
479.884,0.00201
475.765,0.00269
471.646,0.00309
467.527,0.00309
463.407,0.00310
459.288,0.00260
455.169,0.00320
451.05,0.00429
446.931,0.00469
442.811,0.00501
438.692,0.00328
434.573,0.00346
430.454,0.00360
426.335,0.00195
422.216,0.00289
418.096,0.00183
413.977,0.00154
409.858,0.00193
405.739,0.00374
401.62,0.00443
399.56,0.00346