File: Raman/Silica/2022_12_08_Qtz_355nm_UnPol_11mW_750mm_1200gv_1090wn_iDus_10s_1accum_50x_Mit_UV_Lens_2.csv
31.856,2253.000
33.999,1208.000
36.141,992.000
38.286,944.000
40.428,961.000
42.569,1053.000
44.711,1239.000
46.852,1614.000
48.995,2084.000
51.135,2839.000
53.275,3350.000
55.414,3587.000
57.556,3304.000
59.695,3117.000
61.834,2923.000
63.972,2649.000
66.110,2055.000
68.250,1708.000
70.388,1301.000
72.525,1026.000
74.661,827.000
76.798,725.000
78.936,710.000
81.072,677.000
83.207,685.000
85.342,681.000
87.480,670.000
89.614,675.000
91.748,679.000
93.882,667.000
96.015,681.000
98.151,694.000
100.284,694.000
102.416,680.000
104.548,677.000
106.680,674.000
108.814,688.000
110.945,678.000
113.076,675.000
115.207,695.000
117.339,695.000
119.469,697.000
121.599,687.000
123.728,694.000
125.857,688.000
127.988,697.000
130.116,706.000
132.244,705.000
134.372,707.000
136.499,718.000
138.629,733.000
140.755,760.000
142.882,782.000
145.008,862.000
147.136,1002.000
149.261,1372.000
151.386,1895.000
153.511,1716.000
155.635,1223.000
157.762,918.000
159.885,845.000
162.009,787.000
164.132,797.000
166.255,792.000
168.380,780.000
170.502,810.000
172.624,787.000
174.745,787.000
176.866,765.000
178.990,781.000
181.110,774.000
183.230,775.000
185.350,784.000
187.472,771.000
189.592,790.000
191.710,794.000
193.829,810.000
195.947,802.000
198.068,821.000
200.185,846.000
202.303,863.000
204.420,897.000
206.536,927.000
208.655,980.000
210.771,1003.000
212.887,1085.000
215.002,1181.000
217.120,1276.000
219.235,1409.000
221.349,1514.000
223.463,1723.000
225.577,1919.000
227.693,1973.000
229.806,2002.000
231.919,1987.000
234.031,1905.000
236.144,1768.000
238.258,1605.000
240.370,1482.000
242.481,1349.000
244.592,1258.000
246.705,1190.000
248.815,1116.000
250.925,1064.000
253.035,1026.000
255.144,990.000
257.255,971.000
259.364,923.000
261.472,914.000
263.581,900.000
265.688,886.000
267.798,860.000
269.905,864.000
272.012,840.000
274.118,832.000
276.227,821.000
278.333,830.000
280.438,839.000
282.544,873.000
284.648,977.000
286.755,1096.000
288.860,1035.000
290.964,886.000
293.067,790.000
295.170,758.000
297.276,748.000
299.378,738.000
301.481,716.000
303.583,727.000
305.685,734.000
307.788,716.000
309.889,711.000
311.990,716.000
314.091,723.000
316.193,704.000
318.293,705.000
320.392,701.000
322.492,700.000
324.590,700.000
326.691,703.000
328.790,700.000
330.887,708.000
332.985,694.000
335.082,700.000
337.182,688.000
339.278,698.000
341.375,686.000
343.471,692.000
345.569,678.000
347.664,696.000
349.759,686.000
351.854,697.000
353.948,693.000
356.045,691.000
358.139,689.000
360.232,695.000
362.325,702.000
364.418,703.000
366.513,717.000
368.605,718.000
370.697,755.000
372.789,838.000
374.882,1047.000
376.973,1159.000
379.064,962.000
381.154,801.000
383.244,730.000
385.336,718.000
387.426,701.000
389.515,711.000
391.604,708.000
393.692,701.000
395.783,695.000
397.870,699.000
399.958,715.000
402.045,703.000
404.134,698.000
406.221,700.000
408.307,727.000
410.393,754.000
412.479,828.000
414.566,889.000
416.651,833.000
418.736,767.000
420.820,756.000
422.905,819.000
424.991,818.000
427.074,748.000
429.157,717.000
431.240,717.000
433.322,713.000
435.407,714.000
437.489,711.000
439.570,710.000
441.652,723.000
443.735,722.000
445.816,720.000
447.896,739.000
449.976,739.000
452.056,741.000
454.137,758.000
456.216,764.000
458.295,783.000
460.374,803.000
462.452,819.000
464.532,883.000
466.609,913.000
468.687,1002.000
470.763,1104.000
472.842,1281.000
474.919,1602.000
476.995,2111.000
479.070,3058.000
481.145,4706.000
483.223,6953.000
485.298,7705.000
487.372,6297.000
489.446,4149.000
491.520,2889.000
493.596,2163.000
495.669,1756.000
497.742,1483.000
499.814,1349.000
501.889,1191.000
503.960,1141.000
506.032,1105.000
508.103,1062.000
510.174,1041.000
512.247,1023.000
514.318,1001.000
516.388,1005.000
518.457,996.000
520.527,965.000
522.598,984.000
524.667,1004.000
526.736,1090.000
528.804,1133.000
530.874,1087.000
532.942,976.000
535.009,896.000
537.076,869.000
539.142,859.000
541.211,809.000
543.277,796.000
545.343,810.000
547.408,787.000
549.473,769.000
551.540,775.000
553.605,774.000
555.669,772.000
557.733,763.000
559.796,756.000
561.862,757.000
563.925,741.000
565.988,761.000
568.050,746.000
570.114,738.000
572.176,738.000
574.237,739.000
576.298,734.000
578.359,737.000
580.422,731.000
582.482,732.000
584.542,723.000
586.601,738.000
588.661,714.000
590.722,717.000
592.781,723.000
594.839,725.000
596.897,724.000
598.957,720.000
601.014,706.000
603.071,720.000
605.128,722.000
607.185,725.000
609.243,718.000
611.299,733.000
613.354,724.000
615.410,731.000
617.465,729.000
619.522,716.000
621.576,724.000
623.630,720.000
625.684,721.000
627.739,723.000
629.792,713.000
631.845,707.000
633.898,718.000
635.950,723.000
638.004,718.000
640.056,729.000
642.107,708.000
644.158,724.000
646.209,719.000
648.261,706.000
650.311,720.000
652.361,716.000
654.410,709.000
656.462,721.000
658.511,702.000
660.559,702.000
662.607,716.000
664.655,709.000
666.705,714.000
668.752,720.000
670.799,713.000
672.846,719.000
674.892,714.000
676.941,718.000
678.987,715.000
681.032,711.000
683.077,707.000
685.122,705.000
687.169,715.000
689.213,710.000
691.257,703.000
693.301,713.000
695.346,724.000
697.389,724.000
699.432,720.000
701.475,728.000
703.517,727.000
705.561,738.000
707.602,757.000
709.644,764.000
711.684,789.000
713.725,851.000
715.768,818.000
717.808,789.000
719.847,756.000
721.887,763.000
723.928,740.000
725.967,717.000
728.005,729.000
730.044,732.000
732.081,736.000
734.121,721.000
736.159,728.000
738.196,727.000
740.232,722.000
742.269,724.000
744.307,720.000
746.343,729.000
748.378,722.000
750.413,718.000
752.448,711.000
754.485,721.000
756.519,727.000
758.553,716.000
760.587,731.000
762.622,734.000
764.655,724.000
766.688,715.000
768.721,726.000
770.753,720.000
772.787,715.000
774.818,731.000
776.850,714.000
778.881,728.000
780.913,703.000
782.944,724.000
784.974,731.000
787.004,737.000
789.033,727.000
791.064,729.000
793.093,732.000
795.122,721.000
797.150,743.000
799.178,745.000
801.208,744.000
803.235,747.000
805.262,744.000
807.289,762.000
809.315,759.000
811.344,772.000
813.369,785.000
815.395,782.000
817.420,807.000
819.447,863.000
821.472,914.000
823.496,1034.000
825.520,1114.000
827.544,1075.000
829.570,950.000
831.593,870.000
833.616,813.000
835.638,796.000
837.660,769.000
839.685,772.000
841.706,766.000
843.728,762.000
845.749,770.000
847.772,759.000
849.792,754.000
851.812,766.000
853.832,754.000
855.851,752.000
857.873,772.000
859.892,757.000
861.911,757.000
863.929,762.000
865.947,770.000
867.967,751.000
869.984,759.000
872.001,748.000
874.018,756.000
876.035,739.000
878.053,741.000
880.069,759.000
882.085,743.000
884.100,747.000
886.118,744.000
888.132,745.000
890.147,748.000
892.161,758.000
894.175,759.000
896.191,742.000
898.204,746.000
900.217,747.000
902.230,744.000
904.244,748.000
906.256,752.000
908.268,741.000
910.280,754.000
912.291,751.000
914.304,753.000
916.315,748.000
918.325,751.000
920.335,750.000
922.345,761.000
924.356,746.000
926.365,751.000
928.374,753.000
930.383,744.000
932.391,757.000
934.401,741.000
936.409,765.000
938.416,758.000
940.423,760.000
942.432,770.000
944.439,753.000
946.445,745.000
948.451,746.000
950.456,773.000
952.464,751.000
954.469,750.000
956.473,743.000
958.478,744.000
960.482,750.000
962.488,744.000
964.491,769.000
966.495,746.000
968.497,743.000
970.502,748.000
972.505,753.000
974.507,744.000
976.508,738.000
978.510,760.000
980.513,745.000
982.514,751.000
984.515,734.000
986.515,749.000
988.515,744.000
990.517,745.000
992.516,741.000
994.515,755.000
996.514,739.000
998.512,737.000
1000.513,751.000
1002.511,735.000
1004.508,743.000
1006.506,743.000
1008.505,746.000
1010.502,744.000
1012.498,750.000
1014.494,747.000
1016.490,743.000
1018.488,740.000
1020.483,749.000
1022.478,744.000
1024.473,748.000
1026.469,736.000
1028.463,755.000
1030.457,742.000
1032.451,732.000
1034.444,743.000
1036.439,739.000
1038.432,748.000
1040.424,739.000
1042.416,752.000
1044.408,750.000
1046.401,739.000
1048.393,734.000
1050.383,743.000
1052.374,754.000
1054.364,748.000
1056.357,750.000
1058.346,745.000
1060.336,749.000
1062.325,741.000
1064.316,759.000
1066.304,754.000
1068.293,735.000
1070.281,758.000
1072.268,758.000
1074.258,754.000
1076.245,778.000
1078.232,781.000
1080.218,775.000
1082.204,774.000
1084.192,771.000
1086.178,781.000
1088.163,779.000
1090.148,786.000
1092.135,811.000
1094.120,853.000
1096.104,900.000
1098.088,906.000
1100.071,849.000
1102.057,801.000
1104.040,792.000
1106.023,764.000
1108.005,772.000
1109.987,765.000
1111.971,756.000
1113.953,757.000
1115.934,755.000
1117.915,762.000
1119.896,756.000
1121.878,737.000
1123.858,754.000
1125.838,747.000
1127.818,747.000
1129.799,757.000
1131.778,748.000
1133.757,755.000
1135.735,754.000
1137.713,763.000
1139.693,749.000
1141.671,763.000
1143.648,756.000
1145.625,750.000
1147.603,745.000
1149.580,758.000
1151.556,760.000
1153.532,765.000
1155.507,767.000
1157.484,767.000
1159.459,779.000
1161.434,791.000
1163.408,802.000
1165.382,836.000
1167.358,847.000
1169.332,895.000
1171.305,957.000
1173.278,1029.000
1175.250,1054.000
1177.225,987.000
1179.197,910.000
1181.168,874.000
1183.140,829.000
1185.113,799.000
1187.084,781.000
1189.054,793.000
1191.025,777.000
1192.995,791.000
1194.967,774.000
1196.936,764.000
1198.905,779.000
1200.874,783.000
1202.843,763.000
1204.813,780.000
1206.781,788.000
1208.749,759.000
1210.716,795.000
1212.685,766.000
1214.652,786.000
1216.619,785.000
1218.585,775.000
1220.551,782.000
1222.519,771.000
1224.484,771.000
1226.449,774.000
1228.414,773.000
1230.379,780.000
1232.345,790.000
1234.309,788.000
1236.273,789.000
1238.236,802.000
1240.199,806.000
1242.164,811.000
1244.127,800.000
1246.089,821.000
1248.051,778.000
1250.015,794.000
1251.976,807.000
1253.937,808.000
1255.898,790.000
1257.858,787.000
1259.821,788.000
1261.781,782.000
1263.740,770.000
1265.700,803.000
1267.661,771.000
1269.620,768.000
1271.578,786.000
1273.537,779.000
1275.495,770.000
1277.454,790.000
1279.412,777.000
1281.369,783.000
1283.326,773.000
1285.282,805.000
1287.241,764.000
1289.197,777.000
1291.152,763.000
1293.108,787.000
1295.063,791.000
1297.020,777.000
1298.974,788.000
1300.929,773.000
1302.883,774.000
1304.838,781.000
1306.792,785.000
1308.745,790.000
1310.698,778.000
1312.650,774.000
1314.605,784.000
1316.557,772.000
1318.508,767.000
1320.460,803.000
1322.411,779.000
1324.364,783.000
1326.315,790.000
1328.265,782.000
1330.215,773.000
1332.167,788.000
1334.116,783.000
1336.065,774.000
1338.014,788.000
1339.963,786.000
1341.913,797.000
1343.861,783.000
1345.809,771.000
1347.756,781.000
1349.703,795.000
1351.653,784.000
1353.599,780.000
1355.545,779.000
1357.491,773.000
1359.437,781.000
1361.385,781.000
1363.330,780.000
1365.275,776.000
1367.220,791.000
1369.166,765.000
1371.110,775.000
1373.054,777.000
1374.997,773.000
1376.941,773.000
1378.886,781.000
1380.828,778.000
1382.771,786.000
1384.713,783.000
1386.657,791.000
1388.598,787.000
1390.539,772.000
1392.480,779.000
1394.421,779.000
1396.364,783.000
1398.304,789.000
1400.244,776.000
1402.183,778.000
1404.122,776.000
1406.064,787.000
1408.002,784.000
1409.941,791.000
1411.879,795.000
1413.817,793.000
1415.756,789.000
1417.694,787.000
1419.631,796.000
1421.567,785.000
1423.504,793.000
1425.442,784.000
1427.378,795.000
1429.314,804.000
1431.249,791.000
1433.186,805.000
1435.121,786.000
1437.056,797.000
1438.990,796.000
1440.924,804.000
1442.860,792.000
1444.793,787.000
1446.726,800.000
1448.659,790.000
1450.594,806.000
1452.526,805.000
1454.458,783.000
1456.389,776.000
1458.321,788.000
1460.254,799.000
1462.185,788.000
1464.116,803.000
1466.046,799.000
1467.976,795.000
1469.908,793.000
1471.837,812.000
1473.766,808.000
1475.695,799.000
1477.624,809.000
1479.555,795.000
1481.483,796.000
1483.410,797.000
1485.338,797.000
1487.267,804.000
1489.194,795.000
1491.121,799.000
1493.047,787.000
1494.973,798.000
1496.901,789.000
1498.827,806.000
1500.752,792.000
1502.677,813.000
1504.604,805.000
1506.529,805.000
1508.453,803.000
1510.377,791.000
1512.300,800.000
1514.226,801.000
1516.149,803.000
1518.072,812.000
1519.994,810.000
1521.916,828.000
1523.840,828.000
1525.762,814.000
1527.684,807.000
1529.605,807.000
1531.526,833.000
1533.448,818.000
1535.369,823.000
1537.289,810.000
1539.208,814.000
1541.128,826.000
1543.049,813.000
1544.968,818.000
1546.887,812.000
1548.805,809.000
1550.725,808.000
1552.643,828.000
1554.561,821.000
1556.478,820.000
1558.395,818.000
1560.314,818.000
1562.230,815.000
1564.146,817.000
1566.062,827.000
1567.980,833.000
1569.895,845.000
1571.810,833.000
1573.725,817.000
1575.639,829.000
1577.556,833.000
1579.470,826.000
1581.383,809.000
1583.297,807.000
1585.210,827.000
1587.125,830.000
1589.037,829.000
1590.950,826.000
1592.862,829.000
1594.773,853.000
1596.687,831.000
1598.598,845.000
1600.509,843.000
1602.420,850.000
1604.332,848.000
1606.242,866.000
1608.152,854.000
1610.062,844.000
1611.971,845.000
1613.882,853.000
1615.791,836.000
1617.699,845.000
1619.607,849.000
1621.517,858.000
1623.425,848.000
1625.332,830.000
1627.239,845.000
1629.146,856.000
1631.055,850.000
1632.961,855.000
1634.867,854.000
1636.773,862.000
1638.678,851.000
1640.585,842.000
1642.490,868.000
1644.395,850.000
1646.299,845.000
1648.203,838.000
1650.109,857.000
1652.013,849.000
1653.916,826.000
1655.819,839.000
1657.722,843.000
1659.626,865.000
1661.528,841.000
1663.430,853.000
1665.332,848.000
1667.235,862.000
1669.136,852.000
1671.037,847.000
1672.937,850.000
1674.838,834.000
1676.740,831.000
1678.639,853.000
1680.539,866.000
1682.438,849.000
1684.339,832.000
1686.238,862.000
1688.136,848.000
1690.034,850.000
1691.932,858.000
1693.831,856.000
1695.729,859.000
1697.626,857.000
1699.522,859.000
1701.419,849.000
1703.317,865.000
1705.213,836.000
1707.108,844.000
1709.004,844.000
1710.899,855.000
1712.796,838.000
1714.690,851.000
1716.585,870.000
1718.479,832.000
1720.374,845.000
1722.268,836.000
1724.161,855.000
1726.054,840.000
1727.946,857.000
1729.841,843.000
1731.733,850.000
1733.625,859.000
1735.516,848.000
1737.410,853.000
1739.301,845.000
1741.191,849.000
1743.082,851.000
1744.972,858.000
1746.864,861.000
1748.754,857.000
1750.643,854.000
1752.532,855.000
1754.421,864.000
1756.312,854.000
1758.200,845.000
1760.088,847.000
1761.976,857.000
1763.863,882.000
1765.753,853.000
1767.640,851.000
1769.526,868.000
1771.413,854.000
1773.299,852.000
1775.187,849.000
1777.072,847.000
1778.958,830.000
1780.843,831.000
1782.730,838.000
1784.614,850.000
1786.498,851.000
1788.382,841.000
1790.266,818.000
1792.152,823.000
1794.035,829.000
1795.918,820.000
1797.800,842.000
1799.685,852.000
1801.567,851.000
1803.449,860.000
1805.330,862.000
1807.212,866.000
1809.095,862.000
1810.975,880.000
1812.856,865.000
1814.736,849.000
1816.616,867.000
1818.498,872.000
1820.377,862.000
1822.256,868.000
1824.135,859.000
1826.014,885.000
1827.894,854.000
1829.772,846.000
1831.650,853.000
1833.528,891.000
1835.407,884.000
1837.284,855.000
1839.161,879.000
1841.037,875.000
1842.913,882.000
1844.792,887.000
1846.667,894.000
1848.543,888.000
1850.418,876.000
1852.295,880.000
1854.169,894.000
1856.044,906.000
1857.918,875.000
1859.791,866.000
1861.667,875.000
1863.540,895.000
1865.413,885.000
1867.286,884.000
1869.158,886.000
1871.033,892.000
1872.905,885.000
1874.776,891.000
1876.648,891.000
1878.519,901.000
1880.392,896.000
1882.262,879.000
1884.133,885.000
1886.003,886.000
1887.873,903.000
1889.744,895.000
1891.613,894.000
1893.482,895.000
1895.351,886.000
1897.222,888.000
1899.090,898.000
1900.958,912.000
1902.826,898.000
1904.693,883.000
1906.562,895.000
1908.429,879.000
1910.296,873.000
1912.162,889.000
1914.030,871.000
1915.896,882.000
1917.762,894.000
1919.627,901.000
1921.492,889.000
1923.359,895.000
1925.223,891.000
1927.087,896.000
1928.951,890.000
1930.815,901.000
1932.681,901.000
1934.544,898.000
1936.407,913.000
1938.269,909.000
1940.132,890.000
1941.996,908.000
1943.858,888.000
1945.719,883.000
1947.580,892.000
1949.444,895.000
1951.304,876.000
1953.165,905.000
1955.025,901.000
1956.885,901.000
1958.747,916.000
1960.606,903.000
1962.466,897.000
1964.324,906.000
1966.183,900.000
1968.044,892.000
1969.902,905.000
1971.760,902.000
1973.617,912.000
1975.477,899.000
1977.334,908.000
1979.191,920.000
1981.047,894.000
1982.903,927.000
1984.762,905.000
1986.617,903.000
1988.473,901.000
1990.328,912.000
1992.183,908.000
1994.040,895.000
1995.894,892.000
1997.749,903.000
1999.602,902.000
2001.456,905.000
2003.312,898.000
2005.165,905.000
2007.018,918.000
2008.870,910.000
2010.725,899.000
2012.577,901.000
2014.429,908.000
2016.280,906.000
2018.131,921.000
2019.985,918.000
2021.835,915.000
2023.686,925.000
2025.536,922.000
2027.388,922.000
2029.238,908.000
2031.087,923.000
2032.937,916.000
2034.786,900.000
2036.636,927.000
2038.485,917.000
2040.333,914.000
2042.181,910.000
2044.028,918.000
2045.878,923.000
2047.725,910.000
2049.572,905.000
2051.418,914.000
2053.265,924.000
2055.113,925.000
2056.959,905.000
2058.804,900.000
2060.650,909.000
2062.497,919.000
2064.341,925.000
2066.186,909.000