File: Raman/Silica/2022_12_08_SiO2_Glass_MQ_2000C_532nm_DePol_50mW_750mm_600gv_3000wn_iDus_10s_3accum.csv
2268.047,654.000,652.000,652.000
2269.541,659.000,655.000,663.000
2271.033,646.000,653.000,651.000
2272.526,662.000,650.000,659.000
2274.019,655.000,654.000,655.000
2275.511,657.000,655.000,653.000
2277.003,658.000,661.000,653.000
2278.496,658.000,653.000,654.000
2279.988,652.000,659.000,657.000
2281.478,654.000,661.000,655.000
2282.969,659.000,659.000,658.000
2284.461,659.000,662.000,657.000
2285.950,651.000,656.000,662.000
2287.441,664.000,661.000,652.000
2288.931,655.000,665.000,666.000
2290.420,661.000,660.000,657.000
2291.910,653.000,660.000,660.000
2293.399,655.000,654.000,661.000
2294.889,655.000,651.000,659.000
2296.376,653.000,657.000,661.000
2297.865,657.000,650.000,652.000
2299.353,664.000,658.000,661.000
2300.840,650.000,651.000,658.000
2302.328,660.000,658.000,660.000
2303.816,654.000,652.000,651.000
2305.302,652.000,654.000,660.000
2306.789,653.000,663.000,659.000
2308.276,649.000,660.000,665.000
2309.763,661.000,663.000,654.000
2311.247,657.000,653.000,661.000
2312.734,655.000,654.000,651.000
2314.219,655.000,657.000,659.000
2315.703,653.000,659.000,658.000
2317.189,662.000,651.000,655.000
2318.674,652.000,662.000,661.000
2320.157,656.000,650.000,656.000
2321.642,657.000,662.000,657.000
2323.126,657.000,651.000,658.000
2324.610,658.000,662.000,663.000
2326.092,650.000,651.000,657.000
2327.575,655.000,660.000,666.000
2329.059,664.000,646.000,656.000
2330.540,647.000,660.000,658.000
2332.023,654.000,659.000,663.000
2333.505,656.000,660.000,656.000
2334.986,653.000,653.000,656.000
2336.468,660.000,665.000,662.000
2337.949,664.000,669.000,659.000
2339.430,659.000,663.000,650.000
2340.910,657.000,653.000,658.000
2342.391,657.000,654.000,659.000
2343.871,668.000,663.000,662.000
2345.350,664.000,656.000,660.000
2346.830,659.000,655.000,662.000
2348.310,658.000,657.000,662.000
2349.788,657.000,658.000,656.000
2351.267,659.000,656.000,663.000
2352.746,659.000,666.000,657.000
2354.224,654.000,652.000,660.000
2355.701,660.000,661.000,657.000
2357.179,665.000,648.000,654.000
2358.657,664.000,658.000,654.000
2360.133,652.000,656.000,655.000
2361.611,663.000,657.000,655.000
2363.088,659.000,655.000,660.000
2364.563,661.000,660.000,662.000
2366.039,654.000,663.000,656.000
2367.516,656.000,664.000,663.000
2368.992,654.000,656.000,656.000
2370.466,646.000,656.000,665.000
2371.941,661.000,658.000,659.000
2373.417,656.000,656.000,656.000
2374.890,651.000,666.000,659.000
2376.365,658.000,663.000,659.000
2377.839,656.000,659.000,662.000
2379.312,652.000,657.000,667.000
2380.786,658.000,658.000,662.000
2382.259,658.000,660.000,660.000
2383.733,655.000,656.000,662.000
2385.204,654.000,658.000,657.000
2386.677,658.000,649.000,658.000
2388.149,656.000,655.000,662.000
2389.620,658.000,654.000,663.000
2391.092,660.000,658.000,656.000
2392.564,658.000,655.000,655.000
2394.034,660.000,659.000,654.000
2395.505,659.000,661.000,660.000
2396.976,660.000,660.000,657.000
2398.447,656.000,663.000,659.000
2399.916,652.000,662.000,663.000
2401.386,659.000,671.000,660.000
2402.856,659.000,664.000,659.000
2404.324,665.000,656.000,656.000
2405.793,657.000,662.000,667.000
2407.263,657.000,651.000,652.000
2408.730,663.000,664.000,654.000
2410.199,665.000,665.000,660.000
2411.667,662.000,655.000,664.000
2413.133,650.000,656.000,664.000
2414.601,664.000,658.000,659.000
2416.069,657.000,666.000,655.000
2417.536,657.000,664.000,661.000
2419.002,664.000,650.000,652.000
2420.468,659.000,660.000,662.000
2421.935,660.000,663.000,659.000
2423.400,660.000,654.000,665.000
2424.866,655.000,660.000,666.000
2426.331,657.000,656.000,654.000
2427.795,655.000,651.000,665.000
2429.260,655.000,652.000,667.000
2430.725,652.000,662.000,655.000
2432.190,651.000,653.000,663.000
2433.653,661.000,659.000,660.000
2435.117,655.000,656.000,667.000
2436.581,654.000,663.000,660.000
2438.043,662.000,660.000,658.000
2439.506,659.000,663.000,667.000
2440.969,661.000,656.000,655.000
2442.431,663.000,656.000,657.000
2443.893,653.000,659.000,663.000
2445.356,654.000,654.000,661.000
2446.818,662.000,659.000,661.000
2448.278,660.000,658.000,666.000
2449.739,652.000,654.000,654.000
2451.201,659.000,666.000,654.000
2452.660,663.000,651.000,663.000
2454.121,663.000,661.000,655.000
2455.581,659.000,659.000,663.000
2457.040,660.000,662.000,657.000
2458.500,660.000,664.000,664.000
2459.960,656.000,671.000,668.000
2461.419,657.000,658.000,650.000
2462.877,658.000,668.000,653.000
2464.336,651.000,650.000,660.000
2465.795,660.000,659.000,666.000
2467.251,658.000,653.000,655.000
2468.709,653.000,661.000,658.000
2470.167,663.000,663.000,661.000
2471.623,664.000,661.000,658.000
2473.081,660.000,647.000,659.000
2474.538,666.000,655.000,665.000
2475.995,659.000,665.000,656.000
2477.450,656.000,657.000,655.000
2478.906,660.000,652.000,664.000
2480.362,662.000,659.000,655.000
2481.816,660.000,663.000,659.000
2483.272,660.000,661.000,659.000
2484.727,658.000,667.000,653.000
2486.181,664.000,655.000,667.000
2487.636,650.000,653.000,655.000
2489.090,664.000,666.000,662.000
2490.544,666.000,662.000,657.000
2491.997,662.000,660.000,654.000
2493.450,660.000,657.000,658.000
2494.904,658.000,658.000,659.000
2496.356,655.000,665.000,661.000
2497.809,659.000,656.000,663.000
2499.261,669.000,667.000,665.000
2500.712,666.000,660.000,659.000
2502.164,652.000,658.000,661.000
2503.616,656.000,667.000,654.000
2505.068,662.000,665.000,653.000
2506.518,664.000,660.000,661.000
2507.969,666.000,665.000,659.000
2509.420,658.000,657.000,663.000
2510.869,668.000,660.000,660.000
2512.319,654.000,660.000,662.000
2513.769,662.000,655.000,662.000
2515.218,659.000,663.000,664.000
2516.667,659.000,660.000,662.000
2518.117,655.000,661.000,662.000
2519.566,660.000,662.000,659.000
2521.013,657.000,663.000,659.000
2522.461,663.000,659.000,660.000
2523.910,652.000,659.000,654.000
2525.356,664.000,662.000,663.000
2526.804,666.000,654.000,664.000
2528.252,660.000,661.000,666.000
2529.697,659.000,657.000,653.000
2531.144,656.000,666.000,667.000
2532.591,667.000,660.000,667.000
2534.038,657.000,661.000,655.000
2535.482,664.000,662.000,666.000
2536.928,662.000,661.000,655.000
2538.374,657.000,654.000,663.000
2539.818,665.000,654.000,663.000
2541.263,661.000,659.000,666.000
2542.708,655.000,659.000,664.000
2544.151,657.000,663.000,662.000
2545.596,662.000,661.000,666.000
2547.040,659.000,661.000,657.000
2548.482,654.000,661.000,650.000
2549.926,664.000,657.000,661.000
2551.369,660.000,665.000,656.000
2552.813,662.000,662.000,655.000
2554.254,665.000,667.000,655.000
2555.697,660.000,658.000,668.000
2557.139,661.000,655.000,660.000
2558.580,663.000,658.000,661.000
2560.022,662.000,662.000,659.000
2561.463,663.000,663.000,661.000
2562.903,655.000,656.000,661.000
2564.344,652.000,658.000,668.000
2565.785,663.000,661.000,661.000
2567.226,659.000,660.000,660.000
2568.664,656.000,665.000,661.000
2570.104,660.000,664.000,657.000
2571.544,658.000,666.000,664.000
2572.982,666.000,665.000,662.000
2574.422,652.000,655.000,655.000
2575.861,660.000,668.000,666.000
2577.298,665.000,649.000,661.000
2578.737,658.000,653.000,668.000
2580.175,663.000,668.000,664.000
2581.613,668.000,661.000,660.000
2583.049,657.000,666.000,662.000
2584.487,666.000,663.000,665.000
2585.924,660.000,653.000,659.000
2587.360,657.000,661.000,659.000
2588.796,663.000,659.000,657.000
2590.233,658.000,661.000,648.000
2591.668,667.000,663.000,663.000
2593.104,664.000,655.000,656.000
2594.539,655.000,659.000,667.000
2595.975,655.000,664.000,657.000
2597.409,660.000,663.000,669.000
2598.844,659.000,661.000,660.000
2600.278,667.000,661.000,665.000
2601.711,663.000,665.000,654.000
2603.145,661.000,668.000,664.000
2604.579,654.000,665.000,670.000
2606.012,664.000,661.000,665.000
2607.445,658.000,666.000,654.000
2608.878,659.000,662.000,660.000
2610.311,661.000,661.000,657.000
2611.742,657.000,667.000,659.000
2613.175,667.000,661.000,662.000
2614.607,659.000,665.000,657.000
2616.038,654.000,652.000,661.000
2617.469,655.000,662.000,661.000
2618.901,659.000,666.000,662.000
2620.330,667.000,661.000,668.000
2621.761,662.000,661.000,657.000
2623.192,659.000,667.000,655.000
2624.622,667.000,661.000,672.000
2626.051,659.000,665.000,662.000
2627.481,662.000,660.000,670.000
2628.911,662.000,654.000,661.000
2630.339,663.000,661.000,669.000
2631.768,661.000,656.000,654.000
2633.197,657.000,671.000,663.000
2634.624,662.000,652.000,663.000
2636.052,663.000,661.000,659.000
2637.480,664.000,659.000,663.000
2638.908,658.000,658.000,662.000
2640.334,662.000,666.000,659.000
2641.762,666.000,657.000,668.000
2643.189,660.000,652.000,671.000
2644.614,670.000,666.000,663.000
2646.041,664.000,667.000,657.000
2647.467,659.000,656.000,660.000
2648.892,664.000,669.000,659.000
2650.318,662.000,659.000,656.000
2651.744,662.000,663.000,658.000
2653.169,659.000,666.000,660.000
2654.593,664.000,666.000,657.000
2656.017,653.000,657.000,657.000
2657.442,660.000,661.000,662.000
2658.865,663.000,664.000,654.000
2660.289,656.000,660.000,666.000
2661.713,669.000,659.000,662.000
2663.135,667.000,662.000,662.000
2664.558,665.000,665.000,657.000
2665.982,664.000,659.000,671.000
2667.404,660.000,662.000,669.000
2668.826,665.000,655.000,663.000
2670.248,659.000,671.000,659.000
2671.670,658.000,663.000,662.000
2673.090,671.000,659.000,674.000
2674.512,662.000,663.000,664.000
2675.933,668.000,663.000,663.000
2677.353,658.000,666.000,662.000
2678.774,661.000,663.000,666.000
2680.194,660.000,666.000,665.000
2681.613,659.000,668.000,665.000
2683.033,656.000,663.000,666.000
2684.453,665.000,664.000,661.000
2685.873,657.000,666.000,666.000
2687.291,658.000,662.000,664.000
2688.710,668.000,654.000,662.000
2690.129,667.000,660.000,670.000
2691.546,660.000,659.000,670.000
2692.964,666.000,664.000,658.000
2694.382,657.000,660.000,659.000
2695.799,662.000,656.000,676.000
2697.216,666.000,669.000,658.000
2698.634,664.000,659.000,671.000
2700.051,648.000,660.000,661.000
2701.466,662.000,660.000,660.000
2702.883,660.000,667.000,667.000
2704.299,665.000,665.000,666.000
2705.714,660.000,663.000,663.000
2707.130,667.000,663.000,658.000
2708.545,661.000,661.000,652.000
2709.959,658.000,660.000,661.000
2711.374,663.000,661.000,672.000
2712.789,670.000,656.000,663.000
2714.204,664.000,661.000,656.000
2715.617,658.000,667.000,666.000
2717.031,664.000,654.000,663.000
2718.445,658.000,666.000,664.000
2719.857,659.000,666.000,663.000
2721.270,665.000,667.000,665.000
2722.683,662.000,663.000,651.000
2724.095,664.000,664.000,669.000
2725.507,662.000,656.000,657.000
2726.920,654.000,665.000,667.000
2728.332,675.000,663.000,660.000
2729.742,662.000,666.000,662.000
2731.154,658.000,658.000,661.000
2732.565,663.000,655.000,660.000
2733.975,662.000,666.000,669.000
2735.386,652.000,662.000,665.000
2736.797,667.000,664.000,662.000
2738.205,659.000,667.000,663.000
2739.616,665.000,660.000,665.000
2741.026,656.000,662.000,659.000
2742.435,664.000,663.000,663.000
2743.843,666.000,663.000,663.000
2745.252,665.000,663.000,657.000
2746.661,664.000,672.000,660.000
2748.068,657.000,662.000,661.000
2749.477,663.000,665.000,671.000
2750.885,666.000,660.000,663.000
2752.291,671.000,663.000,662.000
2753.699,664.000,668.000,663.000
2755.107,663.000,659.000,659.000
2756.514,657.000,671.000,662.000
2757.919,654.000,664.000,661.000
2759.326,670.000,670.000,668.000
2760.732,657.000,663.000,667.000
2762.137,663.000,663.000,664.000
2763.543,657.000,657.000,668.000
2764.949,659.000,668.000,666.000
2766.353,664.000,654.000,666.000
2767.758,663.000,668.000,665.000
2769.163,663.000,657.000,657.000
2770.568,661.000,659.000,658.000
2771.971,665.000,668.000,667.000
2773.375,660.000,662.000,662.000
2774.779,660.000,658.000,663.000
2776.181,660.000,675.000,669.000
2777.585,663.000,665.000,665.000
2778.988,654.000,668.000,666.000
2780.389,663.000,667.000,664.000
2781.792,662.000,663.000,663.000
2783.195,658.000,666.000,654.000
2784.595,659.000,667.000,657.000
2785.997,666.000,664.000,662.000
2787.399,664.000,664.000,655.000
2788.801,665.000,667.000,667.000
2790.201,662.000,660.000,663.000
2791.602,665.000,665.000,666.000
2793.002,666.000,661.000,671.000
2794.401,663.000,662.000,660.000
2795.802,667.000,662.000,666.000
2797.202,671.000,671.000,659.000
2798.602,668.000,667.000,669.000
2800.000,667.000,670.000,666.000
2801.399,667.000,671.000,661.000
2802.798,665.000,657.000,662.000
2804.195,669.000,664.000,662.000
2805.594,659.000,673.000,658.000
2806.992,663.000,661.000,663.000
2808.389,666.000,667.000,672.000
2809.787,664.000,656.000,671.000
2811.185,661.000,669.000,665.000
2812.580,668.000,664.000,654.000
2813.978,664.000,671.000,664.000
2815.374,656.000,675.000,665.000
2816.771,672.000,655.000,660.000
2818.166,654.000,662.000,656.000
2819.562,660.000,665.000,666.000
2820.958,666.000,668.000,674.000
2822.352,671.000,662.000,666.000
2823.748,669.000,670.000,663.000
2825.143,660.000,672.000,667.000
2826.536,659.000,661.000,660.000
2827.931,668.000,659.000,670.000
2829.325,657.000,665.000,661.000
2830.720,655.000,659.000,668.000
2832.112,661.000,656.000,659.000
2833.506,665.000,669.000,664.000
2834.899,668.000,666.000,670.000
2836.291,661.000,667.000,659.000
2837.684,667.000,665.000,666.000
2839.077,669.000,655.000,660.000
2840.468,664.000,663.000,671.000
2841.860,663.000,669.000,660.000
2843.252,664.000,662.000,665.000
2844.644,668.000,664.000,663.000
2846.034,663.000,662.000,672.000
2847.425,665.000,662.000,664.000
2848.816,660.000,664.000,666.000
2850.206,661.000,666.000,667.000
2851.596,667.000,670.000,670.000
2852.986,664.000,665.000,666.000
2854.375,657.000,661.000,658.000
2855.765,665.000,658.000,662.000
2857.154,667.000,677.000,661.000
2858.544,666.000,663.000,676.000
2859.931,668.000,666.000,665.000
2861.320,659.000,662.000,667.000
2862.709,665.000,663.000,666.000
2864.096,668.000,663.000,665.000
2865.484,665.000,663.000,673.000
2866.872,666.000,672.000,661.000
2868.258,658.000,667.000,662.000
2869.645,668.000,667.000,669.000
2871.033,651.000,661.000,666.000
2872.420,663.000,666.000,665.000
2873.805,660.000,659.000,663.000
2875.191,664.000,661.000,668.000
2876.577,667.000,664.000,671.000
2877.962,667.000,665.000,668.000
2879.348,656.000,667.000,663.000
2880.733,665.000,667.000,662.000
2882.117,663.000,663.000,674.000
2883.502,657.000,675.000,661.000
2884.887,666.000,663.000,677.000
2886.271,656.000,665.000,658.000
2887.654,663.000,667.000,662.000
2889.038,662.000,653.000,667.000
2890.422,675.000,662.000,670.000
2891.804,679.000,664.000,664.000
2893.187,662.000,665.000,659.000
2894.570,666.000,653.000,671.000
2895.952,666.000,663.000,663.000
2897.334,667.000,665.000,670.000
2898.717,662.000,667.000,665.000
2900.099,662.000,673.000,671.000
2901.479,668.000,659.000,660.000
2902.861,667.000,659.000,676.000
2904.242,658.000,656.000,668.000
2905.622,661.000,659.000,667.000
2907.003,660.000,659.000,668.000
2908.383,666.000,663.000,670.000
2909.762,670.000,670.000,669.000
2911.143,663.000,659.000,664.000
2912.523,665.000,656.000,666.000
2913.901,658.000,662.000,675.000
2915.280,659.000,664.000,663.000
2916.659,658.000,667.000,663.000
2918.038,666.000,665.000,664.000
2919.416,666.000,665.000,659.000
2920.794,661.000,661.000,672.000
2922.173,672.000,658.000,665.000
2923.549,661.000,665.000,663.000
2924.927,663.000,667.000,669.000
2926.304,653.000,662.000,660.000
2927.682,669.000,668.000,671.000
2929.057,654.000,667.000,668.000
2930.434,663.000,664.000,662.000
2931.811,665.000,661.000,663.000
2933.186,662.000,668.000,668.000
2934.562,670.000,663.000,668.000
2935.938,664.000,667.000,665.000
2937.312,661.000,662.000,667.000
2938.687,674.000,665.000,661.000
2940.063,669.000,666.000,668.000
2941.436,666.000,661.000,665.000
2942.811,666.000,659.000,669.000
2944.185,664.000,662.000,671.000
2945.559,660.000,668.000,672.000
2946.932,667.000,671.000,667.000
2948.306,664.000,659.000,661.000
2949.679,666.000,666.000,670.000
2951.051,672.000,667.000,666.000
2952.424,658.000,665.000,660.000
2953.797,661.000,655.000,663.000
2955.168,660.000,663.000,660.000
2956.540,668.000,680.000,677.000
2957.912,662.000,664.000,664.000
2959.284,667.000,663.000,665.000
2960.654,659.000,665.000,665.000
2962.026,661.000,659.000,674.000
2963.397,667.000,665.000,665.000
2964.766,665.000,665.000,672.000
2966.137,660.000,664.000,665.000
2967.507,669.000,669.000,660.000
2968.876,664.000,666.000,656.000
2970.246,671.000,658.000,668.000
2971.616,663.000,665.000,668.000
2972.985,668.000,669.000,666.000
2974.353,667.000,664.000,666.000
2975.722,665.000,669.000,667.000
2977.091,662.000,669.000,667.000
2978.458,670.000,667.000,658.000
2979.826,661.000,666.000,665.000
2981.194,663.000,672.000,664.000
2982.560,670.000,667.000,669.000
2983.928,661.000,662.000,660.000
2985.295,662.000,667.000,664.000
2986.662,669.000,658.000,661.000
2988.028,663.000,664.000,665.000
2989.394,671.000,659.000,666.000
2990.761,659.000,668.000,662.000
2992.125,667.000,661.000,664.000
2993.491,666.000,663.000,664.000
2994.857,670.000,667.000,673.000
2996.221,663.000,660.000,673.000
2997.586,661.000,664.000,671.000
2998.951,665.000,666.000,675.000
3000.316,669.000,665.000,663.000
3001.679,656.000,665.000,666.000
3003.043,661.000,658.000,659.000
3004.407,661.000,659.000,671.000
3005.770,652.000,669.000,662.000
3007.133,662.000,664.000,665.000
3008.497,663.000,664.000,670.000
3009.858,663.000,665.000,664.000
3011.221,660.000,670.000,669.000
3012.584,667.000,662.000,673.000
3013.946,667.000,670.000,666.000
3015.307,668.000,655.000,668.000
3016.669,666.000,655.000,676.000
3018.030,665.000,666.000,669.000
3019.390,670.000,662.000,667.000
3020.752,661.000,668.000,667.000
3022.113,662.000,669.000,670.000
3023.472,666.000,666.000,665.000
3024.832,664.000,657.000,662.000
3026.193,668.000,670.000,666.000
3027.553,661.000,666.000,662.000
3028.911,663.000,667.000,670.000
3030.271,664.000,659.000,653.000
3031.630,664.000,665.000,662.000
3032.988,669.000,660.000,659.000
3034.347,668.000,670.000,660.000
3035.705,660.000,664.000,664.000
3037.062,664.000,667.000,665.000
3038.420,671.000,666.000,667.000
3039.778,668.000,671.000,663.000
3041.134,668.000,665.000,677.000
3042.492,665.000,666.000,664.000
3043.849,662.000,664.000,669.000
3045.206,670.000,666.000,667.000
3046.561,659.000,665.000,667.000
3047.918,668.000,673.000,662.000
3049.274,662.000,671.000,670.000
3050.629,663.000,659.000,667.000
3051.985,661.000,667.000,663.000
3053.340,660.000,664.000,661.000
3054.696,667.000,663.000,667.000
3056.049,660.000,671.000,667.000
3057.404,672.000,657.000,665.000
3058.759,665.000,664.000,676.000
3060.112,666.000,661.000,666.000
3061.466,667.000,660.000,664.000
3062.820,672.000,670.000,665.000
3064.172,662.000,668.000,667.000
3065.526,661.000,663.000,659.000
3066.879,671.000,670.000,667.000
3068.231,652.000,661.000,661.000
3069.583,669.000,669.000,672.000
3070.936,666.000,665.000,671.000
3072.288,660.000,663.000,659.000
3073.639,675.000,667.000,668.000
3074.991,666.000,664.000,671.000
3076.343,664.000,669.000,662.000
3077.693,667.000,667.000,662.000
3079.044,668.000,665.000,671.000
3080.395,664.000,670.000,669.000
3081.744,668.000,664.000,664.000
3083.094,663.000,667.000,665.000
3084.445,660.000,665.000,665.000
3085.795,671.000,667.000,661.000
3087.143,661.000,675.000,661.000
3088.493,662.000,668.000,673.000
3089.842,660.000,676.000,666.000
3091.189,666.000,669.000,663.000
3092.538,667.000,661.000,672.000
3093.887,670.000,664.000,663.000
3095.234,664.000,672.000,669.000
3096.582,668.000,665.000,662.000
3097.930,667.000,661.000,665.000
3099.278,664.000,667.000,667.000
3100.624,670.000,671.000,663.000
3101.971,664.000,662.000,672.000
3103.318,662.000,659.000,667.000
3104.663,663.000,678.000,672.000
3106.010,660.000,656.000,672.000
3107.356,668.000,663.000,664.000
3108.701,662.000,677.000,670.000
3110.047,669.000,666.000,667.000
3111.392,668.000,675.000,667.000
3112.738,663.000,659.000,667.000
3114.081,664.000,657.000,669.000
3115.426,665.000,668.000,674.000
3116.771,665.000,661.000,670.000
3118.114,664.000,666.000,666.000
3119.458,666.000,660.000,671.000
3120.802,657.000,669.000,667.000
3122.145,664.000,664.000,657.000
3123.488,669.000,666.000,668.000
3124.831,665.000,675.000,665.000
3126.175,668.000,653.000,657.000
3127.516,663.000,671.000,666.000
3128.859,668.000,664.000,668.000
3130.201,671.000,671.000,669.000
3131.542,668.000,669.000,663.000
3132.884,659.000,665.000,665.000
3134.225,666.000,671.000,663.000
3135.565,662.000,667.000,666.000
3136.907,659.000,673.000,663.000
3138.248,661.000,661.000,657.000
3139.587,673.000,668.000,669.000
3140.927,662.000,663.000,668.000
3142.268,662.000,667.000,656.000
3143.608,660.000,674.000,662.000
3144.946,659.000,671.000,672.000
3146.286,662.000,663.000,669.000
3147.625,661.000,659.000,664.000
3148.963,665.000,669.000,673.000
3150.302,667.000,665.000,658.000
3151.641,664.000,667.000,665.000
3152.979,669.000,656.000,664.000
3154.316,658.000,671.000,669.000
3155.654,671.000,666.000,661.000
3156.992,671.000,671.000,662.000
3158.328,674.000,674.000,667.000
3159.665,665.000,664.000,663.000
3161.003,666.000,663.000,678.000
3162.338,663.000,668.000,663.000
3163.675,663.000,666.000,664.000
3165.011,664.000,667.000,671.000
3166.346,663.000,670.000,664.000
3167.682,665.000,667.000,671.000
3169.018,667.000,662.000,661.000
3170.353,669.000,661.000,676.000
3171.687,672.000,666.000,661.000
3173.022,663.000,663.000,662.000
3174.357,670.000,672.000,666.000
3175.690,667.000,668.000,666.000
3177.024,663.000,665.000,661.000
3178.359,674.000,670.000,660.000
3179.693,664.000,667.000,663.000
3181.025,673.000,666.000,666.000
3182.358,672.000,667.000,667.000
3183.692,662.000,671.000,672.000
3185.023,667.000,664.000,662.000
3186.356,656.000,665.000,667.000
3187.688,665.000,672.000,668.000
3189.019,656.000,658.000,669.000
3190.351,672.000,662.000,662.000
3191.683,675.000,671.000,660.000
3193.014,669.000,664.000,671.000
3194.345,671.000,665.000,669.000
3195.676,665.000,663.000,669.000
3197.007,665.000,662.000,666.000
3198.336,674.000,657.000,663.000
3199.667,666.000,665.000,674.000
3200.997,664.000,675.000,662.000
3202.326,672.000,665.000,672.000
3203.656,667.000,669.000,666.000
3204.985,662.000,660.000,664.000
3206.315,670.000,667.000,666.000
3207.642,666.000,675.000,663.000
3208.971,684.000,666.000,657.000
3210.300,669.000,668.000,666.000
3211.627,663.000,660.000,667.000
3212.955,669.000,668.000,659.000
3214.283,670.000,661.000,666.000
3215.610,664.000,665.000,660.000
3216.937,668.000,669.000,666.000
3218.265,665.000,663.000,667.000
3219.590,658.000,667.000,670.000
3220.917,669.000,663.000,670.000
3222.244,663.000,669.000,674.000
3223.570,672.000,672.000,667.000
3224.895,665.000,665.000,664.000
3226.221,668.000,675.000,668.000
3227.547,660.000,669.000,672.000
3228.871,671.000,670.000,664.000
3230.196,665.000,666.000,672.000
3231.521,663.000,663.000,671.000
3232.845,672.000,664.000,668.000
3234.170,666.000,665.000,668.000
3235.494,671.000,667.000,675.000
3236.818,662.000,676.000,672.000
3238.141,666.000,661.000,667.000
3239.464,667.000,662.000,667.000
3240.788,666.000,666.000,674.000
3242.110,668.000,665.000,670.000
3243.433,666.000,666.000,658.000
3244.756,669.000,665.000,667.000
3246.077,670.000,667.000,670.000
3247.399,657.000,674.000,664.000
3248.721,664.000,669.000,671.000
3250.043,672.000,664.000,666.000
3251.364,666.000,670.000,661.000
3252.685,666.000,664.000,671.000
3254.006,659.000,664.000,664.000
3255.326,673.000,662.000,667.000
3256.647,673.000,667.000,670.000
3257.967,671.000,668.000,666.000
3259.286,659.000,668.000,666.000
3260.606,667.000,668.000,662.000
3261.926,664.000,664.000,665.000
3263.245,663.000,667.000,669.000
3264.564,666.000,668.000,663.000
3265.883,671.000,664.000,662.000
3267.202,663.000,671.000,673.000
3268.520,659.000,665.000,662.000
3269.838,671.000,675.000,663.000
3271.157,663.000,670.000,661.000
3272.473,666.000,665.000,675.000
3273.791,659.000,668.000,665.000
3275.109,669.000,663.000,671.000
3276.426,672.000,664.000,663.000
3277.742,664.000,669.000,673.000
3279.059,664.000,657.000,678.000
3280.376,665.000,667.000,670.000
3281.691,668.000,669.000,662.000
3283.007,669.000,669.000,669.000
3284.324,673.000,664.000,674.000
3285.638,662.000,665.000,665.000
3286.954,669.000,670.000,666.000
3288.269,665.000,667.000,667.000
3289.583,674.000,670.000,681.000
3290.898,665.000,670.000,663.000
3292.213,665.000,666.000,666.000
3293.527,671.000,670.000,666.000
3294.840,676.000,672.000,666.000
3296.154,668.000,673.000,682.000
3297.468,661.000,662.000,674.000
3298.780,674.000,667.000,663.000
3300.094,675.000,666.000,663.000
3301.407,662.000,670.000,662.000
3302.720,674.000,666.000,674.000
3304.031,664.000,656.000,671.000
3305.344,671.000,662.000,668.000
3306.656,673.000,674.000,671.000
3307.967,658.000,672.000,668.000
3309.279,667.000,672.000,668.000
3310.591,675.000,675.000,667.000
3311.901,663.000,666.000,668.000
3313.212,661.000,674.000,667.000
3314.523,666.000,655.000,667.000
3315.832,675.000,656.000,666.000
3317.143,674.000,658.000,661.000
3318.453,666.000,670.000,673.000
3319.763,665.000,667.000,666.000
3321.072,667.000,665.000,662.000
3322.381,665.000,666.000,670.000
3323.691,671.000,663.000,665.000
3324.998,664.000,670.000,668.000
3326.307,661.000,673.000,671.000
3327.616,668.000,665.000,670.000
3328.925,668.000,669.000,668.000
3330.232,663.000,666.000,667.000
3331.540,668.000,672.000,663.000
3332.848,667.000,670.000,671.000
3334.154,669.000,660.000,666.000
3335.461,668.000,660.000,663.000
3336.769,665.000,679.000,664.000
3338.074,671.000,664.000,674.000
3339.381,664.000,673.000,680.000
3340.688,665.000,671.000,666.000
3341.993,664.000,672.000,671.000
3343.299,675.000,673.000,666.000
3344.605,669.000,664.000,669.000
3345.910,663.000,669.000,669.000
3347.214,664.000,662.000,676.000
3348.520,659.000,655.000,672.000
3349.825,669.000,661.000,669.000
3351.128,667.000,673.000,670.000
3352.433,666.000,677.000,671.000
3353.737,662.000,668.000,658.000
3355.040,667.000,674.000,671.000
3356.344,661.000,663.000,663.000
3357.647,673.000,670.000,668.000
3358.951,667.000,668.000,663.000
3360.253,670.000,669.000,664.000
3361.556,672.000,668.000,669.000
3362.858,674.000,667.000,673.000
3364.160,672.000,667.000,667.000
3365.462,673.000,667.000,670.000
3366.764,661.000,663.000,669.000
3368.065,666.000,667.000,660.000
3369.366,662.000,665.000,667.000
3370.668,670.000,665.000,670.000
3371.969,659.000,659.000,667.000
3373.269,668.000,667.000,667.000
3374.570,669.000,662.000,673.000
3375.870,668.000,670.000,663.000
3377.169,674.000,666.000,671.000
3378.470,677.000,663.000,670.000
3379.770,665.000,679.000,665.000
3381.068,667.000,667.000,662.000
3382.367,660.000,678.000,679.000
3383.667,663.000,662.000,670.000
3384.964,666.000,675.000,665.000
3386.263,669.000,672.000,669.000
3387.562,665.000,666.000,663.000
3388.860,664.000,668.000,663.000
3390.157,671.000,666.000,671.000
3391.455,670.000,666.000,663.000
3392.753,667.000,668.000,665.000
3394.049,668.000,665.000,665.000
3395.346,673.000,659.000,664.000
3396.644,680.000,674.000,670.000
3397.940,670.000,668.000,660.000
3399.236,662.000,671.000,663.000
3400.532,660.000,668.000,667.000
3401.828,666.000,665.000,674.000
3403.123,664.000,678.000,669.000
3404.419,660.000,667.000,662.000
3405.715,671.000,669.000,673.000
3407.008,670.000,669.000,669.000
3408.304,674.000,678.000,667.000
3409.599,678.000,667.000,667.000
3410.892,669.000,673.000,666.000
3412.186,665.000,667.000,663.000
3413.481,670.000,668.000,664.000
3414.775,666.000,664.000,659.000
3416.067,673.000,678.000,662.000
3417.361,675.000,666.000,668.000
3418.654,670.000,671.000,665.000
3419.946,670.000,660.000,667.000
3421.239,665.000,677.000,664.000
3422.532,664.000,662.000,673.000
3423.824,670.000,660.000,674.000
3425.115,668.000,671.000,660.000
3426.407,665.000,668.000,670.000
3427.699,671.000,676.000,673.000
3428.990,666.000,662.000,665.000
3430.281,666.000,663.000,674.000
3431.572,671.000,669.000,670.000
3432.862,676.000,674.000,671.000
3434.153,667.000,668.000,667.000
3435.443,664.000,680.000,669.000
3436.732,664.000,664.000,678.000
3438.022,668.000,677.000,679.000
3439.312,673.000,662.000,661.000
3440.602,672.000,667.000,673.000
3441.890,666.000,676.000,670.000
3443.180,671.000,667.000,674.000
3444.469,672.000,670.000,666.000
3445.756,669.000,670.000,660.000
3447.045,664.000,674.000,668.000
3448.333,666.000,664.000,668.000
3449.621,672.000,670.000,671.000
3450.908,671.000,675.000,659.000
3452.196,674.000,663.000,676.000
3453.483,667.000,673.000,668.000
3454.769,681.000,668.000,664.000
3456.056,667.000,665.000,671.000
3457.343,674.000,670.000,664.000
3458.629,663.000,669.000,670.000
3459.915,666.000,674.000,667.000
3461.201,664.000,672.000,670.000
3462.486,673.000,672.000,676.000
3463.772,665.000,661.000,662.000
3465.058,672.000,672.000,664.000
3466.343,673.000,669.000,664.000
3467.627,677.000,672.000,677.000
3468.912,670.000,676.000,667.000
3470.197,669.000,673.000,674.000
3471.480,667.000,668.000,668.000
3472.764,666.000,667.000,669.000
3474.048,669.000,665.000,667.000
3475.331,666.000,668.000,672.000
3476.614,670.000,662.000,670.000
3477.898,673.000,663.000,662.000
3479.181,669.000,672.000,665.000
3480.463,664.000,676.000,675.000
3481.746,669.000,668.000,660.000
3483.028,671.000,670.000,665.000
3484.309,669.000,669.000,670.000
3485.591,675.000,674.000,665.000
3486.873,671.000,666.000,679.000
3488.154,672.000,665.000,674.000
3489.435,674.000,668.000,672.000
3490.717,672.000,663.000,673.000
3491.998,663.000,676.000,660.000
3493.277,671.000,671.000,667.000
3494.558,671.000,674.000,669.000
3495.838,670.000,680.000,663.000
3497.117,666.000,665.000,675.000
3498.397,669.000,676.000,668.000
3499.677,671.000,665.000,669.000
3500.955,671.000,669.000,673.000
3502.235,673.000,667.000,668.000
3503.514,663.000,664.000,669.000
3504.791,667.000,670.000,673.000
3506.070,680.000,664.000,663.000
3507.349,673.000,669.000,670.000
3508.627,673.000,678.000,668.000
3509.904,677.000,676.000,667.000
3511.182,672.000,669.000,680.000
3512.459,668.000,669.000,671.000
3513.735,669.000,674.000,665.000
3515.013,669.000,664.000,673.000
3516.290,668.000,665.000,668.000
3517.567,668.000,675.000,677.000
3518.842,672.000,669.000,671.000
3520.118,675.000,682.000,681.000
3521.394,667.000,667.000,678.000
3522.669,678.000,673.000,670.000
3523.945,671.000,676.000,678.000
3525.220,668.000,671.000,675.000
3526.494,665.000,682.000,659.000
3527.769,671.000,672.000,677.000
3529.044,666.000,668.000,671.000
3530.318,672.000,680.000,681.000
3531.592,663.000,674.000,678.000
3532.866,668.000,663.000,671.000
3534.141,671.000,679.000,675.000
3535.413,677.000,673.000,669.000
3536.687,675.000,669.000,664.000
3537.960,675.000,670.000,671.000
3539.232,673.000,670.000,666.000
3540.505,670.000,666.000,674.000
3541.778,679.000,677.000,668.000
3543.050,673.000,680.000,673.000
3544.321,679.000,677.000,670.000
3545.593,677.000,671.000,669.000
3546.865,667.000,667.000,670.000
3548.136,672.000,676.000,667.000
3549.407,671.000,677.000,679.000
3550.679,670.000,670.000,672.000
3551.948,676.000,679.000,669.000
3553.219,678.000,662.000,678.000
3554.490,671.000,668.000,677.000
3555.759,676.000,673.000,2016.000
3557.029,663.000,668.000,731.000
3558.299,674.000,667.000,676.000
3559.569,675.000,676.000,677.000
3560.837,667.000,664.000,676.000
3562.107,671.000,676.000,672.000
3563.376,672.000,671.000,672.000
3564.643,668.000,669.000,667.000
3565.912,674.000,671.000,666.000
3567.181,674.000,673.000,686.000
3568.449,668.000,661.000,678.000
3569.716,667.000,669.000,682.000
3570.984,669.000,663.000,679.000
3572.251,689.000,674.000,676.000
3573.518,671.000,665.000,686.000
3574.785,668.000,675.000,677.000
3576.052,665.000,677.000,675.000
3577.317,668.000,678.000,676.000
3578.584,668.000,673.000,665.000
3579.851,674.000,671.000,680.000
3581.115,676.000,673.000,668.000
3582.381,679.000,677.000,674.000
3583.647,680.000,663.000,662.000
3584.913,677.000,677.000,668.000
3586.177,666.000,674.000,676.000
3587.442,672.000,674.000,668.000
3588.707,672.000,674.000,668.000
3589.970,674.000,677.000,679.000
3591.235,677.000,683.000,669.000
3592.499,667.000,671.000,674.000
3593.762,662.000,672.000,676.000
3595.026,671.000,671.000,673.000
3596.290,671.000,681.000,672.000
3597.553,673.000,667.000,676.000
3598.815,672.000,672.000,680.000
3600.078,667.000,669.000,685.000
3601.341,671.000,674.000,677.000
3602.602,686.000,683.000,678.000
3603.865,670.000,672.000,662.000
3605.127,675.000,666.000,680.000
3606.388,663.000,676.000,673.000
3607.649,677.000,674.000,674.000
3608.911,675.000,675.000,673.000
3610.173,668.000,671.000,680.000
3611.432,677.000,669.000,676.000
3612.693,671.000,683.000,676.000
3613.954,680.000,676.000,1313.000
3615.213,671.000,666.000,2861.000
3616.474,666.000,689.000,1599.000
3617.734,677.000,673.000,692.000
3618.992,684.000,670.000,672.000
3620.252,681.000,679.000,677.000
3621.512,678.000,681.000,674.000
3622.770,680.000,672.000,670.000
3624.029,688.000,672.000,667.000
3625.288,668.000,677.000,672.000
3626.546,672.000,682.000,671.000
3627.803,677.000,682.000,667.000
3629.062,675.000,677.000,678.000
3630.320,668.000,684.000,674.000
3631.576,673.000,674.000,685.000
3632.834,674.000,676.000,671.000
3634.091,683.000,674.000,676.000
3635.348,673.000,682.000,680.000
3636.604,671.000,681.000,680.000
3637.861,672.000,673.000,681.000
3639.118,668.000,664.000,680.000
3640.373,680.000,680.000,675.000
3641.629,676.000,675.000,679.000
3642.885,682.000,677.000,677.000
3644.139,674.000,690.000,681.000
3645.395,678.000,669.000,677.000
3646.650,687.000,683.000,684.000
3647.904,670.000,680.000,677.000
3649.159,678.000,683.000,683.000
3650.413,676.000,672.000,685.000
3651.668,681.000,683.000,680.000
3652.921,676.000,678.000,680.000
3654.175,676.000,682.000,678.000
3655.429,683.000,674.000,676.000
3656.681,675.000,682.000,678.000
3657.935,680.000,675.000,691.000
3659.188,681.000,676.000,672.000
3660.441,686.000,672.000,682.000
3661.693,676.000,680.000,686.000
3662.945,671.000,696.000,690.000
3664.198,685.000,684.000,678.000
3665.449,674.000,685.000,683.000
3666.701,685.000,684.000,687.000