File: Raman/Silica/2022_12_08_Qtz_355nm_UnPol_11mW_750mm_1200gv_0wn_iDus_1s_1accum_50x_Mit_UV_Lens.csv
-1149.966,632.000
-1147.631,633.000
-1145.300,642.000
-1142.966,636.000
-1140.635,635.000
-1138.302,640.000
-1135.969,638.000
-1133.639,632.000
-1131.308,636.000
-1128.979,637.000
-1126.647,633.000
-1124.316,634.000
-1121.989,640.000
-1119.659,641.000
-1117.331,637.000
-1115.002,632.000
-1112.673,640.000
-1110.347,639.000
-1108.019,636.000
-1105.694,644.000
-1103.366,635.000
-1101.039,640.000
-1098.715,632.000
-1096.388,639.000
-1094.065,640.000
-1091.739,639.000
-1089.414,643.000
-1087.092,639.000
-1084.767,640.000
-1082.443,638.000
-1080.122,634.000
-1077.798,633.000
-1075.478,639.000
-1073.155,638.000
-1070.833,643.000
-1068.514,637.000
-1066.192,634.000
-1063.873,639.000
-1061.552,637.000
-1059.232,641.000
-1056.914,637.000
-1054.595,642.000
-1052.278,638.000
-1049.959,638.000
-1047.640,632.000
-1045.325,639.000
-1043.007,634.000
-1040.692,632.000
-1038.375,639.000
-1036.058,633.000
-1033.744,643.000
-1031.428,641.000
-1029.115,635.000
-1026.799,642.000
-1024.484,632.000
-1022.172,634.000
-1019.858,641.000
-1017.547,635.000
-1015.233,639.000
-1012.920,635.000
-1010.610,637.000
-1008.298,641.000
-1005.988,638.000
-1003.676,645.000
-1001.365,637.000
-999.057,640.000
-996.746,643.000
-994.439,643.000
-992.129,635.000
-989.819,635.000
-987.513,638.000
-985.204,635.000
-982.898,636.000
-980.590,639.000
-978.283,641.000
-975.978,636.000
-973.671,639.000
-971.364,640.000
-969.061,637.000
-966.755,643.000
-964.452,642.000
-962.147,643.000
-959.842,639.000
-957.540,639.000
-955.236,641.000
-952.935,638.000
-950.632,627.000
-948.329,638.000
-946.029,638.000
-943.727,637.000
-941.428,638.000
-939.126,640.000
-936.825,643.000
-934.527,644.000
-932.227,637.000
-929.929,639.000
-927.630,639.000
-925.330,640.000
-923.034,635.000
-920.735,636.000
-918.440,638.000
-916.142,638.000
-913.845,639.000
-911.550,636.000
-909.253,637.000
-906.959,637.000
-904.663,644.000
-902.368,643.000
-900.075,645.000
-897.780,637.000
-895.488,643.000
-893.194,635.000
-890.900,639.000
-888.609,644.000
-886.316,642.000
-884.026,643.000
-881.734,635.000
-879.442,637.000
-877.152,642.000
-874.861,639.000
-872.573,638.000
-870.282,636.000
-867.992,637.000
-865.705,638.000
-863.415,633.000
-861.126,638.000
-858.840,641.000
-856.551,641.000
-854.266,639.000
-851.978,643.000
-849.691,630.000
-847.406,637.000
-845.120,633.000
-842.836,645.000
-840.550,638.000
-838.265,635.000
-835.982,637.000
-833.697,643.000
-831.415,642.000
-829.131,640.000
-826.848,635.000
-824.567,639.000
-822.284,640.000
-820.004,639.000
-817.721,636.000
-815.439,638.000
-813.160,636.000
-810.879,644.000
-808.601,632.000
-806.320,641.000
-804.040,637.000
-801.763,643.000
-799.484,644.000
-797.207,639.000
-794.928,641.000
-792.650,642.000
-790.375,640.000
-788.097,638.000
-785.822,647.000
-783.545,636.000
-781.269,637.000
-778.995,637.000
-776.719,641.000
-774.446,638.000
-772.171,639.000
-769.896,637.000
-767.624,641.000
-765.350,636.000
-763.077,638.000
-760.806,639.000
-758.533,639.000
-756.263,635.000
-753.991,642.000
-751.719,640.000
-749.450,639.000
-747.178,645.000
-744.910,644.000
-742.640,637.000
-740.370,642.000
-738.102,640.000
-735.833,640.000
-733.566,634.000
-731.298,639.000
-729.029,644.000
-726.764,640.000
-724.496,639.000
-722.231,643.000
-719.965,639.000
-717.698,639.000
-715.434,640.000
-713.168,639.000
-710.905,638.000
-708.640,633.000
-706.375,632.000
-704.114,635.000
-701.850,638.000
-699.588,636.000
-697.325,635.000
-695.062,636.000
-692.802,645.000
-690.539,637.000
-688.280,632.000
-686.018,637.000
-683.757,641.000
-681.499,640.000
-679.238,639.000
-676.981,643.000
-674.721,643.000
-672.461,639.000
-670.205,637.000
-667.946,640.000
-665.690,642.000
-663.432,639.000
-661.174,639.000
-658.919,633.000
-656.662,642.000
-654.408,639.000
-652.152,638.000
-649.896,642.000
-647.643,637.000
-645.388,639.000
-643.133,641.000
-640.881,641.000
-638.627,638.000
-636.375,645.000
-634.122,633.000
-631.869,637.000
-629.619,641.000
-627.366,639.000
-625.117,639.000
-622.865,643.000
-620.613,635.000
-618.365,640.000
-616.114,639.000
-613.867,643.000
-611.617,642.000
-609.367,639.000
-607.120,642.000
-604.871,641.000
-602.625,642.000
-600.377,640.000
-598.129,637.000
-595.884,639.000
-593.637,639.000
-591.393,635.000
-589.146,637.000
-586.900,641.000
-584.657,648.000
-582.412,641.000
-580.169,637.000
-577.925,639.000
-575.680,641.000
-573.439,642.000
-571.195,641.000
-568.954,636.000
-566.711,630.000
-564.469,637.000
-562.229,637.000
-559.987,637.000
-557.748,637.000
-555.507,641.000
-553.266,638.000
-551.028,636.000
-548.788,644.000
-546.551,640.000
-544.311,641.000
-542.072,638.000
-539.836,636.000
-537.597,638.000
-535.359,639.000
-533.124,631.000
-530.887,645.000
-528.652,637.000
-526.416,641.000
-524.179,640.000
-521.946,633.000
-519.710,639.000
-517.478,636.000
-515.243,641.000
-513.008,640.000
-510.776,641.000
-508.543,634.000
-506.312,642.000
-504.078,645.000
-501.846,638.000
-499.616,637.000
-497.383,642.000
-495.154,637.000
-492.923,642.000
-490.692,632.000
-488.463,644.000
-486.233,640.000
-484.005,639.000
-481.776,636.000
-479.546,645.000
-477.320,640.000
-475.091,638.000
-472.865,632.000
-470.637,643.000
-468.410,636.000
-466.185,638.000
-463.958,645.000
-461.734,632.000
-459.508,633.000
-457.282,640.000
-455.059,644.000
-452.834,636.000
-450.611,639.000
-448.387,642.000
-446.163,638.000
-443.941,637.000
-441.718,633.000
-439.497,638.000
-437.274,638.000
-435.052,630.000
-432.832,630.000
-430.611,636.000
-428.392,636.000
-426.171,634.000
-423.950,636.000
-421.732,642.000
-419.512,637.000
-417.292,640.000
-415.076,637.000
-412.857,639.000
-410.640,636.000
-408.422,641.000
-406.204,643.000
-403.989,635.000
-401.772,637.000
-399.557,636.000
-397.341,637.000
-395.125,638.000
-392.911,634.000
-390.696,638.000
-388.483,638.000
-386.268,639.000
-384.053,633.000
-381.842,639.000
-379.628,645.000
-377.417,640.000
-375.204,640.000
-372.991,643.000
-370.781,641.000
-368.569,639.000
-366.360,639.000
-364.148,633.000
-361.937,636.000
-359.729,640.000
-357.518,636.000
-355.311,637.000
-353.101,630.000
-350.892,634.000
-348.685,646.000
-346.477,639.000
-344.271,641.000
-342.063,642.000
-339.855,634.000
-337.650,639.000
-335.443,637.000
-333.236,636.000
-331.033,634.000
-328.827,635.000
-326.624,639.000
-324.418,637.000
-322.213,640.000
-320.011,639.000
-317.807,641.000
-315.606,646.000
-313.402,636.000
-311.199,636.000
-308.998,633.000
-306.796,642.000
-304.596,637.000
-302.394,639.000
-300.193,635.000
-297.994,633.000
-295.793,643.000
-293.595,636.000
-291.395,641.000
-289.195,638.000
-286.998,638.000
-284.799,639.000
-282.603,638.000
-280.404,643.000
-278.206,640.000
-276.011,638.000
-273.813,637.000
-271.619,637.000
-269.422,632.000
-267.225,643.000
-265.032,641.000
-262.836,639.000
-260.643,636.000
-258.448,637.000
-256.253,640.000
-254.061,637.000
-251.867,636.000
-249.676,640.000
-247.483,644.000
-245.289,639.000
-243.099,638.000
-240.907,649.000
-238.717,646.000
-236.526,636.000
-234.334,635.000
-232.146,640.000
-229.955,639.000
-227.767,636.000
-225.577,635.000
-223.387,638.000
-221.201,638.000
-219.012,634.000
-216.825,635.000
-214.637,640.000
-212.449,640.000
-210.264,637.000
-208.077,645.000
-205.890,640.000
-203.706,639.000
-201.519,646.000
-199.336,633.000
-197.150,638.000
-194.965,641.000
-192.782,638.000
-190.598,640.000
-188.416,637.000
-186.232,643.000
-184.048,638.000
-181.868,638.000
-179.685,647.000
-177.504,636.000
-175.322,642.000
-173.140,641.000
-170.961,644.000
-168.780,639.000
-166.601,640.000
-164.421,647.000
-162.241,628.000
-160.063,636.000
-157.884,640.000
-155.707,643.000
-153.528,642.000
-151.349,639.000
-149.174,635.000
-146.996,642.000
-144.821,639.000
-142.643,640.000
-140.466,638.000
-138.292,644.000
-136.116,641.000
-133.943,636.000
-131.767,641.000
-129.592,637.000
-127.419,639.000
-125.245,644.000
-123.073,636.000
-120.899,639.000
-118.726,638.000
-116.555,641.000
-114.382,642.000
-112.209,642.000
-110.040,643.000
-107.868,641.000
-105.699,638.000
-103.527,639.000
-101.357,641.000
-99.188,639.000
-97.018,647.000
-94.851,640.000
-92.681,638.000
-90.512,640.000
-88.346,634.000
-86.177,638.000
-84.011,639.000
-81.843,635.000
-79.676,641.000
-77.511,643.000
-75.344,639.000
-73.180,638.000
-71.014,644.000
-68.848,646.000
-66.685,643.000
-64.519,639.000
-62.357,636.000
-60.192,644.000
-58.028,632.000
-55.867,643.000
-53.703,637.000
-51.542,642.000
-49.379,649.000
-47.217,640.000
-45.057,636.000
-42.895,642.000
-40.736,641.000
-38.575,641.000
-36.414,643.000
-34.256,640.000
-32.095,641.000
-29.938,640.000
-27.778,642.000
-25.619,647.000
-23.463,640.000
-21.304,638.000
-19.148,643.000
-16.990,633.000
-14.833,644.000
-12.678,646.000
-10.521,657.000
-8.367,661.000
-6.210,684.000
-4.054,719.000
-1.901,787.000
0.254,908.000
2.409,1183.000
4.561,2938.000
6.716,34094.000
8.867,38883.000
11.021,3373.000
13.174,1028.000
15.325,770.000
17.478,714.000
19.628,666.000
21.780,656.000
23.931,657.000
26.080,661.000
28.231,661.000
30.379,660.000
32.530,672.000
34.680,695.000
36.827,723.000
38.977,771.000
41.123,819.000
43.272,867.000
45.420,922.000
47.566,891.000
49.714,879.000
51.859,889.000
54.006,842.000
56.153,840.000
58.297,808.000
60.443,754.000
62.586,729.000
64.731,711.000
66.877,697.000
69.019,689.000
71.163,687.000
73.305,663.000
75.449,657.000
77.592,658.000
79.733,649.000
81.876,648.000
84.016,641.000
86.158,641.000
88.300,650.000
90.439,651.000
92.581,645.000
94.721,643.000
96.860,648.000
99.000,646.000
101.137,645.000
103.277,650.000
105.416,648.000
107.553,649.000
109.691,644.000
111.827,647.000
113.965,646.000
116.103,641.000
118.237,649.000
120.374,645.000
122.509,653.000
124.645,656.000
126.781,666.000
128.914,674.000
131.050,718.000
133.182,789.000
135.317,809.000
137.451,774.000
139.583,694.000
141.717,670.000
143.848,670.000
145.981,668.000
148.113,660.000
150.243,662.000
152.375,654.000
154.505,660.000
156.636,652.000
158.767,654.000
160.896,660.000
163.026,656.000
165.154,664.000
167.284,666.000
169.413,656.000
171.540,667.000
173.669,653.000
175.795,658.000
177.923,668.000
180.051,664.000
182.176,664.000
184.304,667.000
186.428,679.000
188.555,678.000
190.681,676.000
192.804,698.000
194.930,693.000
197.053,704.000
199.178,708.000
201.303,743.000
203.425,755.000
205.549,769.000
207.670,801.000
209.793,803.000
211.916,826.000
214.037,817.000
216.159,811.000
218.281,780.000
220.400,800.000
222.522,765.000
224.641,733.000
226.761,734.000
228.882,715.000
231.000,712.000
233.119,699.000
235.236,695.000
237.356,671.000
239.474,680.000
241.591,680.000
243.709,677.000
245.824,675.000
247.942,666.000
250.059,667.000
252.174,673.000
254.290,671.000
256.404,662.000
258.520,661.000
260.636,674.000
262.749,667.000
264.864,663.000
266.976,674.000
269.090,687.000
271.204,697.000
273.316,675.000
275.429,657.000
277.540,665.000
279.653,654.000
281.765,648.000
283.875,651.000
285.987,650.000
288.098,650.000
290.207,650.000
292.318,656.000
294.426,651.000
296.536,655.000
298.646,648.000
300.753,648.000
302.862,648.000
304.969,649.000
307.078,642.000
309.186,645.000
311.291,643.000
313.399,650.000
315.504,648.000
317.611,654.000
319.718,644.000
321.822,645.000
323.928,652.000
326.031,642.000
328.137,642.000
330.242,644.000
332.344,641.000
334.449,651.000
336.550,650.000
338.654,644.000
340.758,646.000
342.859,646.000
344.961,646.000
347.062,639.000
349.164,648.000
351.266,646.000
353.365,650.000
355.466,653.000
357.565,675.000
359.666,706.000
361.766,707.000
363.864,687.000
365.963,657.000
368.060,652.000
370.159,645.000
372.258,640.000
374.354,647.000
376.452,645.000
378.548,645.000
380.645,645.000
382.742,645.000
384.837,650.000
386.934,654.000
389.027,652.000
391.123,646.000
393.219,654.000
395.312,646.000
397.407,662.000
399.499,675.000
401.593,659.000
403.687,654.000
405.779,656.000
407.872,660.000
409.963,663.000
412.056,651.000
414.148,646.000
416.238,649.000
418.330,648.000
420.421,646.000
422.510,654.000
424.601,650.000
426.689,646.000
428.779,645.000
430.869,649.000
432.956,647.000
435.046,648.000
437.132,650.000
439.221,655.000
441.309,647.000
443.395,658.000
445.483,664.000
447.568,657.000
449.655,665.000
451.741,669.000
453.826,681.000
455.912,698.000
457.995,725.000
460.081,758.000
462.166,793.000
464.248,921.000
466.333,1132.000
468.415,1405.000
470.499,1475.000
472.582,1296.000
474.663,1076.000
476.746,911.000
478.827,806.000
480.909,769.000
482.991,740.000
485.071,722.000
487.152,707.000
489.233,695.000
491.312,685.000
493.392,689.000
495.470,686.000
497.550,670.000
499.629,675.000
501.706,672.000
503.785,675.000
505.862,668.000
507.940,668.000
510.018,673.000
512.093,683.000
514.171,710.000
516.245,692.000
518.322,685.000
520.399,679.000
522.472,658.000
524.548,669.000
526.621,672.000
528.697,667.000
530.771,667.000
532.844,663.000
534.918,654.000
536.990,652.000
539.063,662.000
541.137,658.000
543.207,654.000
545.280,664.000
547.350,655.000
549.422,656.000
551.494,658.000
553.563,657.000
555.634,649.000
557.703,657.000
559.773,649.000
561.843,650.000
563.911,647.000
565.981,648.000
568.048,651.000
570.116,647.000
572.185,649.000
574.251,647.000
576.319,650.000
578.385,648.000
580.452,651.000
582.519,648.000
584.584,653.000
586.650,655.000
588.714,640.000
590.780,649.000
592.846,651.000
594.908,647.000
596.973,647.000
599.036,649.000
601.100,643.000
603.164,651.000
605.226,644.000
607.289,651.000
609.350,655.000
611.412,645.000
613.475,639.000
615.535,642.000
617.597,649.000
619.656,650.000
621.717,648.000
623.778,645.000
625.836,654.000
627.897,646.000
629.957,649.000
632.014,648.000
634.074,646.000
636.130,642.000
638.189,647.000
640.248,655.000
642.303,651.000
644.361,651.000
646.417,649.000
648.474,650.000
650.531,641.000
652.585,647.000
654.641,647.000
656.695,643.000
658.751,645.000
660.806,651.000
662.859,647.000
664.914,649.000
666.966,642.000
669.020,644.000
671.074,644.000
673.125,654.000
675.179,647.000
677.229,647.000
679.282,646.000
681.334,647.000
683.384,639.000
685.436,655.000
687.485,647.000
689.536,650.000
691.587,649.000
693.635,651.000
695.685,659.000
697.735,655.000
699.782,659.000
701.831,665.000
703.878,653.000
705.927,651.000
707.975,641.000
710.021,647.000
712.069,647.000
714.114,650.000
716.161,644.000
718.208,639.000
720.252,644.000
722.298,652.000
724.342,646.000
726.387,649.000
728.433,649.000
730.476,651.000
732.520,645.000
734.562,647.000
736.606,651.000
738.650,653.000
740.691,650.000
742.735,644.000
744.775,646.000
746.818,640.000
748.860,651.000
750.900,642.000
752.941,651.000
754.980,647.000
757.021,645.000
759.062,648.000
761.100,644.000
763.140,656.000
765.178,652.000
767.218,642.000
769.257,649.000
771.293,651.000
773.332,648.000
775.368,650.000
777.406,640.000
779.444,645.000
781.479,653.000
783.516,645.000
785.550,645.000
787.587,648.000
789.623,651.000
791.657,653.000
793.692,645.000
795.725,654.000
797.760,651.000
799.795,654.000
801.827,650.000
803.861,660.000
805.893,655.000
807.926,671.000
809.959,676.000
811.990,684.000
814.023,683.000
816.053,689.000
818.084,675.000
820.116,677.000
822.145,655.000
824.176,660.000
826.207,647.000
828.235,653.000
830.265,653.000
832.293,653.000
834.323,655.000
836.352,649.000
838.378,651.000
840.407,656.000
842.433,647.000
844.461,649.000
846.489,649.000
848.514,652.000
850.541,653.000
852.566,649.000
854.592,641.000
856.619,653.000
858.642,660.000
860.668,651.000
862.691,649.000
864.716,650.000
866.741,653.000
868.763,643.000
870.787,652.000
872.809,654.000
874.832,655.000
876.855,649.000
878.876,652.000
880.899,647.000
882.919,657.000
884.941,652.000
886.963,656.000
888.982,644.000
891.003,656.000
893.024,656.000
895.042,643.000
897.062,655.000
899.080,646.000
901.100,645.000
903.119,656.000
905.136,641.000
907.155,653.000
909.171,648.000
911.189,656.000
913.207,647.000
915.222,659.000
917.239,648.000
919.254,651.000
921.271,648.000
923.287,647.000
925.301,652.000
927.317,656.000
929.330,662.000
931.345,649.000
933.360,657.000
935.372,647.000
937.386,645.000
939.398,655.000
941.412,657.000
943.425,658.000
945.436,645.000
947.449,651.000
949.459,655.000
951.471,653.000
953.483,647.000
955.492,652.000
957.504,656.000
959.513,658.000
961.523,646.000
963.534,647.000
965.542,652.000
967.551,653.000
969.559,647.000
971.568,660.000
973.577,652.000
975.583,648.000
977.591,648.000
979.597,651.000
981.605,646.000
983.612,651.000
985.617,653.000
987.624,643.000
989.628,653.000
991.635,647.000
993.641,651.000
995.644,651.000
997.649,649.000
999.652,656.000
1001.657,657.000
1003.662,643.000
1005.664,652.000
1007.667,658.000
1009.669,648.000
1011.672,658.000
1013.675,649.000
1015.676,656.000
1017.678,645.000
1019.680,647.000
1021.680,657.000
1023.681,649.000
1025.680,646.000
1027.681,651.000
1029.682,655.000
1031.680,647.000
1033.680,646.000
1035.677,651.000
1037.677,653.000
1039.676,655.000
1041.673,656.000
1043.671,647.000
1045.667,646.000
1047.665,646.000
1049.663,654.000
1051.658,649.000
1053.655,651.000
1055.650,654.000
1057.646,652.000