File: Raman/Silica/2025_08_22_BB1392_SiO2_8wtPctH2O_Glass_50X_532nm_6mW_Kymera328_600gv_3600wn_3accum_30s_Unpol_Pos2.csv
2010.804,3182.000,3194.000,3201.000
2014.221,3183.000,3196.000,3207.000
2017.634,3171.000,3181.000,3190.000
2021.048,3182.000,3190.000,3183.000
2024.460,3186.000,3187.000,3191.000
2027.869,3198.000,3192.000,3197.000
2031.279,3185.000,3176.000,3213.000
2034.688,3179.000,3201.000,3185.000
2038.093,3183.000,3176.000,3180.000
2041.498,3192.000,3188.000,3189.000
2044.901,3193.000,3188.000,3186.000
2048.303,3202.000,3183.000,3200.000
2051.704,3194.000,3199.000,3195.000
2055.102,3201.000,3170.000,3188.000
2058.502,3187.000,3197.000,3197.000
2061.899,3190.000,3173.000,3181.000
2065.292,3193.000,3180.000,3203.000
2068.687,3196.000,3189.000,3190.000
2072.080,3187.000,3200.000,3189.000
2075.471,3171.000,3200.000,3193.000
2078.861,3185.000,3185.000,3186.000
2082.249,3187.000,3198.000,3188.000
2085.636,3198.000,3191.000,3183.000
2089.021,3199.000,3184.000,3200.000
2092.404,3186.000,3187.000,3183.000
2095.788,3188.000,3189.000,3196.000
2099.170,3197.000,3180.000,3182.000
2102.549,3175.000,3179.000,3179.000
2105.928,3186.000,3201.000,3205.000
2109.307,3190.000,3195.000,3186.000
2112.682,3182.000,3188.000,3202.000
2116.056,3208.000,3200.000,3200.000
2119.431,3200.000,3191.000,3184.000
2122.801,3194.000,3189.000,3189.000
2126.173,3182.000,3190.000,3200.000
2129.542,3179.000,3195.000,3197.000
2132.909,3182.000,3199.000,3196.000
2136.277,3199.000,3206.000,3196.000
2139.642,3202.000,3191.000,3184.000
2143.004,3195.000,3188.000,3190.000
2146.367,3189.000,3180.000,3203.000
2149.727,3195.000,3191.000,3181.000
2153.088,3201.000,3182.000,3187.000
2156.447,3185.000,3197.000,3184.000
2159.803,3183.000,3191.000,3183.000
2163.159,3176.000,3201.000,3190.000
2166.514,3187.000,3193.000,3185.000
2169.866,3185.000,3193.000,3185.000
2173.217,3197.000,3184.000,3200.000
2176.569,3201.000,3194.000,3185.000
2179.916,3226.000,3186.000,3181.000
2183.264,3195.000,3205.000,3182.000
2186.611,3187.000,3201.000,3196.000
2189.955,3192.000,3193.000,3178.000
2193.299,3203.000,3178.000,3193.000
2196.640,3193.000,3190.000,3200.000
2199.981,3187.000,3194.000,3196.000
2203.321,3200.000,3213.000,3186.000
2206.659,3188.000,3213.000,3193.000
2209.995,3187.000,3212.000,3192.000
2213.332,3177.000,3197.000,3177.000
2216.665,3186.000,3195.000,3188.000
2219.998,3217.000,3189.000,3207.000
2223.330,3185.000,3200.000,3211.000
2226.659,3197.000,3195.000,3194.000
2229.989,3205.000,3192.000,3192.000
2233.317,3191.000,3188.000,3191.000
2236.642,3182.000,3198.000,3203.000
2239.967,3203.000,3182.000,3181.000
2243.290,3214.000,3195.000,3193.000
2246.612,3179.000,3192.000,3212.000
2249.933,3184.000,3183.000,3194.000
2253.251,3184.000,3199.000,3187.000
2256.570,3201.000,3199.000,3204.000
2259.888,3181.000,3206.000,3191.000
2263.202,3194.000,3185.000,3192.000
2266.516,3195.000,3190.000,3196.000
2269.829,3184.000,3187.000,3191.000
2273.139,3198.000,3194.000,3193.000
2276.450,3203.000,3187.000,3197.000
2279.760,3196.000,3202.000,3201.000
2283.066,3195.000,3197.000,3184.000
2286.372,3197.000,3205.000,3193.000
2289.678,3184.000,3194.000,3207.000
2292.980,3194.000,3194.000,3199.000
2296.282,3199.000,3199.000,3191.000
2299.583,3184.000,3195.000,3207.000
2302.883,3197.000,3178.000,3196.000
2306.181,3199.000,3201.000,3189.000
2309.477,3190.000,3184.000,3191.000
2312.774,3208.000,3199.000,3193.000
2316.068,3203.000,3214.000,3203.000
2319.359,3191.000,3214.000,3202.000
2322.652,3215.000,3210.000,3216.000
2325.943,3223.000,3209.000,3208.000
2329.230,3218.000,3211.000,3200.000
2332.519,3218.000,3200.000,3194.000
2335.805,3207.000,3191.000,3204.000
2339.090,3217.000,3209.000,3212.000
2342.375,3218.000,3210.000,3219.000
2345.658,3193.000,3206.000,3209.000
2348.937,3200.000,3200.000,3191.000
2352.218,3200.000,3203.000,3195.000
2355.495,3192.000,3200.000,3199.000
2358.773,3206.000,3204.000,3197.000
2362.049,3206.000,3189.000,3184.000
2365.323,3185.000,3210.000,3183.000
2368.596,3199.000,3218.000,3197.000
2371.869,3203.000,3224.000,3189.000
2375.139,3206.000,3189.000,3205.000
2378.409,3191.000,3196.000,3199.000
2381.677,3217.000,3207.000,3181.000
2384.943,3197.000,3190.000,3202.000
2388.209,3210.000,3206.000,3187.000
2391.473,3195.000,3194.000,3187.000
2394.735,3199.000,3206.000,3194.000
2397.997,3198.000,3201.000,3197.000
2401.256,3195.000,3194.000,3195.000
2404.516,3199.000,3211.000,3186.000
2407.775,3207.000,3200.000,3210.000
2411.030,3208.000,3182.000,3202.000
2414.284,3199.000,3194.000,3203.000
2417.539,3197.000,3200.000,3176.000
2420.791,3199.000,3202.000,3204.000
2424.042,3217.000,3206.000,3200.000
2427.293,3198.000,3197.000,3209.000
2430.541,3204.000,3197.000,3182.000
2433.789,3207.000,3198.000,3202.000
2437.036,3195.000,3195.000,3212.000
2440.279,3206.000,3210.000,3216.000
2443.522,3217.000,3212.000,3199.000
2446.766,3205.000,3211.000,3189.000
2450.005,3183.000,3211.000,3212.000
2453.245,3207.000,3202.000,3195.000
2456.483,3215.000,3212.000,3201.000
2459.720,3203.000,3214.000,3184.000
2462.957,3207.000,3216.000,3188.000
2466.191,3193.000,3196.000,3200.000
2469.423,3208.000,3210.000,3205.000
2472.656,3190.000,3205.000,3193.000
2475.886,3190.000,3214.000,3189.000
2479.116,3210.000,3202.000,3187.000
2482.344,3198.000,3200.000,3207.000
2485.570,3209.000,3195.000,3199.000
2488.796,3199.000,3217.000,3195.000
2492.021,3191.000,3209.000,3210.000
2495.243,3205.000,3217.000,3210.000
2498.466,3213.000,3209.000,3203.000
2501.684,3228.000,3226.000,3190.000
2504.905,3215.000,3206.000,3208.000
2508.122,3201.000,3205.000,3199.000
2511.339,3204.000,3208.000,3207.000
2514.554,3210.000,3198.000,3204.000
2517.768,3203.000,3195.000,3207.000
2520.980,3206.000,3193.000,3195.000
2524.192,3206.000,3211.000,3199.000
2527.403,3192.000,3190.000,3200.000
2530.611,3206.000,3204.000,3205.000
2533.820,3209.000,3204.000,3206.000
2537.027,3200.000,3201.000,3194.000
2540.231,3206.000,3204.000,3213.000
2543.436,3198.000,3207.000,3195.000
2546.638,3203.000,3199.000,3199.000
2549.839,3196.000,3203.000,3212.000
2553.040,3206.000,3207.000,3196.000
2556.238,3212.000,3204.000,3202.000
2559.436,3212.000,3198.000,3205.000
2562.633,3202.000,3200.000,3212.000
2565.827,3195.000,3212.000,3205.000
2569.021,3230.000,3204.000,3209.000
2572.215,3203.000,3213.000,3210.000
2575.404,3206.000,3208.000,3202.000
2578.595,3218.000,3220.000,3185.000
2581.785,3202.000,3228.000,3209.000
2584.971,3226.000,3210.000,3211.000
2588.158,3217.000,3212.000,3195.000
2591.344,3196.000,3215.000,3212.000
2594.527,3199.000,3207.000,3202.000
2597.710,3224.000,3213.000,3201.000
2600.890,3211.000,3206.000,3204.000
2604.071,3218.000,3217.000,3210.000
2607.250,3216.000,3218.000,3221.000
2610.427,3204.000,3210.000,3208.000
2613.604,3198.000,3194.000,3225.000
2616.778,3205.000,3219.000,3208.000
2619.952,3204.000,3215.000,3192.000
2623.125,3213.000,3217.000,3206.000
2626.297,3220.000,3214.000,3212.000
2629.465,3223.000,3223.000,3208.000
2632.635,3205.000,3207.000,3201.000
2635.803,3211.000,3223.000,3211.000
2638.968,3218.000,3193.000,3217.000
2642.135,3214.000,3218.000,3205.000
2645.299,3225.000,3210.000,3212.000
2648.461,3209.000,3209.000,3211.000
2651.623,3222.000,3205.000,3228.000
2654.782,3210.000,3200.000,3210.000
2657.942,3209.000,3221.000,3208.000
2661.100,3217.000,3219.000,3228.000
2664.255,3236.000,3235.000,3215.000
2667.411,3235.000,3207.000,3217.000
2670.566,3236.000,3238.000,3208.000
2673.717,3215.000,3222.000,3215.000
2676.870,3217.000,3212.000,3212.000
2680.020,3215.000,3225.000,3229.000
2683.168,3225.000,3204.000,3230.000
2686.317,3217.000,3221.000,3228.000
2689.464,3237.000,3213.000,3235.000
2692.608,3232.000,3217.000,3239.000
2695.752,3243.000,3210.000,3245.000
2698.894,3226.000,3219.000,3232.000
2702.036,3245.000,3214.000,3232.000
2705.178,3216.000,3237.000,3219.000
2708.316,3231.000,3230.000,3222.000
2711.454,3207.000,3214.000,3227.000
2714.592,3241.000,3223.000,3233.000
2717.727,3237.000,3226.000,3248.000
2720.862,3225.000,3225.000,3235.000
2723.996,3224.000,3242.000,3224.000
2727.126,3218.000,3249.000,3237.000
2730.258,3229.000,3222.000,3224.000
2733.387,3231.000,3256.000,3247.000
2736.515,3226.000,3252.000,3242.000
2739.642,3224.000,3245.000,3237.000
2742.769,3239.000,3248.000,3238.000
2745.892,3235.000,3235.000,3223.000
2749.016,3248.000,3241.000,3239.000
2752.137,3244.000,3261.000,3245.000
2755.259,3249.000,3256.000,3237.000
2758.379,3250.000,3250.000,3239.000
2761.497,3238.000,3245.000,3241.000
2764.614,3229.000,3243.000,3263.000
2767.731,3252.000,3243.000,3235.000
2770.845,3255.000,3251.000,3249.000
2773.959,3255.000,3244.000,3254.000
2777.072,3251.000,3247.000,3267.000
2780.183,3255.000,3258.000,3260.000
2783.293,3262.000,3254.000,3254.000
2786.403,3265.000,3254.000,3287.000
2789.510,3248.000,3257.000,4760.000
2792.617,3261.000,3273.000,3270.000
2795.720,3273.000,3264.000,3258.000
2798.825,3279.000,3249.000,3250.000
2801.929,3281.000,3245.000,3299.000
2805.029,3281.000,6523.000,3267.000
2808.130,3273.000,3734.000,3259.000
2811.229,3263.000,3283.000,3263.000
2814.327,3260.000,3267.000,3259.000
2817.424,3266.000,3267.000,3271.000
2820.520,3287.000,3286.000,3285.000
2823.614,3267.000,3261.000,3287.000
2826.708,3296.000,3279.000,3269.000
2829.800,3288.000,3272.000,3272.000
2832.890,3283.000,3275.000,3280.000
2835.980,3282.000,3285.000,3282.000
2839.069,3298.000,3277.000,3277.000
2842.155,3304.000,3281.000,3317.000
2845.242,3302.000,3301.000,3302.000
2848.326,3269.000,3304.000,3285.000
2851.410,3284.000,3333.000,3289.000
2854.493,3297.000,3324.000,3311.000
2857.573,3280.000,3318.000,3333.000
2860.653,3300.000,3302.000,3304.000
2863.734,3327.000,3309.000,3324.000
2866.809,3314.000,3304.000,3313.000
2869.888,3311.000,3300.000,3312.000
2872.963,3319.000,3331.000,3311.000
2876.037,3316.000,3322.000,3324.000
2879.110,3316.000,3302.000,3324.000
2882.182,3331.000,3347.000,3330.000
2885.251,3337.000,3334.000,3326.000
2888.322,3333.000,3331.000,3335.000
2891.388,3321.000,3330.000,3358.000
2894.456,3334.000,3361.000,3356.000
2897.522,3376.000,3343.000,3378.000
2900.586,3359.000,3372.000,3354.000
2903.650,3359.000,3365.000,3384.000
2906.713,3382.000,3360.000,3367.000
2909.773,3368.000,3374.000,3359.000
2912.833,3380.000,3383.000,3368.000
2915.893,3408.000,3411.000,3391.000
2918.950,3384.000,3373.000,3395.000
2922.007,3401.000,3356.000,3386.000
2925.063,3367.000,3396.000,3375.000
2928.115,3397.000,3400.000,3383.000
2931.169,3377.000,3397.000,3397.000
2934.221,3397.000,3383.000,3395.000
2937.271,3387.000,3381.000,3383.000
2940.320,3377.000,3369.000,3391.000
2943.368,4855.000,3370.000,3389.000
2946.415,3385.000,3414.000,3396.000
2949.462,3404.000,3396.000,3392.000
2952.505,3412.000,3398.000,3389.000
2955.549,3414.000,3418.000,3394.000
2958.592,3413.000,3405.000,3396.000
2961.632,3398.000,3400.000,3402.000
2964.673,3417.000,3428.000,3411.000
2967.712,3417.000,3403.000,3451.000
2970.749,3422.000,3447.000,3399.000
2973.786,3409.000,3407.000,3419.000
2976.822,3438.000,3416.000,3427.000
2979.855,3411.000,3414.000,3420.000
2982.888,3436.000,3398.000,3425.000
2985.920,3407.000,3407.000,3419.000
2988.950,3418.000,3430.000,3442.000
2991.980,3421.000,3411.000,3426.000
2995.008,3438.000,3454.000,3440.000
2998.036,3429.000,3432.000,3454.000
3001.062,3426.000,3436.000,3453.000
3004.086,3432.000,3464.000,3419.000
3007.111,3443.000,3455.000,3463.000
3010.133,3465.000,3473.000,3487.000
3013.154,3463.000,3436.000,3447.000
3016.175,3441.000,3440.000,3448.000
3019.195,3474.000,3473.000,3468.000
3022.211,3469.000,3468.000,3479.000
3025.229,3473.000,3451.000,3468.000
3028.245,3461.000,3463.000,3460.000
3031.259,3468.000,3500.000,3450.000
3034.272,3461.000,3443.000,3478.000
3037.283,3498.000,3510.000,3475.000
3040.295,3485.000,3469.000,3472.000
3043.306,3484.000,3498.000,3448.000
3046.313,3494.000,3492.000,3493.000
3049.321,3493.000,3500.000,3507.000
3052.328,3493.000,3502.000,3505.000
3055.332,3512.000,3504.000,3499.000
3058.337,3498.000,3505.000,3510.000
3061.341,3504.000,3533.000,3512.000
3064.342,3500.000,3502.000,3497.000
3067.343,3520.000,3546.000,3525.000
3070.343,3548.000,3527.000,3549.000
3073.341,3558.000,3532.000,3526.000
3076.338,3538.000,3530.000,3548.000
3079.333,3555.000,3542.000,3523.000
3082.329,3537.000,3560.000,3549.000
3085.323,3561.000,3547.000,3535.000
3088.315,3554.000,3562.000,3555.000
3091.307,3533.000,3570.000,3550.000
3094.298,3555.000,3555.000,3538.000
3097.286,3558.000,3553.000,3547.000
3100.275,3571.000,3557.000,3541.000
3103.262,3575.000,3596.000,3577.000
3106.247,3601.000,3609.000,3600.000
3109.233,3575.000,3592.000,3610.000
3112.216,3591.000,3590.000,3602.000
3115.198,3583.000,3599.000,3598.000
3118.180,3616.000,3623.000,3629.000
3121.161,3579.000,3629.000,3620.000
3124.139,3638.000,3631.000,3647.000
3127.118,3629.000,3628.000,3640.000
3130.093,3631.000,3611.000,3629.000
3133.069,3675.000,3623.000,3614.000
3136.044,3667.000,3628.000,3651.000
3139.016,3662.000,3654.000,3670.000
3141.990,3659.000,3625.000,3652.000
3144.962,3678.000,3666.000,3688.000
3147.930,3698.000,3627.000,3686.000
3150.900,3668.000,3677.000,3691.000
3153.868,3677.000,3690.000,3672.000
3156.834,3659.000,3671.000,3707.000
3159.800,3677.000,3680.000,3700.000
3162.765,3723.000,3699.000,3713.000
3165.727,3674.000,3728.000,3691.000
3168.690,3718.000,3716.000,3753.000
3171.650,3718.000,3705.000,3711.000
3174.610,3742.000,3731.000,3689.000
3177.570,3725.000,3741.000,3712.000
3180.527,3702.000,3739.000,3758.000
3183.484,3758.000,3770.000,3750.000
3186.439,3736.000,3758.000,3705.000
3189.393,3728.000,3744.000,3723.000
3192.346,3778.000,3740.000,3761.000
3195.299,3742.000,3742.000,3773.000
3198.249,3759.000,3764.000,3752.000
3201.200,3774.000,3780.000,3746.000
3204.148,3771.000,3783.000,3796.000
3207.095,3781.000,3796.000,3771.000
3210.043,3791.000,3841.000,3811.000
3212.988,3829.000,3793.000,3815.000
3215.931,3797.000,3831.000,3784.000
3218.875,3803.000,3801.000,3794.000
3221.816,3788.000,3789.000,3790.000
3224.757,3797.000,3815.000,3793.000
3227.698,3791.000,3832.000,3871.000
3230.635,3818.000,3849.000,3792.000
3233.574,3828.000,3818.000,3826.000
3236.511,3817.000,3803.000,3817.000
3239.446,3847.000,3827.000,3823.000
3242.380,3820.000,3848.000,3826.000
3245.314,3843.000,3829.000,3843.000
3248.244,3843.000,3828.000,3855.000
3251.177,3845.000,3840.000,3842.000
3254.107,3851.000,3861.000,3853.000
3257.035,3852.000,3883.000,3869.000
3259.963,3858.000,3862.000,3846.000
3262.888,3843.000,3849.000,3880.000
3265.814,3877.000,3852.000,3860.000
3268.739,3864.000,3876.000,3844.000
3271.661,3890.000,3850.000,3859.000
3274.584,3876.000,3895.000,3840.000
3277.505,3899.000,3865.000,3883.000
3280.425,3882.000,3893.000,3926.000
3283.344,3898.000,3873.000,3874.000
3286.262,3923.000,3876.000,3921.000
3289.178,3903.000,3928.000,3905.000
3292.094,3889.000,3896.000,3901.000
3295.008,3852.000,3923.000,3905.000
3297.921,3922.000,3887.000,3924.000
3300.834,3914.000,3896.000,3904.000
3303.745,3910.000,3913.000,3898.000
3306.655,3949.000,3947.000,3918.000
3309.565,3912.000,3931.000,3947.000
3312.472,3947.000,3918.000,3952.000
3315.379,3890.000,3915.000,3901.000
3318.284,3958.000,3944.000,3921.000
3321.189,3936.000,3921.000,3954.000
3324.092,3916.000,3959.000,3956.000
3326.996,3937.000,3945.000,3981.000
3329.896,3953.000,3982.000,3957.000
3332.797,3944.000,3974.000,3964.000
3335.697,3938.000,3965.000,3956.000
3338.593,3998.000,3971.000,3959.000
3341.491,3991.000,3966.000,4006.000
3344.387,4010.000,3998.000,3992.000
3347.281,4012.000,3995.000,3983.000
3350.175,4023.000,3956.000,3972.000
3353.067,3989.000,3980.000,3987.000
3355.960,4044.000,4019.000,4037.000
3358.850,4000.000,4014.000,3989.000
3361.739,4026.000,4039.000,4050.000
3364.628,4030.000,4019.000,4036.000
3367.515,4008.000,4051.000,4016.000
3370.401,4036.000,4046.000,4035.000
3373.286,4027.000,4035.000,4015.000
3376.171,4055.000,4062.000,4040.000
3379.053,4075.000,4076.000,4046.000
3381.936,4050.000,4050.000,4070.000
3384.817,4044.000,4073.000,4084.000
3387.695,4099.000,4078.000,4064.000
3390.575,4082.000,4050.000,4088.000
3393.453,4072.000,4102.000,4092.000
3396.328,4096.000,4089.000,4079.000
3399.204,4113.000,4079.000,4107.000
3402.078,4110.000,4087.000,4113.000
3404.951,4112.000,4104.000,4089.000
3407.824,4087.000,4091.000,4090.000
3410.694,4105.000,4124.000,4102.000
3413.565,4101.000,4148.000,4107.000
3416.434,4107.000,4118.000,4094.000
3419.301,4162.000,4108.000,4124.000
3422.169,4118.000,4089.000,4132.000
3425.035,4114.000,4124.000,4097.000
3427.899,4123.000,4154.000,4158.000
3430.763,4096.000,4133.000,4149.000
3433.625,4174.000,4155.000,4180.000
3436.486,4135.000,4144.000,4154.000
3439.347,4185.000,4174.000,4138.000
3442.205,4146.000,4164.000,4131.000
3445.064,4146.000,4142.000,4118.000
3447.922,4120.000,4156.000,4132.000
3450.777,4189.000,4128.000,4160.000
3453.632,4153.000,4171.000,4155.000
3456.487,4181.000,4182.000,4170.000
3459.339,4166.000,4192.000,4167.000
3462.192,4207.000,4178.000,4172.000
3465.043,4146.000,4183.000,4134.000
3467.892,4169.000,4144.000,4176.000
3470.742,4167.000,4194.000,4159.000
3473.589,4177.000,4153.000,4178.000
3476.436,4171.000,4197.000,4164.000
3479.281,4162.000,4208.000,4209.000
3482.126,4179.000,4202.000,4162.000
3484.969,4162.000,4205.000,4178.000
3487.812,4199.000,4189.000,4198.000
3490.652,4184.000,4183.000,4207.000
3493.493,4180.000,4226.000,4181.000
3496.332,4194.000,4194.000,4176.000
3499.171,4189.000,4195.000,4238.000
3502.008,4228.000,4185.000,4231.000
3504.845,4211.000,4246.000,4211.000
3507.678,4235.000,4252.000,4233.000
3510.513,4242.000,4254.000,4234.000
3513.346,4271.000,4246.000,4209.000
3516.178,4272.000,4200.000,4266.000
3519.009,4252.000,4252.000,4289.000
3521.839,4242.000,4265.000,4260.000
3524.667,4262.000,4285.000,4230.000
3527.494,4241.000,4285.000,4245.000
3530.321,4302.000,4283.000,4299.000
3533.146,4260.000,4265.000,4315.000
3535.972,4284.000,4319.000,4311.000
3538.794,4302.000,4302.000,4315.000
3541.617,4305.000,4296.000,4359.000
3544.439,4372.000,4351.000,4314.000
3547.258,4353.000,4351.000,4321.000
3550.079,4359.000,4399.000,4370.000
3552.897,4378.000,4385.000,4339.000
3555.713,4384.000,4402.000,4410.000
3558.531,4456.000,4406.000,4420.000
3561.346,4438.000,4426.000,4457.000
3564.159,4431.000,4475.000,4516.000
3566.973,4523.000,4458.000,4481.000
3569.786,4492.000,4478.000,4479.000
3572.595,4566.000,4489.000,4541.000
3575.406,4559.000,4540.000,4546.000
3578.214,4583.000,4570.000,4591.000
3581.022,4604.000,4589.000,4626.000
3583.829,4579.000,4590.000,4577.000
3586.635,4603.000,4646.000,4618.000
3589.440,4587.000,4533.000,4568.000
3592.243,4555.000,4525.000,4578.000
3595.046,4542.000,4525.000,4519.000
3597.848,4513.000,4489.000,4537.000
3600.649,4495.000,4449.000,4488.000
3603.447,4428.000,4428.000,4510.000
3606.247,4419.000,4409.000,4403.000
3609.044,4395.000,4363.000,4397.000
3611.841,4380.000,4333.000,4314.000
3614.637,4323.000,4337.000,4358.000
3617.430,4333.000,4328.000,4325.000
3620.224,4324.000,4320.000,4312.000
3623.017,4313.000,4339.000,4292.000
3625.807,4285.000,4312.000,4322.000
3628.599,4298.000,4303.000,4301.000
3631.388,4280.000,4284.000,4294.000
3634.175,4272.000,4293.000,4287.000
3636.963,4290.000,4244.000,4325.000
3639.750,4264.000,4287.000,4253.000
3642.535,4256.000,4236.000,4297.000
3645.319,4235.000,4197.000,4253.000
3648.103,4229.000,4180.000,4233.000
3650.884,4213.000,4151.000,4186.000
3653.665,4132.000,4108.000,4150.000
3656.446,4108.000,4067.000,4167.000
3659.224,4085.000,4073.000,4096.000
3662.003,4017.000,4022.000,4021.000
3664.781,3936.000,3995.000,3972.000
3667.556,3908.000,3925.000,3954.000
3670.331,3880.000,3881.000,3863.000
3673.104,3813.000,3820.000,3838.000
3675.877,3781.000,3762.000,3781.000
3678.650,3721.000,3705.000,3710.000
3681.420,3667.000,3644.000,3667.000
3684.191,3599.000,3602.000,3606.000
3686.960,3561.000,3578.000,3587.000
3689.727,3555.000,3543.000,3503.000
3692.494,3491.000,3519.000,3492.000
3695.259,3461.000,3471.000,3461.000
3698.025,3415.000,3454.000,3444.000
3700.789,3411.000,3406.000,3434.000
3703.552,3404.000,3395.000,3387.000
3706.313,3387.000,3396.000,3394.000
3709.074,3354.000,3378.000,3370.000
3711.833,3360.000,3351.000,3354.000
3714.592,3353.000,3343.000,3343.000
3717.351,3353.000,3312.000,3349.000
3720.107,3339.000,3327.000,3331.000
3722.864,3329.000,3323.000,3327.000
3725.619,3323.000,3294.000,3321.000
3728.371,3323.000,3305.000,3323.000
3731.125,3297.000,3313.000,3326.000
3733.877,3305.000,3319.000,3315.000
3736.626,3289.000,3305.000,3318.000
3739.377,3300.000,3299.000,3283.000
3742.126,3287.000,3291.000,3299.000
3744.873,3268.000,3295.000,3296.000
3747.621,3290.000,3288.000,3293.000
3750.367,3291.000,3291.000,3304.000
3753.111,3291.000,3280.000,3273.000
3755.855,3275.000,3273.000,3294.000
3758.596,3279.000,3280.000,3277.000
3761.339,3303.000,3277.000,3272.000
3764.081,3285.000,3277.000,3289.000
3766.819,3274.000,3269.000,3273.000
3769.558,3289.000,3268.000,3269.000
3772.296,3276.000,3288.000,3272.000
3775.032,3295.000,3246.000,3266.000
3777.769,3277.000,3264.000,3269.000
3780.502,3268.000,3271.000,3264.000
3783.237,3271.000,3272.000,3267.000
3785.970,3272.000,3266.000,3268.000
3788.700,3263.000,3263.000,3288.000
3791.432,3270.000,3257.000,3267.000
3794.162,3254.000,3262.000,3256.000
3796.890,3248.000,3275.000,3264.000
3799.619,3272.000,3278.000,3249.000
3802.345,3253.000,3249.000,3269.000
3805.070,3237.000,3263.000,3257.000
3807.796,3295.000,3270.000,3271.000
3810.520,3253.000,3263.000,3275.000
3813.242,3272.000,3260.000,3252.000
3815.965,3258.000,3248.000,3279.000
3818.685,3262.000,3249.000,3271.000
3821.405,3277.000,3239.000,3268.000
3824.124,3248.000,3250.000,3251.000
3826.842,3258.000,3263.000,3274.000
3829.558,3259.000,3279.000,3251.000
3832.274,3266.000,3238.000,3246.000
3834.990,3265.000,3271.000,3256.000
3837.703,3271.000,3274.000,3262.000
3840.416,3244.000,3261.000,3258.000
3843.128,3251.000,3269.000,3256.000
3845.839,3250.000,3259.000,3261.000
3848.549,3243.000,3263.000,3247.000
3851.258,3263.000,3265.000,3268.000
3853.966,3247.000,3244.000,3267.000
3856.674,3256.000,3262.000,3254.000
3859.379,3271.000,3241.000,3263.000
3862.085,3250.000,3255.000,3263.000
3864.788,3241.000,3247.000,3257.000
3867.491,3258.000,3272.000,3236.000
3870.194,3266.000,3251.000,3267.000
3872.895,3244.000,3251.000,3246.000
3875.595,3264.000,3252.000,3264.000
3878.294,3263.000,3275.000,3262.000
3880.992,3252.000,3258.000,3260.000
3883.690,3249.000,3279.000,3247.000
3886.387,3253.000,3254.000,3247.000
3889.082,3266.000,3270.000,3249.000
3891.777,3257.000,3270.000,3271.000
3894.470,3258.000,3259.000,3256.000
3897.162,3256.000,3233.000,3258.000
3899.853,3247.000,3263.000,3279.000
3902.545,3257.000,3246.000,3258.000
3905.233,3256.000,3267.000,3254.000
3907.922,3251.000,3265.000,3274.000
3910.610,3268.000,3260.000,3271.000
3913.296,3249.000,3253.000,3254.000
3915.982,3249.000,3257.000,3273.000
3918.667,3239.000,3279.000,3263.000
3921.350,3256.000,3249.000,3269.000
3924.033,3257.000,3244.000,3251.000
3926.714,3259.000,3266.000,3253.000
3929.395,3247.000,3272.000,3248.000
3932.076,3252.000,3257.000,3250.000
3934.754,3273.000,3264.000,3242.000
3937.432,3240.000,3254.000,3268.000
3940.109,3250.000,3260.000,3248.000
3942.784,3246.000,3253.000,3247.000
3945.460,3252.000,3244.000,3255.000
3948.133,3256.000,3261.000,3247.000
3950.806,3246.000,3259.000,3251.000
3953.479,3252.000,3240.000,3262.000
3956.150,3236.000,3244.000,3258.000
3958.820,3251.000,3234.000,3265.000
3961.490,3250.000,3234.000,3259.000
3964.157,3243.000,3242.000,3243.000
3966.825,3249.000,3255.000,3259.000
3969.492,3251.000,3256.000,3253.000
3972.157,3245.000,3258.000,3239.000
3974.821,3248.000,3254.000,3214.000
3977.485,3246.000,3248.000,3254.000
3980.146,3256.000,3218.000,3251.000
3982.809,3247.000,3251.000,3239.000
3985.470,3238.000,3260.000,3250.000
3988.129,3245.000,3241.000,3243.000
3990.788,3246.000,3264.000,3246.000
3993.446,3240.000,3248.000,3239.000
3996.102,3254.000,3254.000,3247.000
3998.758,3244.000,3244.000,3230.000
4001.413,3236.000,3262.000,3258.000
4004.066,3252.000,3241.000,3246.000
4006.720,3242.000,3243.000,3241.000
4009.371,3242.000,3249.000,3240.000
4012.022,3231.000,3242.000,3249.000
4014.673,3242.000,3239.000,3254.000
4017.321,3271.000,3251.000,3255.000
4019.970,3256.000,3230.000,3242.000
4022.618,3239.000,3227.000,3235.000
4025.263,3241.000,3241.000,3247.000
4027.909,3242.000,3237.000,3249.000
4030.553,3245.000,3239.000,3231.000
4033.197,3243.000,3234.000,3253.000
4035.839,3239.000,3232.000,3228.000
4038.481,3235.000,3234.000,3237.000
4041.121,3251.000,3238.000,3238.000
4043.761,3222.000,3239.000,3214.000
4046.399,3250.000,3245.000,3251.000
4049.037,3233.000,3241.000,3235.000
4051.675,3236.000,3242.000,3260.000
4054.310,3238.000,3232.000,3249.000
4056.945,3232.000,3241.000,3240.000
4059.580,3240.000,3237.000,3222.000
4062.212,3235.000,3232.000,3220.000
4064.845,3228.000,3234.000,3216.000
4067.476,3227.000,3231.000,3235.000
4070.106,3217.000,3239.000,3232.000
4072.736,3230.000,3219.000,3234.000
4075.365,3238.000,3234.000,3231.000
4077.991,3242.000,3255.000,3220.000
4080.618,3232.000,3207.000,3238.000
4083.244,3227.000,3243.000,3220.000
4085.868,3238.000,3239.000,3229.000
4088.492,3232.000,3241.000,3229.000
4091.114,3238.000,3250.000,3250.000
4093.736,3213.000,3228.000,3233.000
4096.358,3233.000,3240.000,3234.000
4098.977,3230.000,3227.000,3227.000
4101.597,3203.000,3232.000,3234.000
4104.215,3221.000,3240.000,3215.000
4106.832,3241.000,3233.000,3239.000
4109.448,3225.000,3234.000,3222.000
4112.062,3215.000,3237.000,3234.000
4114.677,3228.000,3240.000,3235.000
4117.292,3218.000,3232.000,3232.000
4119.903,3230.000,3235.000,3200.000
4122.515,3225.000,3228.000,3230.000
4125.126,3245.000,3219.000,3222.000
4127.735,3224.000,3227.000,3218.000
4130.344,3234.000,3210.000,3222.000
4132.952,3221.000,3222.000,3227.000
4135.558,3236.000,3213.000,3219.000
4138.165,3223.000,3227.000,3223.000
4140.770,3222.000,3208.000,3215.000
4143.373,3221.000,3207.000,3220.000
4145.978,3242.000,3216.000,3227.000
4148.581,3238.000,3221.000,3220.000
4151.181,3223.000,3218.000,3223.000
4153.782,3220.000,3215.000,3237.000
4156.382,3234.000,3212.000,3224.000
4158.980,3242.000,3222.000,3218.000
4161.577,3214.000,3217.000,3215.000
4164.173,3223.000,3225.000,3231.000
4166.770,3219.000,3221.000,3217.000
4169.365,3218.000,3212.000,3217.000
4171.958,3211.000,3224.000,3198.000
4174.552,3210.000,3211.000,3202.000
4177.144,3217.000,3226.000,3202.000
4179.734,3220.000,3222.000,3217.000
4182.326,3229.000,3213.000,3224.000
4184.916,3207.000,3211.000,3231.000
4187.503,3219.000,3198.000,3210.000
4190.092,3223.000,3215.000,3203.000
4192.678,3205.000,3216.000,3227.000
4195.263,3206.000,3230.000,3208.000
4197.849,3215.000,3217.000,3224.000
4200.432,3222.000,3216.000,3232.000
4203.015,3216.000,3212.000,3210.000
4205.597,3221.000,3228.000,3218.000
4208.178,3210.000,3219.000,3247.000
4210.759,3233.000,3201.000,3211.000
4213.339,3210.000,3223.000,3232.000
4215.916,3210.000,3223.000,3226.000
4218.494,3219.000,3218.000,3212.000
4221.071,3228.000,3221.000,3213.000
4223.646,3236.000,3221.000,3203.000
4226.221,3205.000,3216.000,3214.000
4228.795,3214.000,3204.000,3215.000
4231.368,3200.000,3217.000,3225.000
4233.941,3208.000,3200.000,3205.000
4236.513,3225.000,3232.000,3215.000
4239.082,3198.000,3217.000,3219.000
4241.651,3211.000,3203.000,3213.000
4244.219,3222.000,3226.000,3208.000
4246.787,3235.000,3212.000,3221.000
4249.354,3231.000,3207.000,3221.000
4251.919,3217.000,3223.000,3206.000
4254.484,3220.000,3225.000,3227.000
4257.048,3212.000,3211.000,3202.000
4259.611,3210.000,3217.000,3221.000
4262.173,3207.000,3213.000,3234.000
4264.735,3213.000,3233.000,3219.000
4267.294,3198.000,3218.000,3230.000
4269.854,3208.000,3230.000,3217.000
4272.412,3230.000,3212.000,3184.000
4274.970,3212.000,3205.000,3192.000
4277.527,3216.000,3221.000,3213.000
4280.082,3208.000,3202.000,3235.000
4282.637,3239.000,3207.000,3211.000
4285.192,3213.000,3224.000,3214.000
4287.745,3202.000,3218.000,3205.000
4290.296,3221.000,3229.000,3205.000
4292.848,3193.000,3198.000,3212.000
4295.398,3208.000,3209.000,3209.000
4297.948,3202.000,3203.000,3214.000
4300.497,3213.000,3207.000,3203.000
4303.044,3202.000,3212.000,3192.000
4305.591,3219.000,3216.000,3214.000
4308.137,3218.000,3198.000,3217.000
4310.682,3197.000,3217.000,3199.000
4313.227,3219.000,3216.000,3219.000
4315.770,3216.000,3211.000,3199.000
4318.312,3218.000,3198.000,3211.000
4320.853,3203.000,3210.000,3214.000
4323.393,3219.000,3213.000,3230.000
4325.934,3209.000,3216.000,3205.000
4328.473,3216.000,3200.000,3201.000
4331.009,3210.000,3198.000,3197.000
4333.547,3215.000,3207.000,3198.000
4336.084,3213.000,3212.000,3215.000
4338.618,3206.000,3207.000,3205.000
4341.152,3210.000,3217.000,3203.000
4343.687,3209.000,3219.000,3224.000
4346.219,3222.000,3219.000,3217.000
4348.751,3206.000,3229.000,3202.000
4351.281,3223.000,3195.000,3219.000
4353.810,3197.000,3222.000,3228.000
4356.340,3202.000,3210.000,3202.000
4358.867,3208.000,3214.000,3203.000
4361.395,3212.000,3213.000,3206.000
4363.922,3218.000,3194.000,3203.000
4366.447,3207.000,3215.000,3200.000
4368.972,3207.000,3222.000,3198.000
4371.496,3221.000,3211.000,3207.000
4374.018,3199.000,3218.000,3206.000
4376.540,3208.000,3214.000,3210.000
4379.062,3196.000,3215.000,3211.000
4381.581,3206.000,3199.000,3212.000
4384.100,3206.000,3211.000,3218.000
4386.620,3217.000,3185.000,3202.000
4389.137,3218.000,3204.000,3216.000
4391.653,3214.000,3214.000,3207.000
4394.170,3203.000,3221.000,3207.000
4396.684,3207.000,3199.000,3190.000
4399.198,3214.000,3209.000,3206.000
4401.711,3208.000,3215.000,3212.000
4404.224,3214.000,3189.000,3197.000
4406.735,3188.000,3203.000,3205.000
4409.245,3220.000,3181.000,3209.000
4411.755,3208.000,3211.000,3222.000
4414.265,3200.000,3232.000,3209.000
4416.771,3194.000,3217.000,3216.000
4419.279,3186.000,3212.000,3209.000
4421.785,3199.000,3193.000,3208.000
4424.289,3184.000,3204.000,3218.000
4426.795,3203.000,3204.000,3215.000
4429.298,3210.000,3204.000,3215.000
4431.800,3208.000,3198.000,3215.000
4434.302,3193.000,3203.000,3204.000
4436.803,3201.000,3196.000,3214.000
4439.303,3224.000,3199.000,3201.000
4441.803,3211.000,3214.000,3200.000
4444.300,3219.000,3191.000,3196.000
4446.798,3186.000,3201.000,3205.000
4449.295,3195.000,3201.000,3208.000
4451.790,3190.000,3210.000,3220.000
4454.285,3222.000,3200.000,3200.000
4456.780,3197.000,3196.000,3198.000
4459.272,3195.000,3206.000,3194.000
4461.765,3219.000,3186.000,3202.000
4464.256,3208.000,3187.000,3202.000
4466.746,3219.000,3205.000,3205.000
4469.236,3211.000,3217.000,3207.000
4471.725,3216.000,3203.000,3201.000
4474.213,3219.000,3203.000,3195.000
4476.700,3203.000,3205.000,3208.000
4479.185,3205.000,3201.000,3212.000
4481.670,3194.000,3200.000,3206.000
4484.156,3213.000,3200.000,3210.000
4486.639,3190.000,3211.000,3209.000
4489.122,3207.000,3193.000,3206.000
4491.604,3208.000,3202.000,3204.000
4494.084,3193.000,3195.000,3206.000
4496.565,3204.000,3213.000,3215.000
4499.044,3201.000,3211.000,3200.000
4501.522,3182.000,3206.000,3201.000
4504.000,3214.000,3198.000,3222.000
4506.476,3199.000,3206.000,3219.000
4508.952,3210.000,3209.000,3203.000
4511.427,3214.000,3203.000,3206.000
4513.901,3198.000,3200.000,3202.000
4516.375,3198.000,3207.000,3191.000
4518.848,3214.000,3229.000,3197.000
4521.318,3216.000,3197.000,3198.000
4523.790,3217.000,3210.000,3211.000
4526.260,3227.000,3201.000,3204.000
4528.728,3199.000,3198.000,3213.000
4531.196,3211.000,3183.000,3207.000
4533.664,3197.000,3206.000,3197.000
4536.130,3198.000,3219.000,3197.000
4538.595,3203.000,3198.000,3205.000
4541.061,3206.000,3197.000,3199.000
4543.524,3201.000,3203.000,3195.000
4545.988,3206.000,3190.000,3213.000
4548.450,3205.000,3210.000,3218.000
4550.911,3206.000,3191.000,3184.000
4553.372,3209.000,3186.000,3199.000
4555.830,3217.000,3187.000,3191.000
4558.289,3205.000,3175.000,3191.000
4560.748,3205.000,3214.000,3203.000
4563.204,3212.000,3184.000,3210.000
4565.661,3191.000,3194.000,3205.000
4568.117,3171.000,3192.000,3208.000
4570.570,3194.000,3180.000,3203.000
4573.024,3212.000,3189.000,3211.000
4575.478,3201.000,3195.000,3198.000
4577.928,3203.000,3189.000,3207.000
4580.380,3199.000,3188.000,3202.000
4582.830,3195.000,3195.000,3214.000
4585.280,3196.000,3192.000,3209.000
4587.728,3196.000,3197.000,3197.000
4590.175,3204.000,3196.000,3186.000
4592.624,3189.000,3185.000,3187.000
4595.069,3204.000,3193.000,3195.000
4597.514,3192.000,3205.000,3176.000
4599.959,3191.000,3181.000,3201.000
4602.402,3208.000,3189.000,3187.000
4604.845,3189.000,3190.000,3191.000
4607.287,3189.000,3199.000,3199.000
4609.728,3207.000,3207.000,3197.000
4612.169,3195.000,3178.000,3189.000
4614.607,3197.000,3202.000,3193.000
4617.046,3185.000,3186.000,3194.000
4619.484,3193.000,3192.000,3185.000
4621.921,3204.000,3188.000,3191.000
4624.357,3195.000,3196.000,3192.000
4626.791,3197.000,3200.000,3195.000
4629.227,3193.000,3186.000,3199.000
4631.659,3190.000,3195.000,3215.000
4634.092,3197.000,3186.000,3196.000
4636.525,3194.000,3191.000,3201.000
4638.955,3197.000,3205.000,3193.000
4641.385,3181.000,3188.000,3201.000
4643.815,3199.000,3195.000,3184.000
4646.242,3188.000,3193.000,3192.000
4648.671,3201.000,3199.000,3180.000
4651.098,3193.000,3185.000,3182.000
4653.523,3200.000,3197.000,3191.000
4655.949,3202.000,3192.000,3196.000
4658.373,3177.000,3191.000,3202.000
4660.796,3199.000,3186.000,3199.000
4663.219,3177.000,3191.000,3181.000
4665.640,3203.000,3180.000,3196.000
4668.062,3187.000,3194.000,3179.000
4670.482,3185.000,3186.000,3195.000
4672.901,3195.000,3182.000,3191.000
4675.319,3183.000,3198.000,3202.000
4677.738,3182.000,3179.000,3182.000
4680.154,3210.000,3185.000,3181.000
4682.571,3200.000,3182.000,3197.000
4684.986,3179.000,3198.000,3193.000
4687.400,3178.000,3181.000,3179.000
4689.814,3195.000,3179.000,3194.000
4692.226,3192.000,3188.000,3189.000
4694.638,3191.000,3179.000,3183.000
4697.049,3187.000,3183.000,3187.000
4699.460,3188.000,3191.000,3199.000
4701.869,3188.000,3195.000,3199.000
4704.277,3202.000,3197.000,3194.000
4706.685,3197.000,3182.000,3202.000
4709.092,3187.000,3200.000,3200.000
4711.499,3189.000,3200.000,3180.000
4713.903,3190.000,3192.000,3197.000
4716.308,3181.000,3197.000,3180.000
4718.712,3175.000,3180.000,3192.000
4721.115,3182.000,3195.000,3193.000
4723.516,3189.000,3183.000,3175.000
4725.918,3196.000,3183.000,3169.000
4728.318,3184.000,3175.000,3192.000
4730.718,3188.000,3189.000,3179.000
4733.116,3187.000,3182.000,3190.000
4735.514,3195.000,3185.000,3186.000
4737.912,3197.000,3182.000,3192.000
4740.307,3196.000,3191.000,3190.000
4742.703,3183.000,3190.000,3194.000
4745.099,3182.000,3192.000,3196.000
4747.491,3180.000,3176.000,3197.000
4749.884,3191.000,3195.000,3190.000
4752.278,3193.000,3191.000,3190.000
4754.668,3190.000,3205.000,3194.000
4757.059,3184.000,3201.000,3187.000
4759.449,3200.000,3196.000,3209.000
4761.838,3198.000,3197.000,3181.000
4764.226,3188.000,3196.000,3186.000
4766.613,3206.000,3194.000,3204.000
4769.000,3201.000,3195.000,3201.000
4771.385,3185.000,3198.000,3187.000
4773.770,3187.000,3196.000,3196.000
4776.155,3185.000,3200.000,3204.000
4778.538,3190.000,3191.000,3197.000
4780.920,3181.000,3215.000,3190.000
4783.301,3198.000,3193.000,3185.000
4785.683,3195.000,3180.000,3200.000
4788.063,3212.000,3184.000,3190.000
4790.442,3195.000,3177.000,3193.000
4792.821,3201.000,3198.000,3193.000
4795.198,3204.000,3200.000,3194.000
4797.575,3196.000,3204.000,3206.000
4799.951,3200.000,3180.000,3189.000
4802.326,3176.000,3187.000,3198.000
4804.701,3196.000,3187.000,3188.000
4807.073,3197.000,3205.000,3200.000
4809.447,3193.000,3198.000,3191.000
4811.818,4896.000,3191.000,3197.000
4814.190,3226.000,3187.000,3198.000
4816.560,3193.000,3200.000,3208.000
4818.930,3211.000,3190.000,3197.000
4821.298,3212.000,3207.000,3181.000
4823.666,3200.000,3215.000,3196.000
4826.034,3191.000,3184.000,3193.000
4828.400,3196.000,3188.000,3220.000
4830.765,3197.000,3205.000,3208.000
4833.131,3196.000,3200.000,3196.000
4835.494,3208.000,3183.000,3187.000
4837.857,3216.000,3190.000,3204.000
4840.220,3197.000,3199.000,3197.000
4842.581,3205.000,3201.000,3207.000
4844.942,3197.000,3191.000,3201.000
4847.303,3182.000,3199.000,3210.000
4849.662,3205.000,3208.000,3212.000
4852.020,3187.000,3202.000,3211.000
4854.376,3211.000,3197.000,3202.000
4856.734,3195.000,3200.000,3207.000
4859.090,3206.000,3220.000,3191.000
4861.444,3208.000,3207.000,3207.000
4863.799,3192.000,3198.000,3198.000
4866.153,3213.000,3201.000,3185.000
4868.506,3196.000,3194.000,3226.000
4870.857,3206.000,3221.000,3214.000
4873.209,3208.000,3218.000,3216.000
4875.559,3213.000,3221.000,3209.000
4877.909,3209.000,3216.000,3222.000
4880.257,3227.000,3234.000,3217.000
4882.606,3227.000,3211.000,3210.000
4884.953,3207.000,3230.000,3230.000
4887.299,3236.000,3206.000,3222.000
4889.644,3231.000,3220.000,3241.000
4891.990,3219.000,3224.000,3212.000
4894.334,3243.000,3230.000,3218.000
4896.677,3218.000,3235.000,3223.000
4899.021,3220.000,3241.000,3222.000
4901.360,3211.000,3221.000,3217.000
4903.703,3246.000,3235.000,3221.000