File: Raman/Silica/2025_09_12_12pct_Hydrated_SiO2_Glass_on_DAC_Culet_50X_532nm_74mW_Andor750_600gv_3400wn_6accum_30s_DePol_Loc2.csv
2654.492,769.000,759.000,769.000,758.000,772.000,767.000
2657.338,763.000,774.000,768.000,766.000,768.000,760.000
2660.180,767.000,754.000,754.000,757.000,761.000,769.000
2663.023,768.000,774.000,762.000,761.000,761.000,759.000
2665.866,779.000,767.000,765.000,765.000,772.000,763.000
2668.704,757.000,772.000,781.000,767.000,758.000,766.000
2671.545,774.000,765.000,753.000,767.000,767.000,767.000
2674.383,764.000,760.000,768.000,777.000,769.000,760.000
2677.221,758.000,770.000,756.000,749.000,773.000,783.000
2680.058,773.000,773.000,786.000,767.000,769.000,772.000
2682.894,770.000,748.000,758.000,767.000,760.000,758.000
2685.729,1720.000,773.000,768.000,767.000,757.000,760.000
2688.562,842.000,765.000,773.000,753.000,760.000,768.000
2691.395,772.000,766.000,750.000,763.000,758.000,737.000
2694.227,755.000,770.000,748.000,755.000,763.000,770.000
2697.056,755.000,779.000,755.000,760.000,749.000,761.000
2699.886,756.000,768.000,765.000,771.000,763.000,752.000
2702.715,762.000,759.000,755.000,758.000,757.000,762.000
2705.543,758.000,770.000,746.000,760.000,759.000,766.000
2708.369,769.000,766.000,763.000,753.000,765.000,778.000
2711.196,749.000,762.000,751.000,766.000,762.000,756.000
2714.020,759.000,754.000,759.000,760.000,768.000,746.000
2716.844,776.000,750.000,758.000,761.000,749.000,757.000
2719.668,758.000,770.000,752.000,757.000,756.000,772.000
2722.488,764.000,744.000,759.000,764.000,767.000,752.000
2725.309,773.000,760.000,773.000,774.000,765.000,761.000
2728.129,780.000,767.000,776.000,764.000,751.000,753.000
2730.947,762.000,760.000,757.000,762.000,748.000,745.000
2733.765,745.000,768.000,759.000,761.000,746.000,770.000
2736.583,752.000,767.000,756.000,752.000,776.000,762.000
2739.399,768.000,763.000,750.000,748.000,755.000,750.000
2742.214,762.000,766.000,756.000,770.000,750.000,761.000
2745.027,754.000,762.000,764.000,771.000,759.000,761.000
2747.840,767.000,748.000,774.000,755.000,766.000,768.000
2750.650,753.000,768.000,743.000,770.000,761.000,759.000
2753.462,756.000,760.000,757.000,755.000,766.000,756.000
2756.272,758.000,766.000,749.000,749.000,766.000,759.000
2759.081,757.000,776.000,771.000,760.000,763.000,756.000
2761.889,764.000,777.000,769.000,764.000,766.000,759.000
2764.696,748.000,755.000,764.000,773.000,753.000,754.000
2767.503,768.000,758.000,749.000,759.000,767.000,753.000
2770.307,769.000,764.000,763.000,762.000,757.000,755.000
2773.111,767.000,766.000,759.000,767.000,747.000,755.000
2775.915,762.000,762.000,772.000,764.000,769.000,772.000
2778.716,759.000,775.000,758.000,769.000,770.000,765.000
2781.517,776.000,770.000,763.000,771.000,756.000,767.000
2784.316,768.000,786.000,777.000,767.000,764.000,767.000
2787.116,762.000,758.000,771.000,765.000,761.000,1298.000
2789.915,767.000,764.000,762.000,764.000,752.000,749.000
2792.711,761.000,763.000,759.000,764.000,768.000,760.000
2795.507,772.000,762.000,764.000,780.000,763.000,765.000
2798.304,759.000,779.000,784.000,751.000,760.000,762.000
2801.098,778.000,771.000,766.000,759.000,770.000,773.000
2803.889,756.000,751.000,762.000,766.000,758.000,759.000
2806.682,756.000,773.000,755.000,753.000,772.000,758.000
2809.474,769.000,774.000,771.000,763.000,766.000,761.000
2812.264,779.000,764.000,764.000,761.000,772.000,757.000
2815.054,766.000,760.000,757.000,767.000,762.000,756.000
2817.842,753.000,757.000,774.000,774.000,764.000,774.000
2820.630,780.000,767.000,764.000,762.000,767.000,757.000
2823.416,755.000,772.000,772.000,762.000,767.000,767.000
2826.201,767.000,750.000,771.000,775.000,770.000,764.000
2828.986,757.000,767.000,768.000,768.000,759.000,762.000
2831.768,761.000,762.000,772.000,776.000,779.000,758.000
2834.551,776.000,777.000,767.000,779.000,766.000,784.000
2837.333,766.000,764.000,760.000,771.000,766.000,756.000
2840.113,752.000,764.000,775.000,772.000,754.000,762.000
2842.893,774.000,767.000,756.000,776.000,767.000,762.000
2845.672,766.000,770.000,767.000,770.000,757.000,764.000
2848.450,781.000,770.000,764.000,769.000,755.000,763.000
2851.227,760.000,762.000,769.000,770.000,768.000,773.000
2854.003,764.000,771.000,764.000,766.000,777.000,767.000
2856.776,773.000,770.000,775.000,755.000,763.000,767.000
2859.550,773.000,763.000,770.000,766.000,763.000,771.000
2862.323,772.000,779.000,775.000,751.000,769.000,783.000
2865.095,756.000,771.000,765.000,779.000,754.000,780.000
2867.867,798.000,770.000,753.000,767.000,775.000,754.000
2870.636,771.000,778.000,766.000,775.000,773.000,779.000
2873.406,773.000,767.000,761.000,750.000,778.000,775.000
2876.174,785.000,756.000,777.000,766.000,769.000,766.000
2878.941,774.000,767.000,772.000,783.000,774.000,758.000
2881.707,767.000,760.000,771.000,774.000,771.000,770.000
2884.471,791.000,785.000,781.000,781.000,761.000,770.000
2887.236,774.000,783.000,775.000,785.000,780.000,774.000
2889.998,786.000,802.000,776.000,784.000,771.000,763.000
2892.761,782.000,782.000,791.000,772.000,770.000,771.000
2895.522,779.000,783.000,773.000,766.000,756.000,760.000
2898.284,778.000,776.000,774.000,767.000,773.000,767.000
2901.043,770.000,778.000,780.000,764.000,779.000,785.000
2903.802,773.000,768.000,775.000,772.000,779.000,772.000
2906.558,771.000,769.000,777.000,773.000,776.000,770.000
2909.314,783.000,788.000,787.000,799.000,788.000,795.000
2912.069,788.000,773.000,782.000,789.000,789.000,779.000
2914.825,772.000,787.000,780.000,795.000,781.000,770.000
2917.578,785.000,795.000,803.000,783.000,779.000,784.000
2920.331,786.000,774.000,781.000,780.000,779.000,784.000
2923.083,784.000,794.000,787.000,790.000,795.000,792.000
2925.834,798.000,775.000,767.000,788.000,784.000,784.000
2928.584,783.000,772.000,782.000,792.000,777.000,781.000
2931.333,771.000,776.000,766.000,779.000,782.000,769.000
2934.081,767.000,775.000,779.000,785.000,768.000,786.000
2936.826,779.000,771.000,767.000,776.000,768.000,784.000
2939.573,787.000,766.000,781.000,784.000,783.000,785.000
2942.319,774.000,764.000,782.000,781.000,778.000,777.000
2945.063,777.000,781.000,787.000,781.000,772.000,776.000
2947.805,771.000,786.000,786.000,758.000,775.000,771.000
2950.548,769.000,793.000,791.000,785.000,779.000,772.000
2953.290,786.000,781.000,775.000,778.000,766.000,767.000
2956.030,774.000,795.000,788.000,771.000,781.000,783.000
2958.769,785.000,791.000,783.000,781.000,790.000,781.000
2961.509,780.000,786.000,789.000,798.000,790.000,805.000
2964.244,789.000,779.000,793.000,792.000,788.000,787.000
2966.981,801.000,795.000,799.000,808.000,796.000,785.000
2969.717,808.000,806.000,809.000,794.000,785.000,806.000
2972.452,811.000,804.000,809.000,807.000,808.000,804.000
2975.185,810.000,802.000,797.000,798.000,801.000,797.000
2977.919,791.000,795.000,789.000,808.000,802.000,790.000
2980.651,805.000,778.000,791.000,774.000,798.000,801.000
2983.382,805.000,786.000,786.000,785.000,796.000,786.000
2986.112,809.000,798.000,801.000,795.000,794.000,800.000
2988.840,794.000,797.000,793.000,799.000,795.000,785.000
2991.567,800.000,802.000,787.000,787.000,777.000,785.000
2994.295,790.000,791.000,795.000,790.000,790.000,775.000
2997.021,803.000,800.000,774.000,804.000,779.000,785.000
2999.746,788.000,771.000,805.000,792.000,785.000,785.000
3002.471,797.000,793.000,795.000,793.000,798.000,802.000
3005.195,803.000,790.000,795.000,779.000,806.000,791.000
3007.916,793.000,786.000,793.000,792.000,780.000,791.000
3010.638,793.000,791.000,792.000,779.000,784.000,789.000
3013.358,782.000,776.000,790.000,802.000,774.000,799.000
3016.077,790.000,790.000,778.000,785.000,785.000,783.000
3018.797,775.000,806.000,803.000,783.000,781.000,788.000
3021.514,790.000,791.000,803.000,783.000,805.000,802.000
3024.231,775.000,798.000,791.000,779.000,797.000,790.000
3026.947,787.000,788.000,779.000,786.000,792.000,797.000
3029.662,806.000,797.000,779.000,789.000,795.000,805.000
3032.377,795.000,790.000,794.000,802.000,794.000,794.000
3035.089,791.000,789.000,795.000,785.000,798.000,773.000
3037.801,788.000,789.000,797.000,798.000,802.000,790.000
3040.512,813.000,799.000,787.000,809.000,789.000,791.000
3043.222,806.000,798.000,793.000,807.000,794.000,799.000
3045.932,804.000,790.000,795.000,783.000,807.000,798.000
3048.640,817.000,800.000,802.000,795.000,786.000,802.000
3051.348,791.000,801.000,787.000,792.000,802.000,804.000
3054.054,801.000,808.000,792.000,796.000,782.000,801.000
3056.760,800.000,800.000,789.000,804.000,790.000,800.000
3059.465,805.000,804.000,798.000,791.000,789.000,795.000
3062.168,817.000,795.000,796.000,815.000,825.000,795.000
3064.872,787.000,806.000,805.000,799.000,806.000,801.000
3067.572,804.000,802.000,801.000,799.000,796.000,796.000
3070.273,790.000,801.000,782.000,789.000,798.000,792.000
3072.974,829.000,820.000,798.000,806.000,802.000,800.000
3075.673,802.000,791.000,799.000,796.000,815.000,778.000
3078.371,799.000,814.000,804.000,800.000,813.000,800.000
3081.068,810.000,812.000,804.000,791.000,808.000,800.000
3083.765,811.000,800.000,826.000,794.000,819.000,790.000
3086.461,803.000,802.000,804.000,811.000,809.000,816.000
3089.156,803.000,795.000,802.000,817.000,806.000,799.000
3091.847,828.000,809.000,807.000,788.000,800.000,801.000
3094.540,813.000,808.000,821.000,799.000,807.000,804.000
3097.231,812.000,801.000,819.000,806.000,795.000,805.000
3099.923,800.000,817.000,802.000,807.000,812.000,809.000
3102.613,790.000,814.000,824.000,818.000,811.000,810.000
3105.303,807.000,812.000,799.000,818.000,813.000,824.000
3107.991,811.000,806.000,818.000,811.000,821.000,801.000
3110.677,807.000,822.000,820.000,820.000,807.000,826.000
3113.363,819.000,794.000,801.000,809.000,797.000,802.000
3116.049,824.000,803.000,810.000,826.000,831.000,828.000
3118.732,826.000,830.000,820.000,810.000,819.000,819.000
3121.416,820.000,809.000,837.000,826.000,829.000,818.000
3124.098,810.000,815.000,828.000,812.000,836.000,806.000
3126.780,825.000,810.000,817.000,836.000,828.000,825.000
3129.461,841.000,831.000,819.000,813.000,825.000,839.000
3132.141,831.000,831.000,819.000,822.000,823.000,823.000
3134.820,817.000,822.000,840.000,826.000,821.000,809.000
3137.497,835.000,835.000,815.000,842.000,837.000,824.000
3140.175,827.000,823.000,823.000,817.000,843.000,833.000
3142.850,822.000,831.000,818.000,818.000,835.000,828.000
3145.525,837.000,843.000,811.000,808.000,825.000,815.000
3148.199,832.000,837.000,837.000,833.000,835.000,820.000
3150.873,835.000,829.000,847.000,851.000,843.000,827.000
3153.545,825.000,847.000,835.000,860.000,825.000,837.000
3156.217,833.000,842.000,851.000,846.000,838.000,840.000
3158.887,843.000,839.000,826.000,832.000,841.000,835.000
3161.558,832.000,831.000,850.000,841.000,832.000,846.000
3164.226,838.000,862.000,851.000,843.000,832.000,837.000
3166.894,858.000,835.000,847.000,819.000,834.000,846.000
3169.560,837.000,869.000,867.000,852.000,844.000,854.000
3172.226,842.000,843.000,832.000,849.000,849.000,834.000
3174.892,829.000,840.000,857.000,828.000,850.000,846.000
3177.556,868.000,868.000,841.000,848.000,858.000,851.000
3180.219,838.000,864.000,852.000,851.000,860.000,839.000
3182.882,861.000,859.000,859.000,845.000,872.000,850.000
3185.544,855.000,863.000,860.000,858.000,843.000,856.000
3188.204,864.000,857.000,858.000,850.000,855.000,838.000
3190.864,857.000,868.000,861.000,869.000,856.000,863.000
3193.522,856.000,862.000,884.000,848.000,860.000,853.000
3196.180,876.000,879.000,859.000,865.000,865.000,866.000
3198.836,867.000,869.000,859.000,860.000,867.000,851.000
3201.493,865.000,876.000,861.000,865.000,858.000,873.000
3204.148,861.000,853.000,855.000,863.000,863.000,859.000
3206.803,867.000,854.000,877.000,872.000,868.000,890.000
3209.456,861.000,872.000,878.000,857.000,867.000,877.000
3212.109,862.000,876.000,877.000,860.000,869.000,887.000
3214.761,875.000,863.000,856.000,868.000,868.000,865.000
3217.412,890.000,885.000,874.000,885.000,879.000,871.000
3220.060,876.000,895.000,861.000,871.000,887.000,873.000
3222.709,886.000,885.000,868.000,848.000,872.000,875.000
3225.357,896.000,876.000,876.000,892.000,873.000,889.000
3228.004,904.000,874.000,885.000,876.000,885.000,875.000
3230.650,890.000,884.000,884.000,907.000,892.000,876.000
3233.295,874.000,871.000,872.000,883.000,881.000,876.000
3235.940,908.000,890.000,887.000,877.000,883.000,891.000
3238.584,882.000,890.000,886.000,887.000,886.000,877.000
3241.227,894.000,891.000,875.000,879.000,887.000,875.000
3243.868,889.000,896.000,887.000,887.000,881.000,893.000
3246.507,905.000,887.000,914.000,874.000,876.000,893.000
3249.148,893.000,889.000,885.000,891.000,873.000,878.000
3251.787,890.000,886.000,891.000,901.000,891.000,893.000
3254.425,898.000,895.000,892.000,886.000,899.000,889.000
3257.063,917.000,895.000,895.000,906.000,878.000,880.000
3259.698,914.000,901.000,904.000,890.000,889.000,894.000
3262.334,912.000,894.000,901.000,891.000,909.000,890.000
3264.969,902.000,898.000,900.000,917.000,918.000,880.000
3267.603,887.000,895.000,885.000,886.000,901.000,905.000
3270.234,909.000,887.000,906.000,913.000,884.000,895.000
3272.866,897.000,915.000,888.000,881.000,905.000,906.000
3275.497,907.000,922.000,921.000,903.000,890.000,914.000
3278.127,894.000,909.000,883.000,912.000,905.000,906.000
3280.757,931.000,893.000,895.000,887.000,903.000,906.000
3283.385,904.000,908.000,908.000,901.000,903.000,899.000
3286.013,911.000,922.000,912.000,895.000,902.000,912.000
3288.639,897.000,919.000,909.000,917.000,901.000,911.000
3291.264,911.000,920.000,904.000,922.000,914.000,909.000
3293.890,919.000,914.000,919.000,893.000,899.000,914.000
3296.512,919.000,899.000,902.000,932.000,902.000,924.000
3299.135,910.000,921.000,910.000,904.000,910.000,915.000
3301.757,900.000,914.000,920.000,915.000,914.000,919.000
3304.379,921.000,933.000,929.000,933.000,920.000,931.000
3306.999,933.000,899.000,925.000,925.000,938.000,937.000
3309.618,937.000,936.000,928.000,921.000,919.000,929.000
3312.237,951.000,929.000,931.000,922.000,939.000,914.000
3314.855,928.000,915.000,915.000,913.000,939.000,916.000
3317.472,923.000,917.000,926.000,933.000,920.000,937.000
3320.087,932.000,919.000,933.000,926.000,952.000,933.000
3322.701,941.000,935.000,952.000,925.000,928.000,934.000
3325.316,930.000,926.000,928.000,922.000,936.000,935.000
3327.928,942.000,929.000,947.000,930.000,956.000,917.000
3330.542,928.000,952.000,929.000,951.000,934.000,936.000
3333.153,927.000,934.000,940.000,928.000,933.000,951.000
3335.763,940.000,936.000,943.000,940.000,950.000,930.000
3338.373,937.000,934.000,929.000,940.000,946.000,972.000
3340.982,970.000,959.000,933.000,951.000,950.000,931.000
3343.591,940.000,938.000,941.000,953.000,951.000,955.000
3346.196,939.000,976.000,954.000,960.000,935.000,931.000
3348.803,950.000,935.000,938.000,936.000,935.000,962.000
3351.408,953.000,956.000,957.000,934.000,949.000,944.000
3354.012,958.000,947.000,943.000,968.000,971.000,952.000
3356.615,953.000,977.000,948.000,961.000,957.000,957.000
3359.218,964.000,975.000,945.000,947.000,961.000,959.000
3361.820,965.000,973.000,956.000,962.000,977.000,967.000
3364.421,971.000,970.000,963.000,946.000,963.000,970.000
3367.022,961.000,966.000,976.000,980.000,972.000,972.000
3369.619,972.000,962.000,973.000,954.000,978.000,976.000
3372.217,967.000,994.000,963.000,963.000,955.000,977.000
3374.815,962.000,969.000,987.000,964.000,983.000,971.000
3377.412,948.000,982.000,993.000,979.000,974.000,968.000
3380.008,993.000,988.000,965.000,959.000,986.000,977.000
3382.603,997.000,998.000,986.000,965.000,959.000,980.000
3385.196,966.000,974.000,972.000,963.000,1005.000,975.000
3387.789,989.000,980.000,979.000,988.000,965.000,973.000
3390.382,1008.000,987.000,994.000,977.000,968.000,977.000
3392.973,1011.000,985.000,999.000,982.000,982.000,983.000
3395.562,996.000,991.000,992.000,1000.000,999.000,982.000
3398.152,999.000,1011.000,995.000,998.000,992.000,1009.000
3400.740,1009.000,996.000,1018.000,981.000,990.000,983.000
3403.328,1006.000,999.000,1002.000,1005.000,995.000,996.000
3405.916,987.000,1001.000,996.000,1009.000,976.000,989.000
3408.502,1012.000,992.000,999.000,1008.000,999.000,1023.000
3411.087,1010.000,984.000,999.000,1025.000,1010.000,1010.000
3413.672,1007.000,1017.000,1013.000,998.000,1002.000,1006.000
3416.255,1005.000,1013.000,996.000,1011.000,997.000,1028.000
3418.838,1004.000,1021.000,989.000,1021.000,1029.000,1006.000
3421.418,1021.000,1024.000,1019.000,1019.000,1005.000,998.000
3423.999,1019.000,1010.000,1034.000,1030.000,993.000,1033.000
3426.579,1018.000,1032.000,998.000,1005.000,996.000,1016.000
3429.158,999.000,991.000,995.000,1004.000,1015.000,1037.000
3431.737,1019.000,1027.000,1030.000,1011.000,1015.000,1017.000
3434.314,999.000,1036.000,1036.000,1033.000,1018.000,1018.000
3436.891,1011.000,1029.000,1012.000,1026.000,1020.000,986.000
3439.467,1050.000,1021.000,1022.000,1015.000,1012.000,1023.000
3442.041,1017.000,992.000,1011.000,1013.000,989.000,1007.000
3444.614,1036.000,1030.000,1021.000,1035.000,1034.000,1016.000
3447.188,1027.000,1012.000,1015.000,1022.000,1037.000,1030.000
3449.759,1033.000,1030.000,1014.000,1034.000,1030.000,1019.000
3452.331,1031.000,1014.000,1024.000,1008.000,1020.000,1022.000
3454.901,1021.000,1058.000,1020.000,1043.000,1023.000,1019.000
3457.472,1022.000,1026.000,1037.000,1045.000,1034.000,1015.000
3460.040,1022.000,1017.000,1039.000,1017.000,1044.000,1018.000
3462.608,1037.000,1040.000,1046.000,1029.000,1020.000,1021.000
3465.175,1025.000,1019.000,1005.000,1036.000,1021.000,1019.000
3467.740,1001.000,1047.000,1013.000,1041.000,1020.000,973.000
3470.305,1011.000,1033.000,1046.000,1023.000,1022.000,1015.000
3472.870,1039.000,1027.000,1029.000,1029.000,1028.000,1029.000
3475.433,1026.000,1010.000,1022.000,1021.000,1030.000,1025.000
3477.997,1028.000,1043.000,1023.000,1023.000,1003.000,1028.000
3480.559,1017.000,1007.000,1021.000,1029.000,1020.000,1002.000
3483.120,1028.000,1015.000,1039.000,1016.000,1011.000,1020.000
3485.680,1024.000,1009.000,1008.000,1028.000,1041.000,1011.000
3488.239,1031.000,1041.000,1036.000,1033.000,1019.000,1021.000
3490.798,1013.000,1014.000,1033.000,1023.000,1026.000,1023.000
3493.354,1029.000,1025.000,1022.000,1016.000,1006.000,1031.000
3495.911,1037.000,1010.000,1023.000,1008.000,1035.000,1027.000
3498.467,1034.000,1030.000,1016.000,1010.000,1023.000,1018.000
3501.023,1034.000,1018.000,1008.000,1012.000,1030.000,1037.000
3503.577,1020.000,1017.000,1034.000,1028.000,1019.000,1023.000
3506.130,1003.000,1007.000,994.000,1014.000,1011.000,1031.000
3508.683,1025.000,1026.000,1027.000,1025.000,1023.000,986.000
3511.235,999.000,1009.000,1029.000,1017.000,1006.000,993.000
3513.785,1001.000,1029.000,1004.000,998.000,1008.000,985.000
3516.336,1013.000,1006.000,1010.000,1005.000,1018.000,1015.000
3518.883,1008.000,1028.000,1025.000,989.000,991.000,998.000
3521.431,988.000,1004.000,1000.000,1004.000,1019.000,1012.000
3523.979,993.000,1016.000,1006.000,1015.000,1020.000,994.000
3526.526,1000.000,994.000,996.000,1015.000,1026.000,997.000
3529.072,991.000,1000.000,1011.000,979.000,1019.000,1019.000
3531.617,1011.000,992.000,1017.000,1013.000,1014.000,991.000
3534.160,1008.000,999.000,988.000,985.000,998.000,1011.000
3536.704,1016.000,1000.000,999.000,988.000,1018.000,1013.000
3539.246,1011.000,988.000,997.000,990.000,987.000,1005.000
3541.787,996.000,992.000,1011.000,975.000,973.000,986.000
3544.327,1009.000,983.000,983.000,983.000,1016.000,986.000
3546.867,1011.000,985.000,993.000,987.000,985.000,995.000
3549.406,987.000,999.000,978.000,1019.000,977.000,983.000
3551.944,972.000,986.000,969.000,980.000,973.000,995.000
3554.482,971.000,979.000,981.000,992.000,989.000,990.000
3557.017,977.000,1006.000,986.000,967.000,981.000,989.000
3559.553,1008.000,968.000,978.000,971.000,989.000,985.000
3562.088,984.000,963.000,1003.000,973.000,971.000,996.000
3564.623,979.000,992.000,983.000,987.000,971.000,979.000
3567.154,962.000,968.000,995.000,960.000,959.000,957.000
3569.686,980.000,983.000,985.000,979.000,991.000,980.000
3572.218,977.000,981.000,986.000,968.000,967.000,999.000
3574.749,973.000,990.000,968.000,958.000,958.000,968.000
3577.278,997.000,973.000,1005.000,989.000,973.000,970.000
3579.807,988.000,970.000,998.000,967.000,971.000,972.000
3582.335,976.000,992.000,982.000,972.000,983.000,992.000
3584.862,987.000,974.000,956.000,968.000,1002.000,975.000
3587.389,977.000,998.000,958.000,965.000,970.000,963.000
3589.914,972.000,973.000,981.000,973.000,985.000,983.000
3592.437,1003.000,987.000,998.000,995.000,971.000,985.000
3594.961,984.000,965.000,987.000,988.000,980.000,980.000
3597.484,957.000,958.000,983.000,996.000,977.000,968.000
3600.006,974.000,985.000,979.000,954.000,990.000,981.000
3602.528,971.000,963.000,957.000,966.000,970.000,979.000
3605.048,976.000,971.000,967.000,939.000,951.000,978.000
3607.568,971.000,942.000,951.000,958.000,942.000,964.000
3610.086,962.000,972.000,960.000,954.000,942.000,964.000
3612.604,948.000,937.000,932.000,939.000,963.000,925.000
3615.120,947.000,954.000,943.000,937.000,979.000,957.000
3617.637,941.000,955.000,959.000,955.000,954.000,937.000
3620.153,930.000,960.000,954.000,955.000,949.000,959.000
3622.667,945.000,927.000,960.000,960.000,937.000,943.000
3625.181,959.000,955.000,965.000,944.000,937.000,949.000
3627.694,940.000,956.000,957.000,930.000,959.000,915.000
3630.206,954.000,945.000,935.000,959.000,939.000,926.000
3632.718,939.000,941.000,935.000,939.000,928.000,958.000
3635.227,952.000,924.000,925.000,927.000,945.000,939.000
3637.736,950.000,959.000,941.000,962.000,927.000,935.000
3640.245,923.000,953.000,922.000,945.000,925.000,938.000
3642.753,933.000,935.000,946.000,934.000,936.000,922.000
3645.260,951.000,934.000,939.000,914.000,926.000,935.000
3647.767,919.000,924.000,939.000,930.000,926.000,926.000
3650.272,920.000,922.000,930.000,940.000,928.000,918.000
3652.777,931.000,906.000,909.000,908.000,911.000,930.000
3655.281,928.000,921.000,920.000,919.000,914.000,902.000
3657.784,916.000,903.000,903.000,906.000,933.000,923.000
3660.286,909.000,919.000,910.000,920.000,914.000,920.000
3662.786,893.000,897.000,886.000,905.000,911.000,911.000
3665.286,902.000,909.000,906.000,904.000,924.000,911.000
3667.786,886.000,907.000,895.000,898.000,898.000,894.000
3670.285,896.000,882.000,897.000,891.000,880.000,887.000
3672.783,886.000,874.000,883.000,871.000,886.000,865.000
3675.280,890.000,870.000,864.000,859.000,850.000,864.000
3677.777,886.000,851.000,855.000,856.000,851.000,865.000
3680.272,857.000,865.000,856.000,852.000,845.000,851.000
3682.767,848.000,851.000,855.000,853.000,852.000,846.000
3685.262,846.000,835.000,839.000,839.000,820.000,854.000
3687.753,815.000,829.000,823.000,852.000,813.000,823.000
3690.245,827.000,813.000,835.000,825.000,812.000,811.000
3692.737,820.000,809.000,826.000,816.000,812.000,825.000
3695.228,792.000,817.000,808.000,813.000,814.000,809.000
3697.717,802.000,796.000,798.000,804.000,818.000,787.000
3700.206,795.000,797.000,792.000,795.000,813.000,807.000
3702.695,796.000,791.000,779.000,804.000,786.000,792.000
3705.181,799.000,780.000,794.000,785.000,801.000,780.000
3707.668,799.000,790.000,778.000,791.000,784.000,781.000
3710.152,773.000,789.000,775.000,793.000,796.000,772.000
3712.638,773.000,777.000,768.000,782.000,778.000,789.000
3715.122,782.000,780.000,771.000,783.000,780.000,786.000
3717.605,772.000,776.000,774.000,774.000,773.000,767.000
3720.087,783.000,782.000,772.000,767.000,752.000,770.000
3722.569,756.000,776.000,767.000,767.000,770.000,775.000
3725.050,778.000,784.000,771.000,765.000,773.000,757.000
3727.531,753.000,766.000,766.000,763.000,760.000,772.000
3730.009,769.000,768.000,767.000,747.000,769.000,750.000
3732.487,759.000,761.000,753.000,765.000,758.000,767.000
3734.964,767.000,754.000,764.000,768.000,767.000,765.000
3737.441,759.000,781.000,759.000,775.000,766.000,753.000
3739.917,768.000,765.000,775.000,774.000,769.000,778.000
3742.392,766.000,761.000,768.000,766.000,758.000,754.000
3744.866,758.000,759.000,752.000,781.000,753.000,763.000
3747.340,755.000,769.000,756.000,763.000,754.000,745.000
3749.813,764.000,749.000,761.000,737.000,738.000,767.000
3752.284,749.000,752.000,760.000,759.000,763.000,747.000
3754.756,754.000,761.000,746.000,752.000,753.000,748.000
3757.226,767.000,759.000,763.000,762.000,753.000,755.000
3759.694,763.000,748.000,771.000,757.000,755.000,755.000
3762.162,761.000,759.000,743.000,755.000,753.000,752.000
3764.630,755.000,752.000,754.000,764.000,742.000,743.000
3767.097,763.000,758.000,756.000,766.000,761.000,740.000
3769.564,752.000,749.000,747.000,734.000,758.000,750.000
3772.029,756.000,755.000,744.000,765.000,759.000,759.000
3774.494,763.000,746.000,748.000,758.000,760.000,766.000
3776.957,766.000,750.000,755.000,760.000,751.000,761.000
3779.421,758.000,751.000,743.000,755.000,752.000,752.000
3781.882,772.000,757.000,751.000,761.000,758.000,750.000
3784.343,759.000,767.000,749.000,735.000,762.000,751.000
3786.803,735.000,749.000,752.000,747.000,749.000,745.000
3789.262,745.000,755.000,744.000,756.000,756.000,742.000
3791.722,758.000,748.000,750.000,756.000,751.000,748.000
3794.180,745.000,751.000,748.000,746.000,748.000,759.000
3796.637,743.000,753.000,762.000,764.000,758.000,767.000
3799.094,742.000,746.000,752.000,761.000,751.000,741.000
3801.550,746.000,745.000,747.000,739.000,742.000,744.000
3804.003,759.000,764.000,751.000,756.000,740.000,756.000
3806.457,744.000,746.000,754.000,734.000,747.000,747.000
3808.911,753.000,733.000,738.000,751.000,747.000,762.000
3811.363,747.000,756.000,759.000,764.000,742.000,742.000
3813.814,740.000,744.000,755.000,738.000,755.000,762.000
3816.266,750.000,749.000,747.000,754.000,744.000,754.000
3818.715,745.000,746.000,750.000,749.000,752.000,745.000
3821.165,741.000,753.000,760.000,744.000,756.000,731.000
3823.613,748.000,759.000,744.000,742.000,742.000,739.000
3826.061,747.000,748.000,742.000,751.000,741.000,747.000
3828.507,754.000,743.000,754.000,764.000,764.000,739.000
3830.953,743.000,748.000,743.000,755.000,749.000,735.000
3833.398,758.000,749.000,759.000,748.000,750.000,740.000
3835.842,745.000,747.000,745.000,765.000,749.000,730.000
3838.286,747.000,742.000,747.000,741.000,743.000,740.000
3840.730,734.000,756.000,757.000,764.000,742.000,748.000
3843.172,744.000,739.000,757.000,756.000,749.000,754.000
3845.613,757.000,747.000,747.000,749.000,750.000,739.000
3848.053,754.000,752.000,754.000,750.000,745.000,760.000
3850.493,755.000,755.000,749.000,735.000,737.000,752.000
3852.931,750.000,758.000,754.000,747.000,747.000,747.000
3855.369,751.000,738.000,756.000,748.000,753.000,747.000
3857.807,759.000,761.000,755.000,757.000,757.000,747.000
3860.243,740.000,742.000,762.000,744.000,753.000,747.000
3862.679,732.000,755.000,743.000,763.000,753.000,751.000
3865.113,756.000,757.000,735.000,747.000,746.000,751.000
3867.547,759.000,738.000,747.000,755.000,756.000,763.000
3869.981,763.000,748.000,747.000,758.000,757.000,747.000
3872.413,749.000,738.000,745.000,743.000,749.000,748.000
3874.844,759.000,751.000,751.000,748.000,759.000,751.000
3877.275,748.000,765.000,736.000,754.000,748.000,743.000
3879.705,747.000,756.000,749.000,743.000,759.000,763.000
3882.134,747.000,754.000,744.000,753.000,736.000,752.000
3884.563,741.000,747.000,742.000,753.000,760.000,752.000
3886.991,744.000,743.000,741.000,751.000,746.000,756.000
3889.418,758.000,754.000,759.000,735.000,748.000,761.000
3891.844,741.000,737.000,735.000,747.000,745.000,749.000
3894.269,742.000,759.000,747.000,743.000,742.000,753.000
3896.693,743.000,751.000,759.000,745.000,755.000,746.000
3899.117,770.000,756.000,744.000,755.000,754.000,735.000
3901.540,753.000,751.000,751.000,755.000,744.000,766.000
3903.962,742.000,742.000,747.000,746.000,749.000,750.000
3906.383,746.000,759.000,739.000,748.000,740.000,760.000
3908.805,752.000,752.000,756.000,746.000,748.000,739.000
3911.224,748.000,743.000,752.000,754.000,747.000,747.000
3913.643,755.000,742.000,754.000,747.000,749.000,750.000
3916.062,754.000,743.000,742.000,761.000,749.000,752.000
3918.479,741.000,755.000,750.000,750.000,759.000,758.000
3920.897,748.000,751.000,746.000,750.000,739.000,747.000
3923.311,763.000,754.000,750.000,752.000,746.000,755.000
3925.726,754.000,739.000,738.000,743.000,748.000,736.000
3928.140,740.000,738.000,745.000,760.000,741.000,738.000
3930.554,747.000,754.000,754.000,749.000,756.000,746.000
3932.967,746.000,746.000,756.000,749.000,756.000,738.000
3935.379,748.000,745.000,734.000,749.000,760.000,747.000
3937.791,744.000,754.000,757.000,751.000,744.000,731.000
3940.201,747.000,743.000,758.000,749.000,750.000,756.000
3942.610,763.000,746.000,750.000,760.000,743.000,745.000
3945.018,766.000,740.000,760.000,757.000,762.000,754.000
3947.427,746.000,748.000,745.000,759.000,761.000,753.000
3949.834,763.000,759.000,751.000,753.000,762.000,728.000
3952.240,758.000,745.000,769.000,745.000,749.000,753.000
3954.647,758.000,756.000,764.000,749.000,746.000,744.000
3957.052,761.000,767.000,754.000,760.000,748.000,746.000
3959.456,743.000,752.000,747.000,756.000,762.000,773.000
3961.859,751.000,743.000,749.000,735.000,760.000,753.000
3964.261,752.000,739.000,763.000,757.000,733.000,751.000
3966.662,747.000,747.000,754.000,739.000,757.000,753.000
3969.064,756.000,748.000,755.000,757.000,752.000,753.000
3971.464,759.000,745.000,752.000,764.000,752.000,760.000
3973.863,760.000,762.000,759.000,756.000,760.000,746.000
3976.263,749.000,758.000,751.000,773.000,750.000,753.000
3978.661,923.000,758.000,754.000,754.000,752.000,747.000
3981.058,744.000,757.000,764.000,755.000,745.000,750.000
3983.454,771.000,747.000,750.000,764.000,762.000,754.000
3985.849,755.000,759.000,754.000,770.000,766.000,770.000
3988.245,759.000,752.000,758.000,771.000,767.000,772.000
3989.441,772.000,771.000,752.000,761.000,767.000,763.000