File: Raman/Silica/2025_08_23_29Si17O2_Glass_2050C_Quenched_50X_532nm_74mW_Andor750_1200gv_480wn_3accum_30s_UnPol_Pos7.csv
7.043,2526.000,2508.000,2493.000
7.961,2420.000,2436.000,2423.000
8.876,2411.000,2402.000,2439.000
9.795,2316.000,2338.000,2302.000
10.712,2247.000,2279.000,2288.000
11.627,2171.000,2192.000,2214.000
12.544,2207.000,2250.000,2223.000
13.462,2214.000,2228.000,2238.000
14.379,2219.000,2272.000,2287.000
15.294,2339.000,2374.000,2370.000
16.212,2460.000,2422.000,2453.000
17.129,2455.000,2465.000,2490.000
18.044,2540.000,2538.000,2549.000
18.960,2623.000,2541.000,2577.000
19.877,2676.000,2719.000,2626.000
20.791,2801.000,2779.000,2811.000
21.709,3003.000,2925.000,2942.000
22.625,2981.000,2955.000,2988.000
23.541,3085.000,3087.000,3118.000
24.456,3065.000,3090.000,3140.000
25.372,3046.000,3077.000,3114.000
26.288,3176.000,3162.000,3156.000
27.202,3312.000,3321.000,3245.000
28.118,3479.000,3455.000,3403.000
29.034,3607.000,3702.000,3578.000
29.947,3973.000,3896.000,3939.000
30.864,3979.000,4003.000,4095.000
31.779,3896.000,3871.000,3927.000
32.695,3870.000,3871.000,3908.000
33.607,3753.000,3781.000,3798.000
34.522,3654.000,3667.000,3670.000
35.439,3655.000,3715.000,3625.000
36.351,3718.000,3690.000,3697.000
37.266,3735.000,3819.000,3716.000
38.181,3906.000,3963.000,3912.000
39.094,4123.000,4126.000,4091.000
40.009,4097.000,4196.000,4101.000
40.924,3982.000,4022.000,4032.000
41.838,3998.000,3986.000,3941.000
42.751,3966.000,3916.000,3906.000
43.666,4079.000,4049.000,4084.000
44.580,4143.000,4202.000,4156.000
45.492,4041.000,4007.000,4085.000
46.406,3969.000,3926.000,3946.000
47.320,4081.000,4115.000,4035.000
48.232,4051.000,4028.000,4013.000
49.145,3997.000,3969.000,3978.000
50.059,4037.000,4021.000,4055.000
50.973,4138.000,4036.000,4035.000
51.885,4001.000,4084.000,4099.000
52.799,4023.000,4031.000,4071.000
53.712,4064.000,4061.000,4072.000
54.623,4284.000,4211.000,4166.000
55.537,4498.000,4519.000,4500.000
56.449,4220.000,4207.000,4236.000
57.361,3970.000,4017.000,3977.000
58.274,3967.000,3947.000,3982.000
59.186,3904.000,3913.000,3998.000
60.100,3893.000,3903.000,3908.000
61.010,3955.000,3959.000,3922.000
61.923,3973.000,3961.000,4022.000
62.836,4184.000,4084.000,4195.000
63.746,4091.000,4134.000,4159.000
64.659,4055.000,3927.000,4000.000
65.570,4075.000,4069.000,4098.000
66.481,4094.000,4062.000,4099.000
67.394,4136.000,4176.000,4116.000
68.305,3995.000,4001.000,3931.000
69.217,3862.000,3881.000,3815.000
70.127,4024.000,3928.000,3910.000
71.038,4133.000,4187.000,4127.000
71.950,4037.000,4020.000,3987.000
72.859,3896.000,3916.000,3890.000
73.771,3898.000,3912.000,3923.000
74.682,3905.000,3922.000,3916.000
75.591,3886.000,3876.000,3929.000
76.503,3792.000,3926.000,3842.000
77.415,3908.000,3918.000,3929.000
78.325,4057.000,4023.000,3989.000
79.234,4121.000,4120.000,4112.000
80.146,3794.000,3833.000,3851.000
81.056,3825.000,3768.000,3763.000
81.965,3849.000,3803.000,3819.000
82.876,3804.000,3763.000,3795.000
83.786,3765.000,3747.000,3859.000
84.694,3824.000,3848.000,3832.000
85.604,3866.000,3868.000,3933.000
86.515,3980.000,4035.000,3953.000
87.425,4046.000,4054.000,3991.000
88.333,3857.000,3894.000,3840.000
89.244,3830.000,3833.000,3835.000
90.153,3930.000,3846.000,3871.000
91.061,3769.000,3805.000,3799.000
91.970,3669.000,3711.000,3749.000
92.880,3622.000,3694.000,3710.000
93.787,3723.000,3673.000,3737.000
94.698,3779.000,3849.000,3815.000
95.607,3750.000,3807.000,3715.000
96.514,3736.000,3755.000,3699.000
97.423,3693.000,3743.000,3711.000
98.332,3697.000,3680.000,3729.000
99.241,3714.000,3659.000,3743.000
100.148,3697.000,3674.000,3644.000
101.057,3756.000,3823.000,3786.000
101.965,3710.000,3837.000,3801.000
102.872,3774.000,3750.000,3783.000
103.780,3622.000,3671.000,3639.000
104.689,3475.000,3549.000,3601.000
105.595,3565.000,3557.000,3512.000
106.504,3548.000,3552.000,3532.000
107.412,3588.000,3490.000,3562.000
108.320,3572.000,3600.000,3571.000
109.226,3619.000,3567.000,3584.000
110.134,3685.000,3595.000,3682.000
111.042,3591.000,3691.000,3656.000
111.948,3555.000,3604.000,3572.000
112.856,3598.000,3595.000,3592.000
113.763,3520.000,3501.000,3471.000
114.669,3415.000,3450.000,3373.000
115.577,3439.000,3440.000,3407.000
116.484,3395.000,3507.000,3410.000
117.390,3478.000,3479.000,3443.000
118.296,3546.000,3575.000,3580.000
119.203,3519.000,3609.000,3568.000
120.110,3440.000,3408.000,3431.000
121.014,3466.000,3454.000,3504.000
121.921,3425.000,3412.000,3427.000
122.828,3424.000,3483.000,3456.000
123.733,3397.000,3393.000,3386.000
124.640,3450.000,3428.000,3414.000
125.546,3371.000,3359.000,3356.000
126.452,3384.000,3350.000,3358.000
127.357,3369.000,3340.000,3325.000
128.262,3271.000,3314.000,3291.000
129.169,3275.000,3332.000,3368.000
130.073,3319.000,3321.000,3330.000
130.980,3371.000,3270.000,3318.000
131.885,3359.000,3316.000,3332.000
132.789,3392.000,3381.000,3396.000
133.694,3346.000,3411.000,3393.000
134.600,3369.000,3455.000,3404.000
135.506,3287.000,3324.000,3309.000
136.409,3229.000,3256.000,3237.000
137.314,3248.000,3220.000,3216.000
138.219,3191.000,3250.000,3194.000
139.123,3180.000,3198.000,3207.000
140.027,3166.000,3213.000,3216.000
140.933,3256.000,3207.000,3292.000
141.835,3238.000,3267.000,3290.000
142.740,3264.000,3256.000,3282.000
143.644,3256.000,3206.000,3251.000
144.549,3259.000,3235.000,3318.000
145.452,3262.000,3277.000,3309.000
146.357,3231.000,3235.000,3250.000
147.260,3208.000,3170.000,3241.000
148.162,3144.000,3175.000,3194.000
149.067,3110.000,3158.000,3173.000
149.972,3151.000,3174.000,3185.000
150.874,3176.000,3160.000,3236.000
151.777,3160.000,3178.000,3183.000
152.681,3163.000,3215.000,3210.000
153.585,3155.000,3213.000,3176.000
154.486,3184.000,3160.000,3238.000
155.390,3242.000,3140.000,3271.000
156.294,3176.000,3241.000,3233.000
157.195,3206.000,3205.000,3215.000
158.099,3195.000,3115.000,3180.000
159.002,3155.000,3180.000,3131.000
159.903,3124.000,3153.000,3080.000
160.805,3185.000,3112.000,3125.000
161.709,3114.000,3151.000,3142.000
162.612,3172.000,3122.000,3159.000
163.512,3165.000,3227.000,3155.000
164.415,3179.000,3198.000,3214.000
165.317,3223.000,3095.000,3216.000
166.218,3215.000,3199.000,3231.000
167.121,3193.000,3216.000,3171.000
168.023,3192.000,3134.000,3131.000
168.923,3156.000,3149.000,3163.000
169.825,3171.000,3150.000,3135.000
170.727,3127.000,3141.000,3163.000
171.627,3135.000,3125.000,3155.000
172.529,3140.000,3133.000,3152.000
173.430,3139.000,3060.000,3211.000
174.333,3170.000,3148.000,3072.000
175.233,3155.000,3101.000,3170.000
176.134,3111.000,3179.000,3138.000
177.036,3207.000,3280.000,3166.000
177.935,3220.000,3193.000,3217.000
178.836,3242.000,3169.000,3173.000
179.738,3182.000,3224.000,3190.000
180.637,3113.000,3195.000,3163.000
181.538,3151.000,3157.000,3194.000
182.439,3128.000,3196.000,3102.000
183.340,3106.000,3143.000,3109.000
184.238,3070.000,3063.000,3169.000
185.138,3132.000,3159.000,3107.000
186.039,3115.000,3129.000,3080.000
186.938,3188.000,3191.000,3199.000
187.838,3203.000,3183.000,3171.000
188.739,3214.000,3241.000,3165.000
189.637,3193.000,3228.000,3178.000
190.536,3210.000,3267.000,3169.000
191.438,3175.000,3193.000,3149.000
192.337,3189.000,3205.000,3126.000
193.235,3110.000,3169.000,3120.000
194.135,3188.000,3188.000,3154.000
195.035,3149.000,3151.000,3130.000
195.932,3194.000,3128.000,3146.000
196.832,3169.000,3187.000,3190.000
197.731,3210.000,3279.000,3237.000
198.629,3227.000,3250.000,3213.000
199.527,3207.000,3242.000,3267.000
200.427,3256.000,3218.000,3296.000
201.326,3258.000,3215.000,3210.000
202.223,3234.000,3216.000,3277.000
203.122,3255.000,3241.000,3240.000
204.021,3214.000,3186.000,3270.000
204.917,3267.000,3217.000,3216.000
205.816,3200.000,3200.000,3135.000
206.715,3192.000,3171.000,3196.000
207.611,3177.000,3189.000,3210.000
208.510,3184.000,3305.000,3251.000
209.409,3224.000,3238.000,3241.000
210.306,3272.000,3254.000,3248.000
211.203,3291.000,3307.000,3335.000
212.101,3319.000,3354.000,3325.000
212.999,3383.000,3353.000,3397.000
213.895,3307.000,3306.000,3325.000
214.793,3289.000,3336.000,3247.000
215.690,3280.000,3262.000,3299.000
216.586,3329.000,3265.000,3292.000
217.483,3238.000,3309.000,3335.000
218.381,3298.000,3263.000,3304.000
219.278,3269.000,3310.000,3260.000
220.173,3303.000,3316.000,3356.000
221.071,3327.000,3338.000,3341.000
221.969,3321.000,3377.000,3378.000
222.863,3374.000,3334.000,3417.000
223.760,3354.000,3344.000,3487.000
224.657,3418.000,3479.000,3337.000
225.552,3379.000,3403.000,3387.000
226.448,3374.000,3438.000,3376.000
227.345,3420.000,3408.000,3396.000
228.241,3421.000,3376.000,3411.000
229.136,3365.000,3382.000,3365.000
230.033,3360.000,3409.000,3416.000
230.929,3411.000,3358.000,3394.000
231.823,3411.000,3357.000,3419.000
232.718,3433.000,3416.000,3458.000
233.615,3440.000,3429.000,3482.000
234.509,3447.000,3456.000,3534.000
235.404,3483.000,3485.000,3496.000
236.301,3482.000,3480.000,3514.000
237.196,3477.000,3496.000,3480.000
238.090,3523.000,3501.000,3546.000
238.985,3471.000,3495.000,3544.000
239.880,3510.000,3466.000,3452.000
240.773,3535.000,3425.000,3489.000
241.668,3483.000,3439.000,3483.000
242.564,3476.000,3484.000,3507.000
243.457,3560.000,3516.000,3514.000
244.352,3559.000,3580.000,3637.000
245.247,3570.000,3599.000,3560.000
246.142,3600.000,3614.000,3602.000
247.034,3576.000,3613.000,3587.000
247.929,3623.000,3634.000,3593.000
248.823,3710.000,3659.000,3720.000
249.716,3614.000,3627.000,3683.000
250.610,3614.000,3617.000,3629.000
251.504,3614.000,3690.000,3666.000
252.397,3616.000,3607.000,3699.000
253.291,3629.000,3661.000,3642.000
254.185,3624.000,3570.000,3557.000
255.077,3645.000,3644.000,3723.000
255.971,3667.000,3727.000,3681.000
256.864,3750.000,3732.000,3770.000
257.758,3694.000,3770.000,3745.000
258.650,3762.000,3796.000,3715.000
259.543,3812.000,3756.000,3804.000
260.437,3824.000,3811.000,3752.000
261.329,3765.000,3799.000,3755.000
262.222,3764.000,3818.000,3787.000
263.114,3747.000,3773.000,3739.000
264.005,3747.000,3775.000,3786.000
264.899,3717.000,3891.000,3832.000
265.792,3782.000,3769.000,3798.000
266.685,3850.000,3797.000,3869.000
267.575,3873.000,3827.000,3847.000
268.467,3847.000,3870.000,3864.000
269.360,3894.000,3929.000,3887.000
270.251,3940.000,3915.000,3926.000
271.144,3939.000,3935.000,3938.000
272.035,3924.000,3922.000,3943.000
272.926,3872.000,3929.000,3994.000
273.818,3923.000,3855.000,3898.000
274.709,3953.000,3923.000,3963.000
275.602,3938.000,3925.000,3971.000
276.492,3973.000,3931.000,3909.000
277.383,3927.000,3916.000,3983.000
278.275,3993.000,3968.000,4012.000
279.165,4021.000,4046.000,4103.000
280.056,4045.000,4072.000,4074.000
280.948,4060.000,4077.000,4035.000
281.838,4100.000,4066.000,4117.000
282.728,4104.000,4089.000,4078.000
283.620,4184.000,4099.000,4137.000
284.510,4132.000,4150.000,4063.000
285.400,4078.000,4138.000,4137.000
286.290,4121.000,4080.000,4134.000
287.181,4077.000,4145.000,4117.000
288.070,4103.000,4110.000,4144.000
288.961,4121.000,4145.000,4190.000
289.852,4168.000,4135.000,4159.000
290.740,4205.000,4136.000,4185.000
291.630,4190.000,4166.000,4218.000
292.521,4236.000,4248.000,4302.000
293.410,4284.000,4212.000,4307.000
294.299,4263.000,4237.000,4280.000
295.189,4235.000,4257.000,4295.000
296.079,4263.000,4194.000,4276.000
296.967,4187.000,4242.000,4224.000
297.856,4206.000,4208.000,4219.000
298.747,4256.000,4297.000,4348.000
299.634,4218.000,4240.000,4244.000
300.523,4291.000,4305.000,4282.000
301.413,4273.000,4344.000,4358.000
302.302,4276.000,4351.000,4339.000
303.190,4379.000,4362.000,4369.000
304.079,4329.000,4347.000,4379.000
304.968,4408.000,4412.000,4430.000
305.855,4387.000,4415.000,4444.000
306.745,4407.000,4421.000,4431.000
307.633,4344.000,4383.000,4356.000
308.520,4361.000,4374.000,4423.000
309.408,4457.000,4351.000,4395.000
310.298,4407.000,4400.000,4347.000
311.186,4395.000,4427.000,4464.000
312.072,4387.000,4431.000,4440.000
312.961,4464.000,4438.000,4428.000
313.849,4390.000,4454.000,4500.000
314.735,4516.000,4527.000,4479.000
315.624,4520.000,4468.000,4489.000
316.511,4409.000,4444.000,4478.000
317.397,4400.000,4460.000,4521.000
318.285,4480.000,4412.000,4408.000
319.173,4499.000,4483.000,4551.000
320.060,4507.000,4549.000,4443.000
320.946,4473.000,4490.000,4501.000
321.833,4505.000,4510.000,4526.000
322.721,4575.000,4567.000,4552.000
323.606,4635.000,4584.000,4595.000
324.493,4570.000,4630.000,4690.000
325.380,4683.000,4611.000,4665.000
326.266,4726.000,4705.000,4671.000
327.153,4680.000,4715.000,4739.000
328.039,4723.000,4678.000,4674.000
328.926,4660.000,4688.000,4622.000
329.811,4709.000,4649.000,4648.000
330.698,4608.000,4690.000,4774.000
331.584,4677.000,4734.000,4692.000
332.469,4675.000,4753.000,4674.000
333.356,4757.000,4707.000,4733.000
334.242,4739.000,4692.000,4765.000
335.125,4784.000,4762.000,4716.000
336.013,4769.000,4754.000,4761.000
336.898,4754.000,4777.000,4748.000
337.782,4804.000,4827.000,4829.000
338.668,4788.000,4822.000,4859.000
339.554,4827.000,4852.000,4875.000
340.440,4941.000,4811.000,4908.000
341.323,4919.000,4866.000,4859.000
342.209,4905.000,4901.000,4797.000
343.094,4860.000,4851.000,4774.000
343.978,4867.000,4854.000,4828.000
344.864,4814.000,4887.000,4779.000
345.748,4861.000,4889.000,4773.000
346.631,4951.000,4873.000,4906.000
347.517,4968.000,4961.000,4847.000
348.401,4995.000,5018.000,5007.000
349.286,4923.000,4955.000,5053.000
350.169,5014.000,5024.000,5016.000
351.053,5000.000,5010.000,4968.000
351.938,4966.000,5049.000,5028.000
352.821,5034.000,5036.000,5033.000
353.705,5029.000,5019.000,5055.000
354.590,5033.000,5043.000,5049.000
355.473,5017.000,5080.000,5127.000
356.356,5091.000,5150.000,5098.000
357.241,5107.000,5087.000,5051.000
358.124,5088.000,5014.000,5101.000
359.007,5037.000,5074.000,5124.000
359.891,5043.000,5148.000,5199.000
360.774,5125.000,5089.000,5110.000
361.655,5106.000,5239.000,5146.000
362.539,5177.000,5257.000,5208.000
363.423,5222.000,5251.000,5239.000
364.304,5238.000,5210.000,5238.000
365.187,5157.000,5187.000,5164.000
366.071,5262.000,5263.000,5192.000
366.955,5214.000,5326.000,5239.000
367.835,5180.000,5125.000,5322.000
368.718,5223.000,5188.000,5311.000
369.601,5238.000,5221.000,5147.000
370.482,5292.000,5309.000,5283.000
371.364,5328.000,5288.000,5290.000
372.248,5291.000,5363.000,5294.000
373.128,5424.000,5326.000,5299.000
374.011,5351.000,5445.000,5467.000
374.893,5302.000,5405.000,5390.000
375.775,5397.000,5363.000,5333.000
376.655,5379.000,5325.000,5351.000
377.538,5261.000,5381.000,5354.000
378.420,5349.000,5290.000,5347.000
379.299,5332.000,5298.000,5378.000
380.182,5369.000,5342.000,5362.000
381.064,5415.000,5457.000,5432.000
381.943,5410.000,5444.000,5467.000
382.825,5450.000,5436.000,5428.000
383.707,5436.000,5417.000,5525.000
384.588,5424.000,5416.000,5450.000
385.467,5408.000,5518.000,5371.000
386.349,5435.000,5478.000,5366.000
387.231,5397.000,5416.000,5537.000
388.110,5458.000,5488.000,5527.000
388.991,5550.000,5510.000,5404.000
389.871,5363.000,5415.000,5487.000
390.750,5537.000,5503.000,5452.000
391.631,5392.000,5418.000,5510.000
392.511,5423.000,5467.000,5552.000
393.393,5481.000,5424.000,5481.000
394.271,5460.000,5493.000,5475.000
395.152,5428.000,5621.000,5590.000
396.032,5527.000,5595.000,5534.000
396.911,5571.000,5589.000,5571.000
397.791,5570.000,5532.000,5544.000
398.671,5548.000,5599.000,5605.000
399.549,5627.000,5521.000,5545.000
400.429,5596.000,5571.000,5687.000
401.309,5510.000,5563.000,5605.000
402.189,5582.000,5562.000,5491.000
403.067,5467.000,5540.000,5578.000
403.946,5554.000,5479.000,5524.000
404.826,5574.000,5535.000,5531.000
405.702,5581.000,5641.000,5604.000
406.582,5694.000,5572.000,5624.000
407.461,5621.000,5678.000,5647.000
408.339,5681.000,5715.000,5647.000
409.218,5636.000,5667.000,5623.000
410.097,5620.000,5677.000,5612.000
410.976,5511.000,5610.000,5624.000
411.852,5661.000,5641.000,5614.000
412.731,5619.000,5671.000,5565.000
413.610,5605.000,5598.000,5616.000
414.487,5597.000,5660.000,5572.000
415.366,5539.000,5572.000,5668.000
416.244,5655.000,5651.000,5669.000
417.120,5640.000,5638.000,5681.000
417.999,5691.000,5622.000,5668.000
418.877,5688.000,5613.000,5745.000
419.752,5646.000,5615.000,5732.000
420.631,5754.000,5648.000,5699.000
421.509,5735.000,5739.000,5722.000
422.387,5673.000,5659.000,5606.000
423.262,5712.000,5732.000,5642.000
424.140,5705.000,5671.000,5697.000
425.018,5636.000,5611.000,5682.000
425.893,5607.000,5567.000,5702.000
426.771,5654.000,5634.000,5578.000
427.649,5676.000,5602.000,5655.000
428.523,5629.000,5724.000,5609.000
429.401,5792.000,5632.000,5718.000
430.278,5773.000,5668.000,5740.000
431.155,5771.000,5684.000,5715.000
432.030,5677.000,5688.000,5771.000
432.907,5691.000,5696.000,5580.000
433.784,5636.000,5637.000,5656.000
434.658,5671.000,5583.000,5634.000
435.535,5665.000,5592.000,5607.000
436.411,5602.000,5637.000,5606.000
437.286,5670.000,5605.000,5602.000
438.162,5561.000,5622.000,5599.000
439.039,5557.000,5603.000,5598.000
439.916,5568.000,5650.000,5598.000
440.789,5641.000,5543.000,5718.000
441.665,5514.000,5618.000,5591.000
442.541,5598.000,5549.000,5620.000
443.415,5589.000,5535.000,5552.000
444.290,5637.000,5481.000,5516.000
445.167,5499.000,5515.000,5519.000
446.040,5567.000,5518.000,5545.000
446.916,5484.000,5533.000,5447.000
447.791,5524.000,5510.000,5436.000
448.667,5471.000,5476.000,5398.000
449.540,5418.000,5470.000,5358.000
450.415,5409.000,5409.000,5392.000
451.291,5337.000,5352.000,5354.000
452.164,5372.000,5317.000,5346.000
453.038,5356.000,5344.000,5342.000
453.913,5391.000,5321.000,5355.000
454.785,5323.000,5325.000,5386.000
455.661,5301.000,5249.000,5301.000
456.535,5271.000,5373.000,5225.000
457.409,5259.000,5218.000,5208.000
458.282,5244.000,5203.000,5194.000
459.157,5039.000,5147.000,5073.000
460.031,5046.000,5068.000,5134.000
460.903,5075.000,5185.000,5143.000
461.777,5131.000,5001.000,5044.000
462.651,5045.000,5130.000,5106.000
463.523,4967.000,4995.000,5011.000
464.397,5103.000,5040.000,4992.000
465.271,5069.000,5047.000,5027.000
466.145,5000.000,5027.000,4990.000
467.016,4992.000,4998.000,5012.000
467.890,4906.000,4903.000,4915.000
468.763,4954.000,4952.000,4866.000
469.634,4889.000,4922.000,4930.000
470.508,4928.000,4981.000,4907.000
471.381,4878.000,4911.000,4877.000
472.252,4981.000,4913.000,4967.000
473.125,5002.000,4970.000,5006.000
473.998,4982.000,5076.000,5051.000
474.872,4960.000,5130.000,5065.000
475.742,5136.000,5086.000,5054.000
476.614,5075.000,5036.000,5165.000
477.487,5136.000,5133.000,5227.000
478.358,5114.000,5271.000,5176.000
479.230,5112.000,5241.000,5180.000
480.102,5285.000,5222.000,5282.000
480.973,5242.000,5328.000,5303.000
481.845,5256.000,5296.000,5363.000
482.717,5262.000,5226.000,5145.000
483.590,5170.000,5166.000,5188.000
484.460,5188.000,5172.000,5162.000
485.332,5108.000,5089.000,5179.000
486.203,5079.000,5116.000,5134.000
487.073,5097.000,5014.000,5027.000
487.944,5058.000,5020.000,5029.000
488.816,4990.000,4925.000,4990.000
489.685,4982.000,4990.000,4819.000
490.556,4835.000,4818.000,4781.000
491.428,4734.000,4634.000,4741.000
492.299,4505.000,4524.000,4545.000
493.169,4470.000,4511.000,4500.000
494.039,4407.000,4405.000,4478.000
494.910,4343.000,4280.000,4302.000
495.780,4220.000,4157.000,4220.000
496.651,4108.000,4131.000,4104.000
497.521,4011.000,3994.000,3976.000
498.390,3922.000,3969.000,3895.000
499.261,3836.000,3869.000,3836.000
500.130,3720.000,3800.000,3771.000
500.999,3655.000,3628.000,3628.000
501.869,3544.000,3532.000,3611.000
502.739,3494.000,3463.000,3474.000
503.610,3424.000,3360.000,3384.000
504.477,3352.000,3287.000,3292.000
505.348,3276.000,3243.000,3233.000
506.218,3114.000,3154.000,3100.000
507.085,3072.000,3086.000,3084.000
507.956,2956.000,2981.000,3025.000
508.825,2977.000,2946.000,2951.000
509.693,2902.000,2870.000,2854.000
510.562,2778.000,2811.000,2812.000
511.432,2736.000,2761.000,2777.000
512.300,2755.000,2751.000,2714.000
513.168,2722.000,2713.000,2729.000
514.037,2616.000,2630.000,2579.000
514.906,2561.000,2596.000,2527.000
515.773,2494.000,2511.000,2510.000
516.641,2480.000,2497.000,2434.000
517.511,2444.000,2418.000,2417.000
518.377,2402.000,2372.000,2415.000
519.246,2373.000,2316.000,2321.000
520.115,2319.000,2313.000,2294.000
520.984,2316.000,2263.000,2286.000
521.850,2276.000,2256.000,2277.000
522.718,2259.000,2238.000,2194.000
523.587,2174.000,2230.000,2209.000
524.453,2205.000,2166.000,2209.000
525.320,2134.000,2127.000,2156.000
526.189,2132.000,2146.000,2127.000
527.055,2059.000,2125.000,2119.000
527.922,2078.000,2108.000,2085.000
528.791,2079.000,2060.000,2098.000
529.658,2070.000,2082.000,2065.000
530.523,2023.000,1975.000,2050.000
531.391,2000.000,1979.000,1983.000
532.259,1965.000,1954.000,1946.000
533.123,1958.000,1952.000,1944.000
533.991,1952.000,1946.000,1930.000
534.858,1902.000,1915.000,1949.000
535.723,1953.000,1915.000,1919.000
536.590,1930.000,1888.000,1882.000
537.456,1898.000,1868.000,1879.000
538.324,1847.000,1866.000,1897.000
539.189,1864.000,1862.000,1876.000
540.055,1816.000,1820.000,1847.000
540.922,1801.000,1856.000,1817.000
541.786,1811.000,1776.000,1785.000
542.653,1771.000,1790.000,1811.000
543.519,1753.000,1791.000,1776.000
544.383,1740.000,1781.000,1767.000
545.249,1753.000,1791.000,1766.000
546.115,1753.000,1755.000,1763.000
546.982,1746.000,1762.000,1761.000
547.845,1749.000,1731.000,1730.000
548.712,1700.000,1716.000,1722.000
549.578,1759.000,1719.000,1683.000
550.441,1732.000,1717.000,1701.000
551.306,1666.000,1692.000,1700.000
552.173,1674.000,1698.000,1681.000
553.035,1680.000,1679.000,1680.000
553.901,1653.000,1671.000,1648.000
554.766,1623.000,1663.000,1648.000
555.631,1605.000,1639.000,1625.000
556.495,1610.000,1671.000,1659.000
557.360,1636.000,1621.000,1609.000
558.225,1650.000,1617.000,1611.000
559.088,1627.000,1618.000,1552.000
559.953,1594.000,1614.000,1624.000
560.818,1594.000,1601.000,1616.000
561.680,1596.000,1603.000,1604.000
562.544,1630.000,1564.000,1588.000
563.409,1599.000,1572.000,1571.000
564.273,1562.000,1575.000,1569.000
565.135,1599.000,1558.000,1556.000
565.999,1546.000,1555.000,1530.000
566.864,1542.000,1555.000,1541.000
567.726,1576.000,1554.000,1555.000
568.589,1532.000,1569.000,1566.000
569.453,1544.000,1579.000,1546.000
570.316,1548.000,1531.000,1565.000
571.180,1552.000,1553.000,1583.000
572.043,1564.000,1565.000,1526.000
572.906,1537.000,1539.000,1522.000
573.768,1527.000,1518.000,1507.000
574.631,1542.000,1528.000,1526.000
575.495,1520.000,1546.000,1518.000
576.355,1522.000,1504.000,1557.000
577.219,1514.000,1549.000,1544.000
578.082,1520.000,1544.000,1570.000
578.943,1547.000,1538.000,1501.000
579.806,1564.000,1529.000,1510.000
580.669,1582.000,1527.000,1534.000
581.530,1539.000,1539.000,1579.000
582.393,1579.000,1578.000,1552.000
583.255,1591.000,1601.000,1594.000
584.118,1590.000,1602.000,1576.000
584.978,1563.000,1571.000,1584.000
585.840,1618.000,1605.000,1617.000
586.702,1608.000,1585.000,1599.000
587.563,1602.000,1616.000,1638.000
588.424,1621.000,1624.000,1588.000
589.287,1618.000,1611.000,1674.000
590.148,1614.000,1645.000,1613.000
591.009,1678.000,1672.000,1689.000
591.870,1653.000,1692.000,1628.000
592.732,1714.000,1687.000,1715.000
593.592,1720.000,1704.000,1704.000
594.453,1720.000,1716.000,1720.000
595.315,1718.000,1709.000,1727.000
596.174,1741.000,1764.000,1724.000
597.036,1725.000,1706.000,1758.000
597.897,1727.000,1742.000,1709.000
598.756,1712.000,1749.000,1708.000
599.616,1712.000,1745.000,1674.000
600.478,1717.000,1677.000,1750.000
601.338,1713.000,1689.000,1683.000
602.197,1677.000,1685.000,1718.000
603.058,1720.000,1701.000,1694.000
603.919,1687.000,1673.000,1677.000
604.777,1632.000,1677.000,1655.000
605.637,1638.000,1655.000,1686.000
606.498,1654.000,1625.000,1613.000
607.357,1595.000,1584.000,1597.000
608.217,1589.000,1600.000,1580.000
609.076,1580.000,1610.000,1577.000
609.937,1565.000,1527.000,1566.000
610.795,1532.000,1546.000,1522.000
611.655,1492.000,1515.000,1507.000
612.514,1493.000,1495.000,1512.000
613.372,1479.000,1498.000,1495.000
614.232,1487.000,1453.000,1434.000
615.092,1478.000,1480.000,1467.000
615.950,1427.000,1430.000,1430.000
616.809,1430.000,1406.000,1415.000
617.668,1422.000,1433.000,1440.000
618.527,1409.000,1402.000,1376.000
619.384,1390.000,1354.000,1376.000
620.243,1389.000,1384.000,1390.000
621.102,1378.000,1362.000,1348.000
621.959,1327.000,1352.000,1330.000
622.818,1333.000,1342.000,1331.000
623.677,1330.000,1332.000,1327.000
624.534,1288.000,1318.000,1316.000
625.392,1283.000,1292.000,1270.000
626.251,1268.000,1314.000,1282.000
627.109,1303.000,1277.000,1281.000
627.966,1274.000,1289.000,1279.000
628.824,1249.000,1301.000,1286.000
629.682,1261.000,1267.000,1275.000
630.539,1242.000,1262.000,1271.000
631.397,1232.000,1240.000,1227.000
632.255,1228.000,1206.000,1224.000
633.110,1252.000,1247.000,1221.000
633.968,1206.000,1189.000,1229.000
634.825,1199.000,1216.000,1238.000
635.683,1213.000,1224.000,1209.000
636.539,1223.000,1211.000,1203.000
637.397,1202.000,1210.000,1202.000
638.254,1174.000,1184.000,1203.000
639.109,1175.000,1191.000,1186.000
639.966,1175.000,1174.000,1155.000
640.823,1196.000,1209.000,1185.000
641.678,1196.000,1147.000,1208.000
642.535,1194.000,1195.000,1184.000
643.392,1183.000,1197.000,1175.000
644.249,1151.000,1168.000,1179.000
645.103,1194.000,1163.000,1165.000
645.960,1179.000,1181.000,1174.000
646.817,1166.000,1157.000,1175.000
647.672,1138.000,1163.000,1161.000
648.528,1167.000,1156.000,1140.000
649.384,1141.000,1140.000,1142.000
650.238,1153.000,1154.000,1146.000
651.095,1151.000,1135.000,1150.000
651.951,1141.000,1148.000,1123.000
652.807,1145.000,1163.000,1128.000
653.661,1160.000,1169.000,1150.000
654.517,1147.000,1139.000,1140.000
655.372,1120.000,1135.000,1128.000
656.226,1134.000,1138.000,1136.000
657.081,1127.000,1140.000,1131.000
657.937,1144.000,1172.000,1103.000
658.790,1143.000,1124.000,1116.000
659.646,1146.000,1106.000,1113.000
660.502,1127.000,1150.000,1127.000
661.355,1129.000,1113.000,1111.000
662.209,1148.000,1131.000,1111.000
663.065,1145.000,1105.000,1126.000
663.920,1142.000,1119.000,1122.000
664.773,1147.000,1128.000,1128.000
665.627,1119.000,1128.000,1108.000
666.482,1110.000,1123.000,1112.000
667.335,1112.000,1127.000,1125.000
668.190,1105.000,1085.000,1094.000
669.044,1129.000,1114.000,1119.000
669.899,1125.000,1124.000,1124.000
670.751,1102.000,1124.000,1091.000
671.605,1091.000,1092.000,1101.000
672.459,1105.000,1123.000,1103.000
673.311,1110.000,1112.000,1105.000
674.165,1111.000,1083.000,1107.000
675.019,1122.000,1133.000,1091.000
675.871,1107.000,1130.000,1110.000
676.725,1144.000,1107.000,1116.000
677.579,1115.000,1106.000,1115.000
678.430,1111.000,1105.000,1091.000
679.284,1138.000,1099.000,1118.000
680.137,1101.000,1108.000,1117.000
680.991,1111.000,1118.000,1099.000
681.842,1098.000,1105.000,1076.000
682.695,1085.000,1089.000,1093.000
683.548,1089.000,1106.000,1114.000
684.399,1120.000,1085.000,1097.000
685.252,1068.000,1126.000,1102.000
686.105,1110.000,1128.000,1082.000
686.956,1097.000,1119.000,1115.000
687.808,1110.000,1102.000,1110.000
688.661,1072.000,1100.000,1100.000
689.514,1087.000,1081.000,1080.000
690.365,1104.000,1113.000,1087.000
691.217,1066.000,1092.000,1102.000
692.069,1117.000,1093.000,1076.000
692.919,1109.000,1094.000,1128.000
693.771,1084.000,1090.000,1085.000
694.623,1095.000,1094.000,1098.000
695.473,1098.000,1095.000,1091.000
696.325,1084.000,1087.000,1096.000
697.177,1102.000,1087.000,1075.000
698.029,1093.000,1116.000,1108.000
698.878,1100.000,1087.000,1109.000
699.730,1128.000,1075.000,1081.000
700.581,1087.000,1094.000,1103.000
701.431,1110.000,1116.000,1087.000
702.282,1096.000,1118.000,1091.000
703.134,1086.000,1077.000,1086.000
703.983,1097.000,1120.000,1099.000
704.834,1113.000,1084.000,1104.000
705.685,1119.000,1089.000,1077.000
706.536,1098.000,1102.000,1078.000
707.384,1111.000,1088.000,1103.000
708.235,1115.000,1101.000,1103.000
709.086,1113.000,1102.000,1116.000
709.935,1135.000,1113.000,1102.000
710.786,1096.000,1130.000,1113.000
711.636,1112.000,1094.000,1105.000
712.485,1105.000,1122.000,1129.000
713.334,1123.000,1131.000,1118.000
714.185,1117.000,1117.000,1118.000
715.035,1104.000,1121.000,1126.000
715.883,1149.000,1117.000,1092.000
716.734,1116.000,1114.000,1098.000
717.584,1120.000,1112.000,1109.000
718.431,1135.000,1084.000,1106.000
719.281,1120.000,1089.000,1121.000
720.131,1112.000,1109.000,1107.000
720.978,1097.000,1112.000,1122.000
721.828,1146.000,1113.000,1127.000
722.677,1119.000,1118.000,1128.000
723.527,1119.000,1126.000,1129.000
724.374,1128.000,1111.000,1110.000
725.223,1105.000,1129.000,1136.000
726.073,1135.000,1130.000,1110.000
726.919,1112.000,1114.000,1098.000
727.768,1147.000,1135.000,1113.000
728.617,1154.000,1146.000,1133.000
729.464,1128.000,1110.000,1122.000
730.312,1134.000,1132.000,1128.000
731.161,1177.000,1113.000,1139.000
732.010,1144.000,1118.000,1124.000
732.856,1164.000,1147.000,1133.000
733.705,1139.000,1125.000,1157.000
734.553,1169.000,1128.000,1153.000
735.399,1145.000,1139.000,1141.000
736.247,1160.000,1159.000,1187.000
737.096,1140.000,1149.000,1150.000
737.941,1158.000,1136.000,1121.000
738.790,1147.000,1168.000,1128.000
739.637,1131.000,1162.000,1118.000
740.482,1166.000,1148.000,1175.000
741.331,1182.000,1159.000,1159.000
742.179,1157.000,1164.000,1172.000
743.026,1162.000,1195.000,1149.000
743.871,1176.000,1177.000,1187.000
744.719,1173.000,1168.000,1168.000
745.566,1175.000,1191.000,1157.000
746.411,1204.000,1161.000,1173.000
747.258,1196.000,1191.000,1216.000
748.105,1184.000,1194.000,1203.000
748.953,1194.000,1216.000,1193.000
749.797,1219.000,1227.000,1186.000
750.644,1203.000,1216.000,1194.000
751.491,1244.000,1211.000,1198.000
752.336,1237.000,1240.000,1218.000
753.182,1276.000,1248.000,1252.000
754.029,1268.000,1270.000,1258.000
754.873,1276.000,1249.000,1297.000
755.719,1338.000,1331.000,1313.000
756.565,1319.000,1325.000,1344.000
757.409,1355.000,1373.000,1358.000
758.256,1410.000,1398.000,1377.000
759.102,1435.000,1386.000,1422.000
759.948,1437.000,1433.000,1444.000
760.792,1457.000,1433.000,1495.000
761.637,1498.000,1493.000,1452.000
762.483,1507.000,1518.000,1530.000
763.327,1560.000,1536.000,1544.000
764.172,1581.000,1572.000,1559.000
765.018,1621.000,1589.000,1580.000
765.861,1601.000,1644.000,1622.000
766.706,1651.000,1641.000,1629.000
767.551,1662.000,1666.000,1680.000
768.397,1706.000,1673.000,1651.000
769.241,1673.000,1686.000,1695.000
770.085,1685.000,1694.000,1679.000
770.930,1703.000,1681.000,1711.000
771.773,1697.000,1711.000,1730.000
772.618,1719.000,1709.000,1722.000
773.462,1732.000,1736.000,1705.000
774.305,1722.000,1745.000,1708.000
775.150,1753.000,1733.000,1750.000
775.994,1738.000,1777.000,1707.000
776.838,1680.000,1751.000,1753.000
777.681,1726.000,1759.000,1739.000
778.525,1791.000,1767.000,1768.000
779.369,1781.000,1765.000,1765.000
780.210,1787.000,1746.000,1757.000
781.054,1754.000,1763.000,1754.000
781.898,1791.000,1775.000,1742.000
782.740,1777.000,1779.000,1773.000
783.584,1766.000,1793.000,1774.000
784.428,1758.000,1749.000,1736.000
785.271,1761.000,1756.000,1757.000
786.113,1727.000,1748.000,1735.000
786.957,1739.000,1767.000,1744.000
787.799,1700.000,1754.000,1719.000
788.641,1763.000,1758.000,1718.000
789.484,1727.000,1723.000,1733.000
790.327,1757.000,1707.000,1720.000
791.169,1725.000,1738.000,1716.000
792.011,1754.000,1747.000,1706.000
792.854,1705.000,1735.000,1739.000
793.697,1715.000,1724.000,1700.000
794.538,1705.000,1705.000,1731.000
795.380,1703.000,1699.000,1715.000
796.223,1677.000,1719.000,1691.000
797.064,1698.000,1726.000,1666.000
797.905,1688.000,1691.000,1659.000
798.748,1689.000,1665.000,1675.000
799.588,1671.000,1698.000,1662.000
800.431,1727.000,1691.000,1662.000
801.272,1674.000,1696.000,1661.000
802.114,1663.000,1684.000,1680.000
802.954,1687.000,1652.000,1692.000
803.796,1658.000,1670.000,1692.000
804.638,1679.000,1674.000,1677.000
805.477,1677.000,1607.000,1648.000
806.319,1634.000,1656.000,1625.000
807.161,1630.000,1597.000,1634.000
808.000,1673.000,1631.000,1624.000
808.842,1621.000,1602.000,1628.000
809.683,1602.000,1623.000,1631.000
810.524,1606.000,1567.000,1603.000
811.363,1583.000,1610.000,1598.000
812.205,1610.000,1590.000,1603.000
813.045,1614.000,1622.000,1575.000
813.885,1606.000,1598.000,1600.000
814.725,1617.000,1619.000,1571.000
815.566,1615.000,1596.000,1575.000
816.404,1563.000,1563.000,1556.000
817.244,1515.000,1552.000,1571.000
818.085,1524.000,1555.000,1592.000
818.924,1539.000,1529.000,1538.000
819.765,1551.000,1511.000,1537.000
820.604,1539.000,1546.000,1549.000
821.445,1499.000,1513.000,1525.000
822.283,1530.000,1510.000,1509.000
823.123,1493.000,1500.000,1512.000
823.963,1516.000,1499.000,1462.000
824.801,1469.000,1482.000,1481.000
825.640,1469.000,1500.000,1453.000
826.480,1484.000,1468.000,1471.000
827.318,1450.000,1490.000,1448.000
828.157,1459.000,1418.000,1423.000
828.997,1406.000,1433.000,1405.000
829.836,1446.000,1407.000,1433.000
830.674,1404.000,1365.000,1386.000
831.513,1344.000,1380.000,1388.000
832.352,1366.000,1359.000,1334.000
833.189,1347.000,1355.000,1308.000
834.028,1334.000,1317.000,1375.000
834.867,1308.000,1321.000,1314.000
835.704,1301.000,1339.000,1307.000
836.543,1298.000,1291.000,1305.000
837.382,1303.000,1278.000,1287.000
838.220,1253.000,1256.000,1286.000
839.057,1231.000,1256.000,1262.000
839.895,1251.000,1265.000,1223.000
840.734,1235.000,1234.000,1209.000
841.569,1211.000,1198.000,1192.000
842.408,1187.000,1153.000,1192.000
843.246,1194.000,1164.000,1157.000
844.083,1164.000,1186.000,1149.000
844.920,1132.000,1152.000,1131.000
845.758,1117.000,1134.000,1137.000
846.596,1133.000,1123.000,1115.000
847.432,1107.000,1098.000,1123.000
848.269,1113.000,1130.000,1094.000
849.107,1121.000,1108.000,1079.000
849.943,1093.000,1087.000,1097.000
850.780,1086.000,1070.000,1081.000
851.617,1074.000,1088.000,1072.000
852.453,1052.000,1055.000,1032.000
853.290,1052.000,1056.000,1066.000
854.127,1042.000,1031.000,1056.000
854.964,1028.000,1038.000,1042.000
855.799,1047.000,1027.000,1034.000
856.636,1035.000,1046.000,1030.000
857.473,1036.000,1038.000,1041.000
858.308,1035.000,1016.000,1041.000
859.145,1043.000,1039.000,1032.000
859.980,1011.000,1026.000,1027.000
860.815,1044.000,1029.000,1024.000
861.652,1023.000,1038.000,1011.000
862.488,1002.000,1005.000,1007.000
863.325,1032.000,1013.000,1007.000
864.159,991.000,1007.000,1004.000
864.994,1018.000,1008.000,1019.000
865.830,1008.000,1023.000,2866.000
866.665,998.000,994.000,2429.000
867.501,997.000,1002.000,1023.000
868.337,998.000,1011.000,1006.000
869.170,1021.000,989.000,992.000
870.006,1001.000,1000.000,1020.000
870.842,997.000,1022.000,1000.000
871.677,1013.000,992.000,999.000
872.510,1009.000,1011.000,992.000
873.346,991.000,1010.000,1003.000
874.181,993.000,1017.000,979.000
875.014,990.000,1012.000,985.000
875.849,1027.000,1004.000,999.000
876.685,1001.000,1026.000,968.000
877.517,1011.000,985.000,1000.000
878.352,984.000,1005.000,986.000
879.187,987.000,991.000,987.000
880.021,993.000,979.000,979.000
880.855,969.000,1014.000,991.000
881.690,980.000,974.000,978.000
882.523,1004.000,986.000,981.000
883.355,979.000,991.000,981.000
884.190,989.000,985.000,999.000
885.025,1005.000,996.000,988.000
885.857,999.000,998.000,1005.000
886.691,1012.000,988.000,988.000
887.525,973.000,983.000,994.000
888.359,1010.000,994.000,996.000
889.190,997.000,973.000,984.000
890.025,980.000,999.000,987.000
890.858,1005.000,985.000,965.000
891.690,982.000,975.000,978.000
892.523,991.000,979.000,973.000
893.357,1016.000,969.000,969.000
894.188,1005.000,990.000,985.000
895.021,1001.000,970.000,993.000
895.855,1008.000,979.000,986.000
896.686,1030.000,993.000,989.000
897.520,993.000,1001.000,991.000
898.352,996.000,984.000,978.000
899.186,993.000,1016.000,994.000
900.016,999.000,981.000,970.000
900.849,1006.000,1000.000,992.000