File: Raman/Silica/2025_09_09_8pct_Hydrated_SiO2_Glass_50X_532nm_74mW_Andor750_600gv_1030wn_6accum_30s_UnPol_Loc1.csv
23.130,13373.000,13492.000,13369.000,13363.000,13378.000,13553.000
27.007,12558.000,12570.000,12566.000,12633.000,12729.000,12501.000
30.879,13119.000,13088.000,13011.000,13057.000,13139.000,13137.000
34.751,13730.000,13837.000,13894.000,13779.000,13938.000,13816.000
38.619,14491.000,14414.000,14681.000,14719.000,14621.000,14545.000
42.489,15798.000,15787.000,15945.000,15837.000,15915.000,15787.000
46.355,16634.000,16819.000,16649.000,16657.000,16575.000,16697.000
50.221,16507.000,16775.000,16683.000,16683.000,16550.000,16647.000
54.083,17685.000,17539.000,17638.000,17620.000,17575.000,17481.000
57.946,17426.000,17439.000,17311.000,17453.000,17514.000,17589.000
61.807,17209.000,17113.000,17189.000,17064.000,17146.000,17122.000
65.665,17388.000,17307.000,17408.000,17388.000,17434.000,17363.000
69.523,17293.000,17350.000,17240.000,17333.000,17231.000,17325.000
73.377,16696.000,16558.000,16633.000,16580.000,16540.000,16699.000
77.233,17022.000,17103.000,16927.000,16998.000,17018.000,17044.000
81.084,16387.000,16517.000,16382.000,16475.000,16383.000,16441.000
84.936,16040.000,16126.000,16092.000,16131.000,16195.000,16224.000
88.784,16074.000,15957.000,16089.000,16033.000,16012.000,16008.000
92.632,15615.000,15604.000,15550.000,15630.000,15664.000,15707.000
96.480,15105.000,15103.000,15122.000,15063.000,15102.000,15155.000
100.323,15494.000,15280.000,15311.000,15345.000,15270.000,15302.000
104.167,14609.000,14614.000,14626.000,14762.000,14683.000,14578.000
108.007,14260.000,14309.000,14366.000,14315.000,14199.000,14432.000
111.848,14347.000,14250.000,14298.000,14296.000,14257.000,14222.000
115.685,13918.000,13880.000,13899.000,13758.000,13880.000,13729.000
119.522,13610.000,13498.000,13520.000,13509.000,13491.000,13550.000
123.359,13466.000,13496.000,13396.000,13389.000,13478.000,13562.000
127.190,13055.000,12971.000,12980.000,12840.000,12878.000,12825.000
131.024,12686.000,12674.000,12752.000,12637.000,12627.000,12704.000
134.853,12626.000,12414.000,12623.000,12670.000,12483.000,12564.000
138.683,12197.000,11962.000,12146.000,11997.000,12089.000,12115.000
142.508,11767.000,11997.000,11948.000,11892.000,11778.000,11868.000
146.335,11904.000,11743.000,11726.000,11792.000,11751.000,11679.000
150.158,11391.000,11313.000,11168.000,11324.000,11297.000,11352.000
153.982,11314.000,11228.000,11245.000,11210.000,11219.000,11254.000
157.804,11150.000,11306.000,11121.000,11053.000,11059.000,11193.000
161.621,10752.000,10709.000,10895.000,10681.000,10700.000,10721.000
165.441,10618.000,10637.000,10689.000,10634.000,10608.000,10512.000
169.256,10594.000,10674.000,10625.000,10682.000,10703.000,10676.000
173.071,10271.000,10290.000,10193.000,10232.000,10140.000,10260.000
176.883,10343.000,10138.000,10102.000,10285.000,10214.000,10344.000
180.696,10256.000,10161.000,10290.000,10178.000,10280.000,10315.000
184.504,9874.000,9972.000,9963.000,9931.000,9889.000,10010.000
188.314,9888.000,9843.000,9914.000,9883.000,9912.000,9930.000
192.122,9936.000,9898.000,9884.000,9993.000,9959.000,9849.000
195.925,9640.000,9618.000,9715.000,9736.000,9606.000,9579.000
199.731,9827.000,9745.000,9622.000,9671.000,9747.000,9789.000
203.532,9692.000,9733.000,9740.000,9766.000,9635.000,9676.000
207.333,9408.000,9449.000,9482.000,9400.000,9442.000,9602.000
211.132,9565.000,9466.000,9567.000,9522.000,9538.000,9555.000
214.929,9601.000,9601.000,9597.000,9594.000,9583.000,9543.000
218.724,9279.000,9349.000,9312.000,9311.000,9320.000,9222.000
222.519,9490.000,9503.000,9543.000,9486.000,9504.000,9557.000
226.313,9479.000,9471.000,9442.000,9465.000,9545.000,9488.000
230.104,9451.000,9339.000,9291.000,9414.000,9284.000,9262.000
233.894,9450.000,9426.000,9559.000,9425.000,9366.000,9464.000
237.681,9446.000,9410.000,9507.000,9459.000,9444.000,9341.000
241.469,9295.000,9339.000,9345.000,9307.000,9310.000,9287.000
245.253,9463.000,9438.000,9343.000,9401.000,9378.000,9387.000
249.038,9440.000,9439.000,9349.000,9353.000,9415.000,9464.000
252.819,9435.000,9292.000,9223.000,9337.000,9346.000,9333.000
256.600,9541.000,9500.000,9526.000,9523.000,9571.000,9550.000
260.380,9531.000,9515.000,9489.000,9541.000,9538.000,9524.000
264.156,9425.000,9446.000,9443.000,9403.000,9350.000,9374.000
267.933,9643.000,9515.000,9469.000,9655.000,9554.000,9560.000
271.707,9642.000,9725.000,9711.000,9675.000,9591.000,9710.000
275.480,9610.000,9533.000,9552.000,9541.000,9415.000,9476.000
279.251,9699.000,9696.000,9661.000,9777.000,9610.000,9644.000
283.021,9668.000,9783.000,9600.000,9784.000,9773.000,9840.000
286.790,9745.000,9715.000,9669.000,9561.000,9733.000,9654.000
290.556,9891.000,9983.000,9924.000,9772.000,9854.000,9789.000
294.322,10097.000,10030.000,9961.000,9950.000,9948.000,9983.000
298.084,9877.000,9899.000,9828.000,9981.000,9958.000,9864.000
301.847,10210.000,10155.000,10034.000,10088.000,10112.000,10151.000
305.607,10159.000,10272.000,10272.000,10343.000,10251.000,10188.000
309.367,10256.000,10326.000,10264.000,10244.000,10300.000,10159.000
313.123,10374.000,10418.000,10460.000,10430.000,10375.000,10462.000
316.880,10610.000,10592.000,10527.000,10701.000,10381.000,10519.000
320.635,10659.000,10619.000,10581.000,10508.000,10610.000,10500.000
324.387,10703.000,10745.000,10675.000,10594.000,10510.000,10582.000
328.139,10640.000,10694.000,10665.000,10715.000,10785.000,10654.000
331.888,10883.000,10898.000,10691.000,10847.000,10650.000,10796.000
335.638,11143.000,11148.000,11077.000,11153.000,11022.000,11007.000
339.384,11309.000,11254.000,11192.000,11259.000,11217.000,11116.000
343.130,11274.000,11299.000,11339.000,11203.000,11342.000,11216.000
346.873,11559.000,11622.000,11396.000,11516.000,11511.000,11437.000
350.616,11747.000,11711.000,11695.000,11812.000,11607.000,11664.000
354.357,11628.000,11756.000,11665.000,11715.000,11715.000,11680.000
358.095,11987.000,11958.000,11864.000,11863.000,11869.000,11979.000
361.835,12173.000,12139.000,12141.000,12211.000,12155.000,12179.000
365.569,12097.000,12187.000,12143.000,12172.000,12188.000,12260.000
369.305,12609.000,12435.000,12506.000,12364.000,12389.000,12478.000
373.037,12647.000,12586.000,12528.000,12578.000,12639.000,12538.000
376.770,12703.000,12682.000,12591.000,12642.000,12716.000,12660.000
380.498,12802.000,12797.000,12772.000,12785.000,12744.000,12729.000
384.228,13088.000,12967.000,12902.000,12979.000,12988.000,13065.000
387.956,12985.000,13016.000,13023.000,12927.000,12909.000,12941.000
391.681,13174.000,13220.000,13226.000,13123.000,13214.000,13268.000
395.405,13353.000,13370.000,13252.000,13301.000,13384.000,13288.000
399.127,13241.000,13367.000,13335.000,13454.000,13366.000,13195.000
402.849,13375.000,13422.000,13484.000,13564.000,13378.000,13420.000
406.567,13784.000,13708.000,13720.000,13689.000,13725.000,13770.000
410.287,13629.000,13698.000,13731.000,13662.000,13809.000,13609.000
414.003,13954.000,13868.000,13758.000,13790.000,13834.000,13863.000
417.719,14057.000,14148.000,14193.000,14168.000,14066.000,14124.000
421.432,14201.000,14220.000,14196.000,14182.000,14160.000,14200.000
425.144,14514.000,14425.000,14316.000,14328.000,14392.000,14256.000
428.855,14710.000,14653.000,14615.000,14561.000,14609.000,14587.000
432.563,14884.000,14781.000,14741.000,14791.000,14787.000,15009.000
436.272,14866.000,14875.000,14956.000,15018.000,14866.000,14891.000
439.977,15322.000,15338.000,15194.000,15239.000,15341.000,15414.000
443.683,15532.000,15526.000,15580.000,15439.000,15542.000,15602.000
447.386,15726.000,15643.000,15615.000,15682.000,15647.000,15527.000
451.087,16043.000,16143.000,16099.000,16146.000,16010.000,16204.000
454.788,16410.000,16248.000,16357.000,16288.000,16451.000,16307.000
458.485,16538.000,16462.000,16403.000,16519.000,16419.000,16498.000
462.183,17087.000,16927.000,16958.000,16917.000,16945.000,16926.000
465.879,17364.000,17365.000,17382.000,17307.000,17397.000,17381.000
469.574,17317.000,17274.000,17395.000,17309.000,17498.000,17429.000
473.265,17789.000,17866.000,17803.000,17777.000,17866.000,17727.000
476.957,17966.000,18064.000,17982.000,17947.000,18120.000,18115.000
480.647,18196.000,18155.000,18221.000,18030.000,18124.000,17976.000
484.335,18265.000,18220.000,18154.000,18198.000,18318.000,18263.000
488.022,18150.000,18286.000,18302.000,18300.000,18101.000,18139.000
491.706,17540.000,17658.000,17675.000,17622.000,17624.000,17674.000
495.391,16943.000,16951.000,16882.000,16888.000,16921.000,16965.000
499.072,15831.000,15833.000,15814.000,15928.000,15920.000,16004.000
502.754,14468.000,14430.000,14472.000,14570.000,14465.000,14397.000
506.432,13317.000,13167.000,13290.000,13191.000,13055.000,13239.000
510.111,11930.000,11805.000,11893.000,11889.000,11921.000,11939.000
513.788,10815.000,10735.000,10801.000,10863.000,10595.000,10723.000
517.462,9838.000,9699.000,9707.000,9640.000,9756.000,9762.000
521.136,9127.000,9071.000,9049.000,9183.000,8994.000,8995.000
524.807,8431.000,8386.000,8399.000,8384.000,8325.000,8342.000
528.479,7978.000,7880.000,7842.000,7876.000,7964.000,7851.000
532.147,7461.000,7580.000,7420.000,7469.000,7564.000,7517.000
535.815,7209.000,7238.000,7213.000,7159.000,7186.000,7226.000
539.480,6844.000,6868.000,6899.000,6912.000,6894.000,6906.000
543.145,6736.000,6659.000,6670.000,6740.000,6683.000,6744.000
546.809,6505.000,6463.000,6318.000,6466.000,6464.000,6521.000
550.469,6227.000,6127.000,6290.000,6192.000,6247.000,6119.000
554.131,6161.000,6119.000,5984.000,6119.000,6012.000,6066.000
557.788,5910.000,5906.000,5854.000,5815.000,5854.000,5831.000
561.446,5611.000,5633.000,5626.000,5713.000,5762.000,5607.000
565.100,5519.000,5634.000,5535.000,5420.000,5490.000,5432.000
568.756,5351.000,5286.000,5342.000,5418.000,5346.000,5314.000
572.408,5206.000,5201.000,5221.000,5118.000,5162.000,5141.000
576.060,5119.000,5006.000,5092.000,5017.000,4994.000,5016.000
579.711,4944.000,4959.000,4898.000,4885.000,4824.000,4885.000
583.358,4761.000,4756.000,4737.000,4720.000,4748.000,4694.000
587.006,4685.000,4624.000,4644.000,4623.000,4609.000,4571.000
590.650,4549.000,4623.000,4568.000,4621.000,4532.000,4590.000
594.295,4431.000,4437.000,4436.000,4419.000,4435.000,4395.000
597.937,4347.000,4287.000,4286.000,4314.000,4383.000,4229.000
601.579,4342.000,4315.000,4269.000,4244.000,4277.000,4283.000
605.217,4196.000,4182.000,4128.000,4077.000,4131.000,4162.000
608.856,4085.000,4073.000,4047.000,4075.000,4053.000,4045.000
612.494,4031.000,3978.000,3940.000,3987.000,3972.000,3906.000
616.129,3933.000,3886.000,3832.000,3819.000,3840.000,3818.000
619.763,3779.000,3779.000,3797.000,3703.000,3775.000,3734.000
623.394,3706.000,3743.000,3695.000,3691.000,3648.000,3665.000
627.026,3645.000,3563.000,3640.000,3672.000,3588.000,3584.000
630.655,3569.000,3534.000,3479.000,3506.000,3518.000,3412.000
634.284,3538.000,3544.000,3494.000,3483.000,3487.000,3499.000
637.911,3461.000,3448.000,3433.000,3376.000,3481.000,3374.000
641.535,3387.000,3363.000,3354.000,3386.000,3319.000,3329.000
645.160,3371.000,3342.000,3280.000,3297.000,3273.000,3322.000
648.781,3393.000,3305.000,3311.000,3262.000,3287.000,3286.000
652.403,3281.000,3231.000,3254.000,3248.000,3221.000,3260.000
656.021,3242.000,3326.000,3207.000,3206.000,3267.000,3288.000
659.640,3306.000,3275.000,3191.000,3249.000,3182.000,3202.000
663.256,3209.000,3267.000,3151.000,3141.000,3114.000,3179.000
666.872,3139.000,3175.000,3159.000,3168.000,3154.000,3140.000
670.485,3153.000,3170.000,3073.000,3085.000,3073.000,3114.000
674.097,3153.000,3114.000,3092.000,3138.000,3026.000,3083.000
677.709,3117.000,3079.000,3071.000,3014.000,3035.000,3036.000
681.317,3113.000,3119.000,3068.000,3070.000,3068.000,3061.000
684.926,3091.000,3076.000,3049.000,3033.000,2967.000,3004.000
688.531,3088.000,3006.000,2982.000,3040.000,2984.000,2992.000
692.136,3064.000,3008.000,3007.000,2955.000,2949.000,2985.000
695.739,3007.000,3024.000,2939.000,2955.000,2872.000,2905.000
699.342,3004.000,2983.000,2955.000,2974.000,2947.000,2925.000
702.944,2993.000,2970.000,2927.000,2952.000,2903.000,2941.000
706.542,2995.000,2936.000,2988.000,2922.000,2901.000,2883.000
710.141,2934.000,2921.000,2861.000,2910.000,2906.000,2856.000
713.736,2910.000,2913.000,2961.000,2850.000,2894.000,2840.000
717.332,2961.000,2908.000,2908.000,2902.000,2799.000,2922.000
720.925,2872.000,2859.000,2872.000,2825.000,2806.000,2811.000
724.517,2906.000,2891.000,2861.000,2862.000,2814.000,2807.000
728.106,2872.000,2835.000,2861.000,2813.000,2850.000,2839.000
731.697,2917.000,2817.000,2827.000,2788.000,2786.000,2788.000
735.286,2842.000,2838.000,2854.000,2842.000,2776.000,2792.000
738.871,2872.000,2869.000,2876.000,2832.000,2839.000,2820.000
742.457,2858.000,2848.000,2832.000,2789.000,2813.000,2743.000
746.039,2889.000,2865.000,2784.000,2787.000,2786.000,2864.000
749.622,2903.000,2873.000,2879.000,2904.000,2788.000,2798.000
753.202,2886.000,2913.000,2808.000,2829.000,2861.000,2815.000
756.782,2918.000,2830.000,2875.000,2874.000,2825.000,2834.000
760.360,2927.000,2938.000,2862.000,2885.000,2888.000,2908.000
763.937,3005.000,2985.000,2989.000,2962.000,2910.000,2955.000
767.512,3148.000,3123.000,3097.000,3123.000,3067.000,3071.000
771.085,3403.000,3374.000,3436.000,3372.000,3313.000,3268.000
774.657,3620.000,3641.000,3624.000,3607.000,3541.000,3610.000
778.228,3871.000,3870.000,3868.000,3856.000,3777.000,3804.000
781.797,4156.000,4045.000,4073.000,4039.000,4062.000,3983.000
785.364,4250.000,4220.000,4167.000,4161.000,4154.000,4170.000
788.932,4207.000,4227.000,4220.000,4191.000,4165.000,4137.000
792.498,4288.000,4209.000,4240.000,4263.000,4208.000,4158.000
796.060,4367.000,4264.000,4298.000,4206.000,4223.000,4252.000
799.624,4190.000,4191.000,4151.000,4117.000,4130.000,4139.000
803.184,4237.000,4125.000,4165.000,4144.000,4035.000,4134.000
806.744,4233.000,4148.000,4149.000,4129.000,4137.000,4135.000
810.301,4071.000,4071.000,4039.000,3993.000,4051.000,4043.000
813.859,4042.000,3995.000,3942.000,3923.000,3907.000,3936.000
817.413,3951.000,3937.000,3855.000,3892.000,3831.000,3922.000
820.967,3822.000,3785.000,3727.000,3759.000,3746.000,3786.000
824.520,3662.000,3656.000,3626.000,3619.000,3677.000,3543.000
828.071,3520.000,3470.000,3526.000,3474.000,3534.000,3428.000
831.622,3427.000,3406.000,3333.000,3316.000,3335.000,3283.000
835.169,3182.000,3163.000,3197.000,3138.000,3159.000,3137.000
838.716,2987.000,2979.000,3019.000,3028.000,2984.000,2967.000
842.261,2900.000,2878.000,2860.000,2811.000,2835.000,2822.000
845.806,2711.000,2721.000,2674.000,2661.000,2717.000,2646.000
849.347,2670.000,2609.000,2630.000,2570.000,2522.000,2564.000
852.890,2640.000,2601.000,2514.000,2567.000,2545.000,2490.000
856.430,2571.000,2489.000,2477.000,2464.000,2470.000,2473.000
859.968,2540.000,2499.000,2477.000,2444.000,2449.000,2479.000
863.506,2570.000,2495.000,2526.000,2483.000,2448.000,2497.000
867.040,2518.000,2569.000,2445.000,2478.000,2466.000,2485.000
870.574,2564.000,2472.000,2494.000,2474.000,2501.000,2452.000
874.106,2598.000,2574.000,2554.000,2511.000,2535.000,2511.000
877.640,2595.000,2572.000,2561.000,2536.000,2488.000,2510.000
881.168,2603.000,2568.000,2614.000,2536.000,2562.000,2621.000
884.698,2688.000,2694.000,2658.000,2655.000,2604.000,2653.000
888.226,2763.000,2719.000,2747.000,2697.000,2717.000,2682.000
891.750,2773.000,2790.000,2743.000,2749.000,2738.000,2704.000
895.276,2867.000,2858.000,2836.000,2811.000,2787.000,2803.000
898.798,2999.000,2938.000,2908.000,2871.000,2899.000,2873.000
902.321,3018.000,2980.000,2990.000,2875.000,2959.000,2899.000
905.840,3037.000,3036.000,3038.000,3017.000,3011.000,2941.000
909.360,3123.000,3174.000,3114.000,3082.000,3050.000,3154.000
912.876,3231.000,3133.000,3191.000,3118.000,3097.000,3111.000
916.393,3253.000,3282.000,3227.000,3201.000,3187.000,3167.000
919.909,3372.000,3331.000,3314.000,3241.000,3346.000,3301.000
923.422,3464.000,3435.000,3371.000,3387.000,3362.000,3322.000
926.934,3559.000,3454.000,3456.000,3431.000,3410.000,3393.000
930.444,3659.000,3656.000,3557.000,3563.000,3619.000,3573.000
933.954,3745.000,3788.000,3774.000,3797.000,3685.000,3706.000
937.461,3881.000,3852.000,3923.000,3818.000,3861.000,3763.000
940.968,4148.000,4076.000,4066.000,4065.000,4016.000,4056.000
944.475,4316.000,4228.000,4275.000,4176.000,4281.000,4234.000
947.978,4434.000,4401.000,4350.000,4362.000,4362.000,4362.000
951.481,4589.000,4680.000,4604.000,4554.000,4645.000,4575.000
954.981,4959.000,4899.000,4904.000,4868.000,4818.000,4886.000
958.482,5087.000,4955.000,5091.000,4967.000,5013.000,4964.000
961.979,5217.000,5189.000,5108.000,5108.000,5017.000,5015.000
965.476,5331.000,5321.000,5333.000,5330.000,5266.000,5305.000
968.971,5394.000,5464.000,5289.000,5301.000,5283.000,5350.000
972.466,5319.000,5287.000,5363.000,5293.000,5338.000,5238.000
975.959,5348.000,5334.000,5373.000,5265.000,5283.000,5207.000
979.451,5232.000,5104.000,5055.000,5021.000,5056.000,5055.000
982.941,4883.000,4858.000,4801.000,4782.000,4762.000,4754.000
986.428,4562.000,4570.000,4537.000,4557.000,4495.000,4489.000
989.917,4298.000,4237.000,4233.000,4309.000,4274.000,4201.000
993.402,3916.000,3909.000,3892.000,3887.000,3849.000,3842.000
996.887,3681.000,3618.000,3653.000,3618.000,3613.000,3590.000
1000.369,3517.000,3486.000,3427.000,3472.000,3417.000,3379.000
1003.852,3308.000,3298.000,3241.000,3187.000,3228.000,3244.000
1007.333,3136.000,3169.000,3087.000,3101.000,3108.000,3035.000
1010.812,3037.000,3015.000,3070.000,2961.000,2988.000,2976.000
1014.290,2917.000,2952.000,2873.000,2893.000,2870.000,2903.000
1017.766,2791.000,2836.000,2805.000,2767.000,2776.000,2808.000
1021.241,2932.000,2806.000,2824.000,2849.000,2822.000,2795.000
1024.714,2845.000,2809.000,2815.000,2756.000,2764.000,2740.000
1028.188,2742.000,2808.000,2769.000,2746.000,2760.000,2683.000
1031.658,2780.000,2819.000,2778.000,2777.000,2768.000,2748.000
1035.128,2854.000,2788.000,2817.000,2798.000,2757.000,2779.000
1038.598,2816.000,2825.000,2769.000,2754.000,2778.000,2710.000
1042.063,2838.000,2851.000,2811.000,2820.000,2790.000,2793.000
1045.530,2867.000,2850.000,2849.000,2815.000,2806.000,2798.000
1048.994,2898.000,2874.000,2845.000,2748.000,2840.000,2798.000
1052.457,2912.000,2898.000,2883.000,2815.000,2790.000,2785.000
1055.917,2928.000,2935.000,2810.000,2872.000,2771.000,2786.000
1059.379,2900.000,2859.000,2817.000,2808.000,2763.000,2803.000
1062.838,2812.000,2816.000,2775.000,2846.000,2759.000,2727.000
1066.294,2833.000,2819.000,2785.000,2780.000,2716.000,2745.000
1069.752,2819.000,2789.000,2774.000,2737.000,2756.000,2742.000
1073.206,2746.000,2705.000,2716.000,2645.000,2687.000,2681.000
1076.660,2710.000,2654.000,2644.000,2648.000,2591.000,2603.000
1080.110,2679.000,2668.000,2634.000,2599.000,2592.000,2552.000
1083.562,2624.000,2562.000,2565.000,2565.000,2564.000,2543.000
1087.011,2557.000,2484.000,2483.000,2493.000,2477.000,2446.000
1090.460,2534.000,2492.000,2446.000,2464.000,2468.000,2400.000
1093.908,2458.000,2399.000,2411.000,2348.000,2356.000,2336.000
1097.351,2386.000,2351.000,2303.000,2295.000,2301.000,2268.000
1100.796,2349.000,2286.000,2342.000,2252.000,2251.000,2252.000
1104.238,2301.000,2298.000,2255.000,2261.000,2240.000,2227.000
1107.681,2273.000,2235.000,2237.000,2215.000,2166.000,2168.000
1111.120,2226.000,2205.000,2191.000,2200.000,2137.000,2133.000
1114.559,2239.000,2228.000,2246.000,2209.000,2171.000,2127.000
1117.995,2218.000,2254.000,2182.000,2190.000,2141.000,2171.000
1121.432,2259.000,2256.000,2170.000,2187.000,2150.000,2150.000
1124.867,2286.000,2214.000,2210.000,2148.000,2166.000,2167.000
1128.300,2264.000,2243.000,2211.000,2173.000,2164.000,2170.000
1131.733,2258.000,2271.000,2234.000,2181.000,2197.000,2187.000
1135.163,2256.000,2292.000,2255.000,2237.000,2188.000,2216.000
1138.593,2310.000,2263.000,2289.000,2264.000,2236.000,2170.000
1142.020,2238.000,2258.000,2234.000,2209.000,2239.000,2205.000
1145.447,2298.000,2238.000,2239.000,2229.000,2217.000,2195.000
1148.872,2284.000,2276.000,2231.000,2271.000,2233.000,2205.000
1152.297,2328.000,2269.000,2218.000,2236.000,2244.000,2181.000
1155.720,2264.000,2271.000,2253.000,2201.000,2268.000,2229.000
1159.141,2304.000,2321.000,2334.000,2258.000,2263.000,2264.000
1162.561,2304.000,2273.000,2254.000,2271.000,2196.000,2231.000
1165.979,2317.000,2272.000,2261.000,2243.000,2236.000,2226.000
1169.397,2299.000,2301.000,2262.000,2285.000,2235.000,2205.000
1172.813,2281.000,2303.000,2279.000,2237.000,2294.000,2216.000
1176.229,2269.000,2256.000,2213.000,2232.000,2253.000,2178.000
1179.641,2310.000,2277.000,2247.000,2201.000,2200.000,2204.000
1183.054,2279.000,2293.000,2253.000,2220.000,2237.000,2210.000
1186.465,2307.000,2248.000,2236.000,2222.000,2205.000,2157.000
1189.874,2246.000,2253.000,2218.000,2164.000,2172.000,2162.000
1193.282,2251.000,2270.000,2208.000,2179.000,2181.000,2184.000
1196.688,2267.000,2144.000,2155.000,2138.000,2128.000,2122.000
1200.095,2219.000,2165.000,2142.000,2149.000,2112.000,2065.000
1203.498,2230.000,2136.000,2150.000,2121.000,2115.000,2123.000
1206.902,2157.000,2161.000,2115.000,2116.000,2072.000,2087.000
1210.302,2082.000,2084.000,2049.000,2013.000,2073.000,2011.000
1213.703,2142.000,2113.000,2077.000,2105.000,2039.000,2041.000
1217.103,2105.000,2066.000,2056.000,2022.000,2033.000,2039.000
1220.499,2062.000,2063.000,2036.000,1977.000,1967.000,1978.000
1223.897,2051.000,2012.000,1933.000,1976.000,1949.000,1915.000
1227.291,1993.000,1992.000,1981.000,1956.000,1926.000,1938.000
1230.685,2009.000,1976.000,1939.000,1915.000,1887.000,1877.000
1234.076,1936.000,1911.000,1932.000,1851.000,1860.000,1795.000
1237.469,1920.000,1900.000,1873.000,1853.000,1842.000,1854.000
1240.858,1902.000,1831.000,1817.000,1818.000,1830.000,1750.000
1244.246,1870.000,1831.000,1778.000,1817.000,1787.000,1763.000
1247.634,1807.000,1843.000,1769.000,1774.000,1734.000,1725.000
1251.020,1783.000,1810.000,1741.000,1759.000,1754.000,1727.000
1254.405,1831.000,1820.000,1692.000,1750.000,1760.000,1667.000
1257.787,1787.000,1747.000,1756.000,1690.000,1689.000,1679.000
1261.170,1771.000,1737.000,1739.000,1710.000,1672.000,1682.000
1264.549,1795.000,1748.000,1808.000,1705.000,1695.000,1689.000
1267.929,1899.000,1797.000,1818.000,1787.000,1728.000,1750.000
1271.308,1877.000,1875.000,1827.000,1834.000,1775.000,1785.000
1274.683,1802.000,1798.000,1763.000,1740.000,1721.000,1674.000
1278.060,1741.000,1702.000,1687.000,1672.000,1651.000,1610.000
1281.433,1690.000,1672.000,1646.000,1610.000,1638.000,1626.000
1284.807,1701.000,1709.000,1607.000,1644.000,1635.000,1613.000
1288.177,1660.000,1681.000,1627.000,1620.000,1603.000,1610.000
1291.548,1720.000,1618.000,1626.000,1600.000,1590.000,1597.000
1294.916,1701.000,1654.000,1637.000,1617.000,1615.000,1593.000
1298.284,1685.000,1661.000,1625.000,1622.000,1586.000,1554.000
1301.652,1671.000,1619.000,1639.000,1584.000,1540.000,1558.000
1305.015,1712.000,1623.000,1652.000,1644.000,1572.000,1575.000
1308.380,1656.000,1665.000,1643.000,1644.000,1566.000,1584.000
1311.742,1685.000,1630.000,1603.000,1580.000,1564.000,1567.000
1315.104,1677.000,1654.000,1597.000,1609.000,1597.000,1578.000
1318.462,1656.000,1655.000,1639.000,1600.000,1577.000,1561.000
1321.822,1699.000,1644.000,1584.000,1616.000,1578.000,1572.000
1325.180,1641.000,1631.000,1612.000,1584.000,1549.000,1523.000
1328.535,1681.000,1639.000,1657.000,1561.000,1612.000,1568.000
1331.891,1673.000,1645.000,1634.000,1581.000,1607.000,1601.000
1335.243,1661.000,1615.000,1574.000,1602.000,1555.000,1589.000
1338.595,1651.000,1635.000,1591.000,1603.000,1591.000,1573.000
1341.946,1666.000,1666.000,1599.000,1634.000,1610.000,1544.000
1345.296,1674.000,1634.000,1576.000,1607.000,1547.000,1565.000
1348.643,1668.000,1638.000,1596.000,1586.000,1584.000,1570.000
1351.991,1680.000,1661.000,1633.000,1643.000,1555.000,1568.000
1355.337,1685.000,1635.000,1621.000,1598.000,1593.000,1565.000
1358.680,1682.000,1695.000,1595.000,1595.000,1598.000,1575.000
1362.025,1692.000,1693.000,1653.000,1612.000,1590.000,1530.000
1365.366,1689.000,1676.000,1629.000,1628.000,1638.000,1633.000
1368.707,1724.000,1708.000,1698.000,1655.000,1626.000,1640.000
1372.045,1853.000,1861.000,1837.000,1776.000,1776.000,1775.000
1375.384,2316.000,2287.000,2191.000,2231.000,2176.000,2195.000
1378.720,2061.000,2074.000,2038.000,2048.000,1958.000,2002.000
1382.057,1783.000,1777.000,1738.000,1716.000,1705.000,1680.000
1385.391,1697.000,1655.000,1682.000,1664.000,1654.000,1583.000
1388.723,1690.000,1729.000,1674.000,1623.000,1613.000,1589.000
1392.056,1721.000,1662.000,1672.000,1632.000,1625.000,1599.000
1395.385,1683.000,1690.000,1642.000,1623.000,1628.000,1599.000
1398.714,1714.000,1675.000,1607.000,1623.000,1632.000,1582.000
1402.042,1694.000,1657.000,1643.000,1547.000,1599.000,1582.000
1405.369,1683.000,1649.000,1588.000,1642.000,1563.000,1607.000
1408.692,1639.000,1650.000,1654.000,1591.000,1570.000,1574.000
1412.017,1695.000,1672.000,1653.000,1583.000,1610.000,1575.000
1415.341,1674.000,1611.000,1612.000,1601.000,1573.000,1560.000
1418.662,1677.000,1658.000,1632.000,1619.000,1597.000,1511.000
1421.982,1664.000,1682.000,1651.000,1611.000,1620.000,1568.000
1425.300,1686.000,1644.000,1644.000,1640.000,1551.000,1562.000
1428.619,1699.000,1675.000,1577.000,1594.000,1577.000,1570.000
1431.935,1703.000,1655.000,1659.000,1570.000,1586.000,1568.000
1435.250,1710.000,1679.000,1619.000,1634.000,1581.000,1590.000
1438.563,1682.000,1662.000,1615.000,1587.000,1556.000,1555.000
1441.877,1711.000,1644.000,1613.000,1635.000,1607.000,1600.000
1445.189,1688.000,1649.000,1635.000,1568.000,1594.000,1614.000
1448.497,1731.000,1645.000,1623.000,1593.000,1620.000,1586.000
1451.807,1669.000,1647.000,1627.000,1590.000,1614.000,1560.000
1455.114,1706.000,1690.000,1621.000,1620.000,1626.000,1585.000
1458.420,1696.000,1653.000,1641.000,1598.000,1589.000,1567.000
1461.725,1708.000,1663.000,1617.000,1588.000,1561.000,1540.000
1465.029,1689.000,1686.000,1636.000,1580.000,1605.000,1568.000
1468.331,1729.000,1655.000,1674.000,1605.000,1606.000,1571.000
1471.632,1695.000,1664.000,1645.000,1625.000,1578.000,1560.000
1474.934,1717.000,1687.000,1621.000,1632.000,1616.000,1607.000
1478.232,1691.000,1654.000,1647.000,1654.000,1594.000,1624.000
1481.530,1735.000,1676.000,1684.000,1644.000,1602.000,1591.000
1484.825,1701.000,1676.000,1647.000,1611.000,1590.000,1596.000
1488.120,1724.000,1701.000,1658.000,1679.000,1648.000,1597.000
1491.414,1705.000,1695.000,1672.000,1653.000,1617.000,1585.000
1494.707,1746.000,1687.000,1669.000,1649.000,1631.000,1610.000
1497.997,1753.000,1725.000,1684.000,1613.000,1637.000,1578.000
1501.287,1737.000,1715.000,1696.000,1671.000,1622.000,1661.000
1504.577,1703.000,1737.000,1678.000,1661.000,1602.000,1609.000
1507.863,1735.000,1726.000,1673.000,1643.000,1637.000,1654.000
1511.151,1746.000,1679.000,1643.000,1683.000,1631.000,1599.000
1514.435,1749.000,1735.000,1701.000,1666.000,1653.000,1643.000
1517.719,1793.000,1694.000,1664.000,1662.000,1681.000,1636.000
1521.001,1780.000,1759.000,1692.000,1654.000,1655.000,1632.000
1524.282,1737.000,1782.000,1729.000,1703.000,1696.000,1656.000
1527.561,1792.000,1735.000,1707.000,1656.000,1680.000,1651.000
1530.840,1792.000,1707.000,1701.000,1699.000,1664.000,1668.000
1534.118,1769.000,1732.000,1713.000,1681.000,1664.000,1640.000
1537.394,1838.000,1726.000,1716.000,1728.000,1683.000,1687.000
1540.670,1801.000,1725.000,1719.000,1702.000,1706.000,1634.000
1543.943,1826.000,1750.000,1713.000,1743.000,1682.000,1680.000
1547.216,1774.000,1802.000,1754.000,1716.000,1736.000,1703.000
1550.486,1834.000,1805.000,1768.000,1763.000,1719.000,1693.000
1553.756,1842.000,1783.000,1761.000,1727.000,1738.000,1703.000
1557.027,1836.000,1800.000,1761.000,1746.000,1742.000,1709.000
1560.293,1860.000,1802.000,1786.000,1753.000,1730.000,1754.000
1563.560,1859.000,1812.000,1764.000,1974.000,1733.000,1691.000
1566.824,1845.000,1798.000,1781.000,1780.000,1773.000,1738.000
1570.088,1867.000,1777.000,1813.000,1744.000,1764.000,1725.000
1573.350,1860.000,1841.000,1825.000,1785.000,1772.000,1737.000
1576.612,1869.000,1827.000,1833.000,1782.000,1770.000,1735.000
1579.872,1917.000,1851.000,1807.000,1819.000,1788.000,1751.000
1583.131,1901.000,1867.000,1805.000,1800.000,1778.000,1793.000
1586.390,1927.000,1858.000,1827.000,1824.000,1780.000,1777.000
1589.645,1938.000,1898.000,1868.000,1860.000,1830.000,1787.000
1592.901,1956.000,1905.000,1891.000,1872.000,1830.000,1836.000
1596.154,1931.000,1931.000,1915.000,1878.000,1873.000,1863.000
1599.408,1997.000,1972.000,1935.000,1917.000,1928.000,1867.000
1602.658,2015.000,2026.000,1978.000,1958.000,1921.000,1893.000
1605.909,2054.000,2021.000,1966.000,1981.000,1936.000,1927.000
1609.158,2059.000,2014.000,2009.000,1975.000,1908.000,1965.000
1612.405,2033.000,2030.000,1968.000,1918.000,1942.000,1935.000
1615.653,2066.000,2004.000,1998.000,1949.000,1909.000,1914.000
1618.898,2043.000,2013.000,1974.000,1946.000,1940.000,1890.000
1622.142,2002.000,1971.000,1901.000,1922.000,1917.000,1863.000
1625.384,2040.000,1980.000,1964.000,1916.000,1886.000,1888.000
1628.627,1994.000,1940.000,1917.000,1903.000,1907.000,1855.000
1631.866,1984.000,1914.000,1910.000,1916.000,1837.000,1841.000
1635.106,1939.000,1926.000,1890.000,1862.000,1859.000,1834.000
1638.345,1917.000,1890.000,1829.000,1841.000,1796.000,1821.000
1641.580,1922.000,1894.000,1825.000,1817.000,1763.000,1741.000
1644.816,1883.000,1881.000,1810.000,1806.000,1744.000,1753.000
1648.050,1857.000,1832.000,1815.000,1759.000,1792.000,1758.000
1651.285,1877.000,1822.000,1735.000,1754.000,1776.000,1758.000
1654.515,1868.000,1775.000,1782.000,1725.000,1737.000,1728.000
1657.747,1831.000,1760.000,1752.000,1746.000,1760.000,1698.000
1660.975,1814.000,1777.000,1750.000,1740.000,1713.000,1699.000
1664.204,1835.000,1763.000,1739.000,1739.000,3019.000,1695.000
1667.431,1805.000,1780.000,1743.000,1738.000,1704.000,1661.000
1670.656,1791.000,1714.000,1751.000,1698.000,1683.000,1691.000
1673.882,1799.000,1717.000,1726.000,1713.000,1675.000,1651.000
1677.104,1739.000,1778.000,1689.000,1711.000,1637.000,1658.000
1680.328,1759.000,1742.000,1731.000,1676.000,1667.000,1655.000
1683.548,1763.000,1729.000,1695.000,1689.000,1644.000,1649.000
1686.768,1781.000,1741.000,1707.000,1702.000,1654.000,1643.000
1689.986,1785.000,1726.000,1674.000,1708.000,1655.000,1619.000
1693.203,1767.000,1741.000,1720.000,1663.000,1645.000,1630.000
1696.420,1741.000,1732.000,1680.000,1674.000,1639.000,1626.000
1699.634,1767.000,1736.000,1670.000,1683.000,1631.000,1599.000
1702.848,1788.000,1705.000,1680.000,1635.000,1658.000,1579.000
1706.060,1722.000,1669.000,1651.000,1651.000,1641.000,1605.000
1709.272,1764.000,1745.000,1665.000,1686.000,1625.000,1626.000
1712.482,1763.000,1714.000,1698.000,1620.000,1632.000,1597.000
1715.691,1771.000,1724.000,1673.000,1638.000,1618.000,1634.000
1718.897,1779.000,1718.000,1677.000,1656.000,1641.000,1611.000
1722.105,1766.000,1716.000,1641.000,1639.000,1609.000,1579.000
1725.311,1731.000,1680.000,1644.000,1653.000,1605.000,1598.000
1728.514,1760.000,1695.000,1664.000,1637.000,1599.000,1577.000
1731.718,1738.000,1699.000,1673.000,1657.000,1635.000,1595.000
1734.918,1744.000,1698.000,1667.000,1643.000,1613.000,1591.000
1738.120,1755.000,1672.000,1678.000,1651.000,1620.000,1620.000
1741.318,1739.000,1686.000,1624.000,1618.000,1610.000,1570.000
1744.517,1719.000,1671.000,1637.000,1683.000,1647.000,1593.000
1747.712,1706.000,1667.000,1651.000,1669.000,1638.000,1582.000
1750.909,1758.000,1709.000,1660.000,1634.000,1603.000,1587.000
1754.104,1763.000,1658.000,1656.000,1614.000,1622.000,1643.000
1757.297,1718.000,1665.000,1666.000,1649.000,1612.000,1606.000
1760.489,1709.000,1717.000,1650.000,1648.000,1623.000,1583.000
1763.679,1729.000,1736.000,1645.000,1638.000,1645.000,1640.000
1766.870,1711.000,1704.000,1651.000,1606.000,1603.000,1602.000
1770.057,1736.000,1679.000,1660.000,1650.000,1594.000,1566.000
1773.245,1724.000,1689.000,1657.000,1625.000,1631.000,1603.000
1776.430,1727.000,1684.000,1670.000,1614.000,1619.000,1586.000
1779.616,1721.000,1689.000,1665.000,1614.000,1617.000,1627.000
1782.800,1739.000,1664.000,1646.000,1611.000,1599.000,1639.000
1785.982,1751.000,1668.000,1663.000,1596.000,1629.000,1592.000
1789.164,1705.000,1686.000,1657.000,1579.000,1616.000,1609.000
1792.343,1704.000,1690.000,1677.000,1647.000,1637.000,1601.000
1795.523,1727.000,1698.000,1659.000,1655.000,1575.000,1631.000
1798.700,1751.000,1690.000,1623.000,1643.000,1623.000,1586.000
1801.877,1745.000,1710.000,1669.000,1607.000,1612.000,1605.000
1805.052,1747.000,1714.000,1666.000,1631.000,1622.000,1601.000
1808.226,1745.000,1678.000,1661.000,1665.000,1656.000,1631.000
1811.400,1759.000,1681.000,1662.000,1632.000,1648.000,1610.000
1814.571,1739.000,1684.000,1688.000,1663.000,1621.000,1613.000
1816.157,1736.000,1685.000,1628.000,1638.000,1633.000,1612.000