File: Raman/Silica/2025_08_22_Nat_SiO2_Glass_XRD_50X_532nm_74mW_Andor750_600gv_2200wn_3accum_10s_UnPol_Pos7.csv
1327.239,1046.000,1091.000,1099.000
1328.911,1053.000,1071.000,1105.000
1330.584,1071.000,1081.000,1083.000
1332.255,1061.000,1107.000,1080.000
1333.927,1077.000,1079.000,1098.000
1335.599,1062.000,1094.000,1087.000
1337.269,1087.000,1075.000,1093.000
1338.940,1059.000,1063.000,1098.000
1340.610,1073.000,1088.000,1079.000
1342.280,1065.000,1077.000,1090.000
1343.950,1063.000,1094.000,1077.000
1345.620,1075.000,1055.000,1079.000
1347.288,1069.000,1096.000,1079.000
1348.955,1064.000,1073.000,1075.000
1350.623,1080.000,1100.000,1075.000
1352.292,1080.000,1093.000,1073.000
1353.960,1066.000,1090.000,1090.000
1355.627,1082.000,1081.000,1088.000
1357.294,1062.000,1087.000,1097.000
1358.961,1091.000,1115.000,1069.000
1360.628,1046.000,1086.000,1079.000
1362.294,1066.000,1088.000,1079.000
1363.960,1073.000,1093.000,1083.000
1365.626,1092.000,1075.000,1063.000
1367.290,1075.000,1082.000,1066.000
1368.955,1054.000,1067.000,1084.000
1370.620,1070.000,1096.000,1085.000
1372.285,1064.000,1075.000,1070.000
1373.948,1062.000,1090.000,1098.000
1375.612,1065.000,1092.000,1085.000
1377.275,1070.000,1091.000,1101.000
1378.938,1085.000,1087.000,1071.000
1380.601,1070.000,1086.000,1104.000
1382.264,1077.000,1060.000,1097.000
1383.925,1063.000,1073.000,1069.000
1385.587,1072.000,1091.000,1085.000
1387.249,1061.000,1075.000,1083.000
1388.910,1065.000,1075.000,1056.000
1390.569,1065.000,1101.000,1091.000
1392.229,1044.000,1077.000,1086.000
1393.889,1085.000,1102.000,1082.000
1395.549,1072.000,1097.000,1071.000
1397.209,1068.000,1070.000,1084.000
1398.868,1067.000,1091.000,1057.000
1400.527,1073.000,1095.000,1096.000
1402.186,1064.000,1099.000,1109.000
1403.844,1065.000,1096.000,1077.000
1405.501,1066.000,1086.000,1095.000
1407.159,1036.000,1053.000,1089.000
1408.817,1063.000,1100.000,1080.000
1410.474,1083.000,1097.000,1112.000
1412.130,1058.000,1109.000,1096.000
1413.787,1043.000,1114.000,1066.000
1415.442,1055.000,1078.000,1097.000
1417.099,1064.000,1089.000,1105.000
1418.754,1063.000,1082.000,1090.000
1420.408,1081.000,1082.000,1101.000
1422.064,1079.000,1095.000,1092.000
1423.718,1082.000,1107.000,1107.000
1425.372,1076.000,1097.000,1080.000
1427.027,1090.000,1104.000,1122.000
1428.680,1094.000,1080.000,1097.000
1430.333,1055.000,1101.000,1087.000
1431.984,1087.000,1090.000,1078.000
1433.637,1074.000,1092.000,1086.000
1435.289,1065.000,1102.000,1084.000
1436.941,1084.000,1105.000,1103.000
1438.593,1079.000,1080.000,1087.000
1440.244,1072.000,1100.000,1064.000
1441.895,1051.000,1096.000,1101.000
1443.546,1068.000,1087.000,1116.000
1445.196,1109.000,1088.000,1098.000
1446.846,1070.000,1100.000,1080.000
1448.496,1055.000,1107.000,1115.000
1450.146,1071.000,1080.000,1105.000
1451.794,1079.000,1124.000,1109.000
1453.444,1085.000,1109.000,1093.000
1455.092,1061.000,1094.000,1090.000
1456.741,1084.000,1114.000,1122.000
1458.388,1091.000,1135.000,1087.000
1460.035,1079.000,1100.000,1099.000
1461.682,1109.000,1094.000,1078.000
1463.330,1089.000,1122.000,1105.000
1464.976,1089.000,1090.000,1111.000
1466.623,1065.000,1097.000,1108.000
1468.269,1095.000,1082.000,1131.000
1469.914,1084.000,1111.000,1072.000
1471.560,1104.000,1117.000,1104.000
1473.203,1086.000,1103.000,1112.000
1474.848,1085.000,1089.000,1113.000
1476.492,1080.000,1095.000,1110.000
1478.137,1108.000,1110.000,1129.000
1479.780,1104.000,1082.000,1093.000
1481.424,1095.000,1112.000,1107.000
1483.067,1092.000,1121.000,1110.000
1484.709,1089.000,1109.000,1086.000
1486.352,1099.000,1083.000,1105.000
1487.995,1105.000,1130.000,1107.000
1489.636,1089.000,1152.000,1118.000
1491.277,1119.000,1136.000,1089.000
1492.919,1078.000,1102.000,1095.000
1494.560,1124.000,1110.000,1097.000
1496.201,1096.000,1124.000,1099.000
1497.841,1085.000,1107.000,1126.000
1499.481,1112.000,1114.000,1131.000
1501.122,1139.000,1122.000,1127.000
1502.761,1115.000,1118.000,1129.000
1504.400,1082.000,1147.000,1129.000
1506.039,1099.000,1138.000,1158.000
1507.677,1084.000,1125.000,1125.000
1509.316,1091.000,1128.000,1142.000
1510.953,1101.000,1128.000,1118.000
1512.591,1104.000,1139.000,1117.000
1514.226,1091.000,1150.000,1152.000
1515.863,1116.000,1117.000,1126.000
1517.500,1096.000,1125.000,1139.000
1519.137,1101.000,1124.000,1126.000
1520.772,1094.000,1141.000,1105.000
1522.408,1090.000,1114.000,1130.000
1524.044,1106.000,1135.000,1104.000
1525.678,1112.000,1128.000,1110.000
1527.314,1104.000,1101.000,1130.000
1528.948,1096.000,1131.000,1131.000
1530.583,1100.000,1110.000,1150.000
1532.216,1114.000,1121.000,1146.000
1533.849,1101.000,1140.000,1115.000
1535.483,1095.000,1145.000,1146.000
1537.116,1127.000,1147.000,1153.000
1538.748,1105.000,1108.000,1154.000
1540.380,1113.000,1136.000,1140.000
1542.012,1123.000,1123.000,1145.000
1543.645,1122.000,1148.000,1130.000
1545.276,1117.000,1123.000,1147.000
1546.907,1120.000,1151.000,1146.000
1548.538,1123.000,1152.000,1135.000
1550.168,1130.000,1147.000,1133.000
1551.798,1115.000,1137.000,1126.000
1553.428,1155.000,1148.000,1157.000
1555.056,1103.000,1145.000,1146.000
1556.685,1149.000,1146.000,1150.000
1558.314,1122.000,1170.000,1170.000
1559.943,1133.000,1148.000,1138.000
1561.571,1137.000,1136.000,1167.000
1563.199,1145.000,1159.000,1158.000
1564.828,1146.000,1154.000,1197.000
1566.455,1175.000,1155.000,1176.000
1568.081,1139.000,1164.000,1190.000
1569.709,1157.000,1189.000,1166.000
1571.335,1151.000,1180.000,1196.000
1572.961,1189.000,1183.000,1191.000
1574.587,1203.000,1214.000,1185.000
1576.213,1161.000,1205.000,1176.000
1577.838,1180.000,1163.000,1166.000
1579.462,1167.000,1160.000,1166.000
1581.087,1160.000,1181.000,1178.000
1582.711,1160.000,1187.000,1160.000
1584.335,1164.000,1170.000,1189.000
1585.959,1149.000,1188.000,1179.000
1587.583,1125.000,1178.000,1176.000
1589.206,1153.000,1204.000,1173.000
1590.829,1154.000,1172.000,1182.000
1592.452,1167.000,1179.000,1201.000
1594.071,1169.000,1190.000,1172.000
1595.694,1150.000,1170.000,1197.000
1597.316,1150.000,1193.000,1197.000
1598.936,1138.000,1176.000,1179.000
1600.558,1149.000,1190.000,1180.000
1602.178,1159.000,1196.000,1191.000
1603.799,1157.000,1192.000,1193.000
1605.418,1170.000,1185.000,1201.000
1607.039,1171.000,1163.000,1183.000
1608.658,1171.000,1183.000,1191.000
1610.276,1181.000,1212.000,1179.000
1611.895,1174.000,1184.000,1192.000
1613.514,1185.000,1179.000,1227.000
1615.132,1171.000,1220.000,1197.000
1616.750,1180.000,1172.000,1191.000
1618.368,1158.000,1230.000,1194.000
1619.985,1175.000,1210.000,1187.000
1621.602,1170.000,1181.000,1186.000
1623.219,1171.000,1199.000,1210.000
1624.835,1169.000,1205.000,1197.000
1626.451,1207.000,1218.000,1217.000
1628.067,1191.000,1181.000,1183.000
1629.682,1173.000,1214.000,1177.000
1631.297,1171.000,1209.000,1204.000
1632.913,1173.000,1210.000,1224.000
1634.527,1163.000,1196.000,1209.000
1636.140,1167.000,1178.000,1204.000
1637.754,1155.000,1170.000,1206.000
1639.367,1164.000,1189.000,1213.000
1640.981,1158.000,1203.000,1156.000
1642.594,1165.000,1198.000,1171.000
1644.206,1163.000,1234.000,1181.000
1645.819,1151.000,1175.000,1167.000
1647.431,1183.000,1191.000,1171.000
1649.042,1163.000,1182.000,1176.000
1650.655,1176.000,1173.000,1200.000
1652.266,1153.000,1159.000,1185.000
1653.876,1181.000,1181.000,1175.000
1655.487,1164.000,1168.000,1188.000
1657.097,1137.000,1168.000,1177.000
1658.707,1165.000,1187.000,1182.000
1660.317,1134.000,1178.000,1167.000
1661.926,1140.000,1196.000,1162.000
1663.536,1172.000,1189.000,1211.000
1665.145,1133.000,1166.000,1187.000
1666.753,1136.000,1166.000,1158.000
1668.361,1142.000,1195.000,1170.000
1669.969,1151.000,1156.000,1151.000
1671.577,1152.000,1173.000,1171.000
1673.185,1169.000,1173.000,1168.000
1674.789,1159.000,1160.000,1186.000
1676.396,1155.000,1167.000,1164.000
1678.002,1133.000,1168.000,1179.000
1679.608,1148.000,1163.000,1151.000
1681.214,1133.000,1127.000,1185.000
1682.820,1137.000,1147.000,1183.000
1684.424,1156.000,1171.000,1152.000
1686.030,1131.000,1162.000,1164.000
1687.634,1136.000,1138.000,1151.000
1689.238,1146.000,1146.000,1150.000
1690.842,1134.000,1125.000,1154.000
1692.447,1145.000,1182.000,1156.000
1694.050,1144.000,1152.000,1179.000
1695.653,1132.000,1143.000,1166.000
1697.256,1120.000,1171.000,1181.000
1698.858,1115.000,1162.000,1160.000
1700.461,1112.000,1152.000,1149.000
1702.063,1150.000,1158.000,1150.000
1703.663,1132.000,1156.000,1173.000
1705.265,1113.000,1142.000,1138.000
1706.866,1099.000,1130.000,1157.000
1708.467,1148.000,1159.000,1138.000
1710.067,1119.000,1142.000,1146.000
1711.667,1127.000,1118.000,1119.000
1713.268,1123.000,1136.000,1150.000
1714.867,1123.000,1144.000,1159.000
1716.464,1108.000,1139.000,1150.000
1718.063,1125.000,1129.000,1159.000
1719.661,1135.000,1163.000,1138.000
1721.259,1128.000,1132.000,1169.000
1722.858,1097.000,1129.000,1151.000
1724.455,1107.000,1123.000,1113.000
1726.052,1105.000,1106.000,1175.000
1727.649,1105.000,1113.000,1129.000
1729.247,1114.000,1124.000,1147.000
1730.843,1119.000,1128.000,1139.000
1732.439,1096.000,1133.000,1129.000
1734.035,1110.000,1144.000,1112.000
1735.631,1095.000,1133.000,1120.000
1737.226,1085.000,1127.000,1123.000
1738.821,1129.000,1125.000,1151.000
1740.416,1117.000,1147.000,1129.000
1742.010,1128.000,1131.000,1139.000
1743.604,1141.000,1149.000,1092.000
1745.198,1100.000,1128.000,1152.000
1746.792,1112.000,1141.000,1120.000
1748.385,1100.000,1136.000,1149.000
1749.978,1101.000,1117.000,1137.000
1751.570,1102.000,1128.000,1138.000
1753.163,1109.000,1125.000,1123.000
1754.753,1104.000,1124.000,1119.000
1756.345,1113.000,1107.000,1121.000
1757.936,1110.000,1133.000,1123.000
1759.527,1106.000,1118.000,1123.000
1761.118,1110.000,1124.000,1146.000
1762.709,1139.000,1112.000,1146.000
1764.299,1092.000,1120.000,1125.000
1765.888,1113.000,1133.000,1112.000
1767.479,1096.000,1129.000,1137.000
1769.068,1103.000,1131.000,1167.000
1770.657,1109.000,1099.000,1112.000
1772.246,1111.000,1118.000,1150.000
1773.834,1070.000,1083.000,1145.000
1775.423,1108.000,1133.000,1128.000
1777.011,1095.000,1120.000,1123.000
1778.597,1102.000,1099.000,1127.000
1780.185,1106.000,1121.000,1138.000
1781.772,1089.000,1106.000,1101.000
1783.359,1101.000,1121.000,1152.000
1784.946,1101.000,1155.000,1127.000
1786.531,1114.000,1091.000,1126.000
1788.117,1102.000,1142.000,1141.000
1789.702,1107.000,1126.000,1121.000
1791.288,1100.000,1127.000,1119.000
1792.872,1103.000,1114.000,1106.000
1794.456,1095.000,1125.000,1112.000
1796.040,1091.000,1122.000,1128.000
1797.624,1066.000,1123.000,1107.000
1799.208,1109.000,1094.000,1124.000
1800.791,1084.000,1137.000,1113.000
1802.374,1110.000,1137.000,1124.000
1803.957,1099.000,1132.000,1114.000
1805.539,1106.000,1125.000,1154.000
1807.122,1086.000,1131.000,1111.000
1808.704,1078.000,1121.000,1124.000
1810.286,1120.000,1125.000,1140.000
1811.867,1101.000,1125.000,1119.000
1813.448,1094.000,1128.000,1092.000
1815.028,1083.000,1133.000,1101.000
1816.609,1116.000,1122.000,1124.000
1818.189,1119.000,1124.000,1139.000
1819.769,1113.000,1105.000,1132.000
1821.349,1088.000,1131.000,1116.000
1822.928,1116.000,1120.000,1143.000
1824.507,1109.000,1135.000,1108.000
1826.086,1107.000,1118.000,1123.000
1827.664,1084.000,1123.000,1103.000
1829.243,1098.000,1127.000,1094.000
1830.820,1114.000,1116.000,1127.000
1832.398,1091.000,1123.000,1154.000
1833.974,1111.000,1102.000,1134.000
1835.550,1135.000,1116.000,1140.000
1837.128,1099.000,1128.000,1123.000
1838.704,1126.000,1131.000,1146.000
1840.279,1104.000,1098.000,1118.000
1841.855,1106.000,1124.000,1123.000
1843.430,1102.000,1129.000,1114.000
1845.005,1126.000,1130.000,1132.000
1846.581,1112.000,1141.000,1127.000
1848.156,1103.000,1129.000,1124.000
1849.730,1096.000,1112.000,1121.000
1851.303,1110.000,1106.000,1153.000
1852.877,1105.000,1151.000,1133.000
1854.451,1113.000,1108.000,1120.000
1856.024,1094.000,1132.000,1109.000
1857.597,1110.000,1148.000,1117.000
1859.170,1086.000,1148.000,1120.000
1860.742,1108.000,1094.000,1116.000
1862.314,1070.000,1118.000,1114.000
1863.886,1118.000,1145.000,1146.000
1865.457,1098.000,1133.000,1133.000
1867.028,1102.000,1137.000,1115.000
1868.599,1106.000,1123.000,1143.000
1870.170,1107.000,1141.000,1116.000
1871.740,1120.000,1138.000,1114.000
1873.309,1105.000,1128.000,1133.000
1874.878,1097.000,1110.000,1131.000
1876.447,1105.000,1138.000,1109.000
1878.016,1130.000,1125.000,1148.000
1879.585,1122.000,1151.000,1137.000
1881.154,1109.000,1143.000,1136.000
1882.722,1113.000,1163.000,1136.000
1884.290,1119.000,1131.000,1120.000
1885.857,1108.000,1123.000,1144.000
1887.425,1098.000,1132.000,1130.000
1888.992,1109.000,1141.000,1161.000
1890.559,1112.000,1116.000,1128.000
1892.125,1096.000,1120.000,1130.000
1893.691,1106.000,1145.000,1138.000
1895.257,1099.000,1179.000,1149.000
1896.822,1095.000,1140.000,1138.000
1898.388,1129.000,1120.000,1119.000
1899.952,1091.000,1119.000,1143.000
1901.517,1093.000,1130.000,1117.000
1903.082,1118.000,1137.000,1142.000
1904.646,1136.000,1127.000,1122.000
1906.210,1097.000,1132.000,1147.000
1907.773,1138.000,1144.000,1144.000
1909.337,1116.000,1095.000,1136.000
1910.900,1101.000,1125.000,1162.000
1912.461,1119.000,1123.000,1158.000
1914.023,1122.000,1137.000,1135.000
1915.586,1123.000,1150.000,1172.000
1917.147,1123.000,1130.000,1159.000
1918.709,1127.000,1152.000,1154.000
1920.270,1144.000,1143.000,1148.000
1921.830,1133.000,1117.000,1112.000
1923.391,1103.000,1153.000,1131.000
1924.951,1132.000,1114.000,1146.000
1926.512,1109.000,1135.000,1125.000
1928.071,1123.000,1154.000,1147.000
1929.631,1127.000,1155.000,1122.000
1931.190,1122.000,1158.000,1134.000
1932.750,1130.000,1156.000,1137.000
1934.308,1117.000,1141.000,1111.000
1935.866,1123.000,1127.000,1123.000
1937.424,1135.000,1149.000,1149.000
1938.983,1142.000,1155.000,1153.000
1940.539,1105.000,1153.000,1139.000
1942.097,1130.000,1138.000,1130.000
1943.653,1144.000,1137.000,1139.000
1945.211,1099.000,1128.000,1140.000
1946.766,1130.000,1139.000,1152.000
1948.323,1121.000,1131.000,1145.000
1949.879,1122.000,1131.000,1140.000
1951.432,1097.000,1142.000,1169.000
1952.988,1102.000,1132.000,1136.000
1954.543,1130.000,1114.000,1139.000
1956.097,1122.000,1135.000,1118.000
1957.651,1132.000,1150.000,1143.000
1959.205,1114.000,1139.000,1115.000
1960.760,1107.000,1139.000,1136.000
1962.312,1131.000,1133.000,1151.000
1963.867,1109.000,1146.000,1156.000
1965.420,1124.000,1151.000,1122.000
1966.971,1124.000,1141.000,1162.000
1968.524,1142.000,1116.000,1144.000
1970.076,1112.000,1152.000,1175.000
1971.628,1102.000,1155.000,1163.000
1973.180,1139.000,1147.000,1162.000
1974.731,1109.000,1132.000,1147.000
1976.281,1134.000,1130.000,1151.000
1977.832,1115.000,1147.000,1147.000
1979.382,1123.000,1171.000,1154.000
1980.932,1150.000,1160.000,1149.000
1982.483,1130.000,1133.000,1143.000
1984.032,1137.000,1145.000,1144.000
1985.580,1138.000,1148.000,1144.000
1987.130,1128.000,1151.000,1152.000
1988.678,1119.000,1142.000,1154.000
1990.225,1119.000,1154.000,1164.000
1991.773,1145.000,1151.000,1154.000
1993.321,1125.000,1125.000,1166.000
1994.868,1126.000,1138.000,1151.000
1996.415,1134.000,1166.000,1116.000
1997.962,1154.000,1152.000,1144.000
1999.510,1125.000,1145.000,1132.000
2001.056,1124.000,1144.000,1128.000
2002.602,1119.000,1145.000,1173.000
2004.148,1131.000,1140.000,1159.000
2005.692,1152.000,1152.000,1144.000
2007.238,1126.000,1117.000,1147.000
2008.783,1122.000,1144.000,1156.000
2010.327,1111.000,1131.000,1153.000
2011.872,1112.000,1164.000,1162.000
2013.415,1151.000,1182.000,1147.000
2014.960,1146.000,1167.000,1144.000
2016.503,1121.000,1156.000,1134.000
2018.046,1115.000,1155.000,1163.000
2019.589,1118.000,1147.000,1172.000
2021.131,1139.000,1148.000,1155.000
2022.674,1145.000,1164.000,1145.000
2024.216,1088.000,1159.000,1143.000
2025.758,1151.000,1155.000,1148.000
2027.300,1132.000,1162.000,1154.000
2028.839,1143.000,1161.000,1152.000
2030.381,1150.000,1166.000,1141.000
2031.921,1133.000,1158.000,1164.000
2033.461,1144.000,1151.000,1147.000
2035.001,1138.000,1171.000,1153.000
2036.541,1126.000,1179.000,1131.000
2038.080,1134.000,1140.000,1129.000
2039.619,1139.000,1140.000,1151.000
2041.158,1144.000,1140.000,1148.000
2042.697,1135.000,1172.000,1158.000
2044.236,1159.000,1153.000,1158.000
2045.774,1147.000,1184.000,1144.000
2047.312,1132.000,1167.000,1148.000
2048.850,1123.000,1169.000,1173.000
2050.387,1132.000,1148.000,1196.000
2051.923,1129.000,1142.000,1182.000
2053.460,1144.000,1142.000,1154.000
2054.997,1135.000,1135.000,1185.000
2056.533,1124.000,1178.000,1152.000
2058.069,1149.000,1143.000,1163.000
2059.604,1131.000,1154.000,1177.000
2061.140,1125.000,1150.000,1149.000
2062.674,1146.000,1161.000,1149.000
2064.210,1141.000,1140.000,1188.000
2065.742,1156.000,1182.000,1152.000
2067.276,1152.000,1187.000,1168.000
2068.810,1134.000,1185.000,1166.000
2070.344,1136.000,1140.000,1132.000
2071.877,1150.000,1157.000,1144.000
2073.410,1130.000,1166.000,1159.000
2074.943,1134.000,1156.000,1181.000
2076.475,1126.000,1165.000,1172.000
2078.007,1128.000,1146.000,1154.000
2079.539,1155.000,1172.000,1144.000
2081.071,1147.000,1145.000,1166.000
2082.602,1147.000,1148.000,1184.000
2084.133,1148.000,1164.000,1163.000
2085.664,1148.000,1156.000,1159.000
2087.195,1144.000,1176.000,1214.000
2088.726,1125.000,1168.000,1173.000
2090.255,1151.000,1159.000,1184.000
2091.785,1119.000,1178.000,1166.000
2093.315,1133.000,1164.000,1187.000
2094.843,1128.000,1159.000,1168.000
2096.372,1146.000,1165.000,1143.000
2097.900,1147.000,1154.000,1145.000
2099.429,1154.000,1151.000,1187.000
2100.957,1155.000,1174.000,1140.000
2102.485,1125.000,1157.000,1164.000
2104.012,1172.000,1155.000,1157.000
2105.537,1145.000,1170.000,1147.000
2107.064,1151.000,1170.000,1177.000
2108.591,1123.000,1163.000,1169.000
2110.117,1138.000,1146.000,1190.000
2111.643,1149.000,1174.000,1150.000
2113.169,1133.000,1160.000,1142.000
2114.694,1128.000,1151.000,1145.000
2116.219,1136.000,1166.000,1184.000
2117.744,1131.000,1151.000,1177.000
2119.269,1157.000,1168.000,1160.000
2120.793,1134.000,1146.000,1147.000
2122.318,1130.000,1175.000,1156.000
2123.842,1150.000,1171.000,1171.000
2125.365,1158.000,1167.000,1168.000
2126.889,1129.000,1188.000,1179.000
2128.412,1131.000,1170.000,1186.000
2129.934,1141.000,1153.000,1146.000
2131.457,1155.000,1176.000,1172.000
2132.979,1176.000,1155.000,1169.000
2134.500,1123.000,1188.000,1165.000
2136.022,1124.000,1150.000,1139.000
2137.543,1172.000,1157.000,1170.000
2139.065,1153.000,1186.000,1171.000
2140.585,1165.000,1191.000,1157.000
2142.104,1172.000,1190.000,1157.000
2143.625,1147.000,1168.000,1166.000
2145.144,1143.000,1160.000,1173.000
2146.664,1139.000,1178.000,1164.000
2148.184,1162.000,1152.000,1162.000
2149.703,1144.000,1172.000,1159.000
2151.221,1148.000,1175.000,1159.000
2152.740,1162.000,1181.000,1163.000
2154.258,1141.000,1146.000,1155.000
2155.776,1141.000,1170.000,1157.000
2157.293,1131.000,1146.000,1185.000
2158.811,1154.000,1187.000,1163.000
2160.328,1159.000,1174.000,1138.000
2161.845,1151.000,1169.000,1147.000
2163.362,1118.000,1139.000,1169.000
2164.877,1166.000,1165.000,1145.000
2166.394,1148.000,1177.000,1170.000
2167.910,1147.000,1183.000,1127.000
2169.425,1144.000,1148.000,1155.000
2170.940,1128.000,1178.000,1157.000
2172.455,1155.000,1161.000,1163.000
2173.970,1140.000,1161.000,1204.000
2175.484,1142.000,1171.000,1173.000
2176.999,1143.000,1166.000,1178.000
2178.512,1128.000,1155.000,1153.000
2180.025,1153.000,1162.000,1188.000
2181.538,1146.000,1172.000,1145.000
2183.051,1165.000,1190.000,1143.000
2184.563,1122.000,1164.000,1175.000
2186.076,1127.000,1152.000,1183.000
2187.588,1180.000,1165.000,1151.000
2189.100,1152.000,1140.000,1178.000
2190.611,1165.000,1166.000,1175.000
2192.123,1156.000,1161.000,1149.000
2193.634,1144.000,1166.000,1155.000
2195.144,1160.000,1176.000,1165.000
2196.655,1168.000,1139.000,1149.000
2198.165,1138.000,1141.000,1161.000
2199.675,1113.000,1150.000,1181.000
2201.185,1174.000,1172.000,1179.000
2202.695,1155.000,1169.000,1167.000
2204.204,1139.000,1163.000,1186.000
2205.712,1163.000,1156.000,1161.000
2207.221,1149.000,1139.000,1181.000
2208.730,1159.000,1174.000,1180.000
2210.238,1133.000,1165.000,1150.000
2211.745,1148.000,1175.000,1190.000
2213.253,1144.000,1179.000,1181.000
2214.760,1148.000,1162.000,1174.000
2216.267,1146.000,1170.000,1176.000
2217.772,1169.000,1144.000,1156.000
2219.278,1148.000,1148.000,1159.000
2220.785,1143.000,1183.000,1168.000
2222.290,1134.000,1169.000,1183.000
2223.796,1144.000,1173.000,1180.000
2225.302,1149.000,1140.000,1182.000
2226.807,1139.000,1180.000,1171.000
2228.311,1142.000,1167.000,1169.000
2229.816,1123.000,1190.000,1170.000
2231.320,1153.000,1159.000,1175.000
2232.824,1131.000,1160.000,1163.000
2234.327,1156.000,1152.000,1190.000
2235.831,1148.000,1184.000,1165.000
2237.334,1128.000,1179.000,1193.000
2238.837,1140.000,1175.000,1175.000
2240.340,1139.000,1164.000,1139.000
2241.842,1141.000,1180.000,1177.000
2243.344,1145.000,1159.000,1161.000
2244.845,1151.000,1146.000,1183.000
2246.347,1131.000,1158.000,1142.000
2247.849,1144.000,1158.000,1166.000
2249.350,1143.000,1189.000,1174.000
2250.850,1149.000,1160.000,1143.000
2252.351,1166.000,1179.000,1160.000
2253.850,1164.000,1166.000,1172.000
2255.351,1159.000,1181.000,1174.000
2256.849,1152.000,1181.000,1167.000
2258.347,1150.000,1180.000,1158.000
2259.847,1156.000,1163.000,1174.000
2261.346,1155.000,1154.000,1174.000
2262.844,1140.000,1147.000,1171.000
2264.343,1167.000,1150.000,1204.000
2265.841,1146.000,1161.000,1182.000
2267.338,1148.000,1166.000,1180.000
2268.835,1151.000,1157.000,1192.000
2270.332,1164.000,1177.000,1175.000
2271.829,1137.000,1157.000,1173.000
2273.326,1151.000,1178.000,1173.000
2274.822,1143.000,1164.000,1150.000
2276.318,1149.000,1176.000,1188.000
2277.814,1152.000,1188.000,1175.000
2279.310,1165.000,1184.000,1179.000
2280.805,1164.000,1185.000,1180.000
2282.300,1171.000,1173.000,1156.000
2283.795,1155.000,1160.000,1165.000
2285.289,1154.000,1184.000,1187.000
2286.783,1146.000,1157.000,1187.000
2288.278,1157.000,1161.000,1193.000
2289.771,1184.000,1153.000,1184.000
2291.265,1173.000,1189.000,1179.000
2292.756,1151.000,1163.000,1163.000
2294.249,1151.000,1156.000,1174.000
2295.741,1147.000,1174.000,1183.000
2297.234,1171.000,1187.000,1183.000
2298.726,1151.000,1188.000,1175.000
2300.217,1143.000,1198.000,1148.000
2301.709,1169.000,1172.000,1157.000
2303.200,1148.000,1154.000,1183.000
2304.691,1177.000,1153.000,1175.000
2306.181,1155.000,1163.000,1208.000
2307.671,1171.000,1172.000,1191.000
2309.161,1164.000,1186.000,1187.000
2310.652,1181.000,1208.000,1205.000
2312.142,1136.000,1174.000,1192.000
2313.631,1169.000,1173.000,1189.000
2315.120,1179.000,1190.000,1178.000
2316.609,1167.000,1153.000,1178.000
2318.098,1166.000,1194.000,1193.000
2319.585,1158.000,1192.000,1177.000
2321.073,1169.000,1175.000,1202.000
2322.561,1129.000,1184.000,1185.000
2324.049,1146.000,1175.000,1170.000
2325.535,1174.000,1197.000,1185.000
2327.023,1138.000,1183.000,1198.000
2328.510,1174.000,1169.000,1187.000
2329.995,1157.000,1170.000,1185.000
2331.479,1190.000,1166.000,1178.000
2332.966,1141.000,1164.000,1180.000
2334.452,1157.000,1201.000,1188.000
2335.937,1180.000,1201.000,1219.000
2337.421,1211.000,1200.000,1211.000
2338.907,1233.000,1262.000,1297.000
2340.391,1285.000,1310.000,1323.000
2341.875,1239.000,1216.000,1228.000
2343.360,1181.000,1193.000,1201.000
2344.843,1161.000,1167.000,1164.000
2346.326,1162.000,1185.000,1188.000
2347.809,1152.000,1191.000,1194.000
2349.292,1177.000,1177.000,1179.000
2350.775,1142.000,1175.000,1195.000
2352.257,1146.000,1188.000,1163.000
2353.739,1171.000,1196.000,1196.000
2355.221,1174.000,1191.000,1217.000
2356.703,1182.000,1193.000,1188.000
2358.184,1145.000,1192.000,1195.000
2359.665,1167.000,1179.000,1160.000
2361.146,1145.000,1233.000,1195.000
2362.626,1153.000,1184.000,1172.000
2364.106,1154.000,1196.000,1162.000
2365.587,1165.000,1192.000,1194.000
2367.064,1157.000,1188.000,1189.000
2368.544,1168.000,1186.000,1184.000
2370.023,1178.000,1187.000,1213.000
2371.502,1145.000,1179.000,1184.000
2372.980,1179.000,1182.000,1191.000
2374.459,1167.000,1167.000,1195.000
2375.937,1181.000,1165.000,1196.000
2377.415,1171.000,1186.000,1191.000
2378.892,1167.000,1188.000,1210.000
2380.369,1184.000,1181.000,1164.000
2381.847,1162.000,1179.000,1192.000
2383.323,1173.000,1178.000,1220.000
2384.800,1144.000,1190.000,1181.000
2386.276,1175.000,1165.000,1177.000
2387.752,1171.000,1186.000,1191.000
2389.227,1173.000,1204.000,1208.000
2390.703,1147.000,1178.000,1190.000
2392.178,1162.000,1206.000,1196.000
2393.653,1130.000,1173.000,1191.000
2395.127,1185.000,1174.000,1188.000
2396.602,1187.000,1179.000,1184.000
2398.076,1166.000,1211.000,1168.000
2399.550,1179.000,1168.000,1191.000
2401.024,1176.000,1207.000,1206.000
2402.496,1168.000,1200.000,1184.000
2403.970,1165.000,1187.000,1214.000
2405.440,1164.000,1171.000,1182.000
2406.913,1128.000,1202.000,1207.000
2408.386,1165.000,1196.000,1201.000
2409.857,1159.000,1175.000,1189.000
2411.330,1168.000,1188.000,1211.000
2412.800,1159.000,1190.000,1237.000
2414.272,1183.000,1210.000,1192.000
2415.743,1173.000,1192.000,1198.000
2417.214,1162.000,1194.000,1187.000
2418.684,1176.000,1165.000,1167.000
2420.154,1168.000,1190.000,1187.000
2421.624,1167.000,1201.000,1171.000
2423.094,1156.000,1195.000,1187.000
2424.563,1199.000,1186.000,1187.000
2426.032,1157.000,1197.000,1182.000
2427.501,1156.000,1182.000,1201.000
2428.969,1165.000,1168.000,1210.000
2430.437,1152.000,1162.000,1211.000
2431.905,1166.000,1183.000,1166.000
2433.373,1153.000,1206.000,1184.000
2434.841,1175.000,1182.000,1194.000
2436.308,1177.000,1187.000,1190.000
2437.775,1161.000,1170.000,1198.000
2439.240,1166.000,1177.000,1201.000
2440.706,1141.000,1205.000,1196.000
2442.173,1139.000,1185.000,1173.000
2443.639,1171.000,1174.000,1210.000
2445.104,1190.000,1193.000,1177.000
2446.570,1173.000,1210.000,1194.000
2448.034,1157.000,1147.000,1198.000
2449.500,1193.000,1180.000,1207.000
2450.965,1137.000,1182.000,1197.000
2452.429,1152.000,1199.000,1206.000
2453.892,1155.000,1195.000,1191.000
2455.357,1182.000,1169.000,1216.000
2456.820,1182.000,1201.000,1182.000
2458.284,1186.000,1182.000,1184.000
2459.746,1171.000,1192.000,1188.000
2461.209,1171.000,1194.000,1201.000
2462.671,1181.000,1194.000,1185.000
2464.134,1189.000,1201.000,1188.000
2465.596,1151.000,1211.000,1203.000
2467.058,1151.000,1176.000,1182.000
2468.519,1175.000,1201.000,1236.000
2469.980,1181.000,1195.000,1187.000
2471.441,1144.000,1197.000,1186.000
2472.902,1192.000,1194.000,1200.000
2474.362,1150.000,1219.000,1212.000
2475.823,1185.000,1197.000,1180.000
2477.283,1165.000,1174.000,1198.000
2478.740,1160.000,1178.000,1187.000
2480.200,1184.000,1187.000,1197.000
2481.659,1146.000,1201.000,1167.000
2483.117,1169.000,1190.000,1186.000
2484.576,1149.000,1200.000,1199.000
2486.035,1193.000,1194.000,1183.000
2487.492,1148.000,1188.000,1202.000
2488.951,1170.000,1190.000,1155.000
2490.408,1160.000,1169.000,1178.000
2491.865,1184.000,1174.000,1181.000
2493.322,1154.000,1204.000,1184.000
2494.779,1155.000,1175.000,1230.000
2496.235,1189.000,1186.000,1189.000
2497.691,1166.000,1168.000,1202.000
2499.148,1161.000,1227.000,1197.000
2500.603,1146.000,1214.000,1169.000
2502.059,1169.000,1198.000,1192.000
2503.515,1159.000,1191.000,1197.000
2504.969,1167.000,1227.000,1199.000
2506.424,1163.000,1191.000,1206.000
2507.878,1167.000,1204.000,1197.000
2509.332,1190.000,1180.000,1208.000
2510.786,1155.000,1196.000,1184.000
2512.239,1142.000,1216.000,1183.000
2513.692,1166.000,1168.000,1186.000
2515.144,1154.000,1190.000,1195.000
2516.597,1168.000,1198.000,1187.000
2518.050,1175.000,1173.000,1203.000
2519.503,1167.000,1177.000,1208.000
2520.955,1164.000,1160.000,1167.000
2522.406,1166.000,1182.000,1201.000
2523.858,1163.000,1200.000,1181.000
2525.310,1174.000,1193.000,1177.000
2526.760,1174.000,1177.000,1182.000
2528.211,1176.000,1170.000,1165.000
2529.661,1163.000,1204.000,1193.000
2531.112,1151.000,1186.000,1196.000
2532.562,1167.000,1196.000,1193.000
2534.012,1167.000,1177.000,1194.000
2535.461,1181.000,1148.000,1195.000
2536.911,1170.000,1193.000,1203.000
2538.360,1169.000,1184.000,1178.000
2539.808,1170.000,1183.000,1158.000
2541.256,1159.000,1204.000,1174.000
2542.705,1192.000,1199.000,1187.000
2544.153,1153.000,1199.000,1175.000
2545.601,1172.000,1205.000,1183.000
2547.048,1189.000,1169.000,1184.000
2548.495,1157.000,1168.000,1206.000
2549.942,1181.000,1188.000,1217.000
2551.387,1177.000,1188.000,1187.000
2552.834,1181.000,1188.000,1195.000
2554.280,1186.000,1191.000,1175.000
2555.726,1161.000,1194.000,1209.000
2557.172,1176.000,1170.000,1205.000
2558.616,1166.000,1181.000,1192.000
2560.062,1182.000,1215.000,1208.000
2561.507,1171.000,1206.000,1213.000
2562.952,1140.000,1202.000,1186.000
2564.395,1178.000,1181.000,1193.000
2565.840,1184.000,1189.000,1208.000
2567.283,1180.000,1206.000,1188.000
2568.727,1161.000,1197.000,1200.000
2570.170,1193.000,1193.000,1203.000
2571.614,1172.000,1198.000,1187.000
2573.056,1171.000,1211.000,1192.000
2574.499,1151.000,1188.000,1183.000
2575.941,1167.000,1196.000,1189.000
2577.384,1178.000,1197.000,1188.000
2578.825,1180.000,1191.000,1188.000
2580.266,1195.000,1178.000,1196.000
2581.707,1168.000,1181.000,1186.000
2583.148,1194.000,1183.000,1198.000
2584.587,1188.000,1196.000,1198.000
2586.029,1170.000,1208.000,1180.000
2587.469,1161.000,1218.000,1209.000
2588.909,1180.000,1178.000,1177.000
2590.349,1207.000,1182.000,1157.000
2591.788,1176.000,1191.000,1236.000
2593.226,1178.000,1220.000,1171.000
2594.665,1165.000,1207.000,1173.000
2596.104,1178.000,1210.000,1212.000
2597.543,1160.000,1205.000,1205.000
2598.981,1175.000,1178.000,1190.000
2600.420,1177.000,1179.000,1209.000
2601.856,1188.000,1216.000,1220.000
2603.294,1169.000,1173.000,1205.000
2604.732,1192.000,1187.000,1178.000
2606.168,1186.000,1195.000,1231.000
2607.605,1169.000,1215.000,1206.000
2609.042,1180.000,1213.000,1195.000
2610.478,1172.000,1173.000,1214.000
2611.913,1192.000,1171.000,1223.000
2613.349,1173.000,1202.000,1199.000
2614.784,1193.000,1179.000,1224.000
2616.220,1173.000,1208.000,1214.000
2617.655,1188.000,1225.000,1233.000
2619.089,1205.000,1202.000,1207.000
2620.524,1164.000,1173.000,1192.000
2621.958,1157.000,1203.000,1211.000
2623.390,1179.000,1229.000,1214.000
2624.824,1186.000,1210.000,1220.000
2626.257,1181.000,1232.000,1213.000
2627.690,1189.000,1180.000,1213.000
2629.123,1189.000,1209.000,1211.000
2630.555,1191.000,1190.000,1203.000
2631.988,1186.000,1199.000,1189.000
2633.420,1192.000,1191.000,1200.000
2634.852,1180.000,1219.000,1204.000
2636.284,1200.000,1227.000,1230.000
2637.715,1166.000,1204.000,1207.000
2639.145,1169.000,1223.000,1213.000
2640.576,1213.000,1187.000,1219.000
2642.007,1199.000,1219.000,1182.000
2643.438,1163.000,1213.000,1187.000
2644.867,1190.000,1246.000,1184.000
2646.298,1190.000,1198.000,1226.000
2647.726,1204.000,1231.000,1234.000
2649.156,1167.000,1206.000,1215.000
2650.585,1168.000,1205.000,1200.000
2652.014,1179.000,1202.000,1211.000
2653.442,1161.000,1202.000,1213.000
2654.871,1178.000,1218.000,1213.000
2656.297,1190.000,1246.000,1228.000
2657.725,1240.000,1224.000,1206.000
2659.152,1195.000,1229.000,1204.000
2660.580,1182.000,1223.000,1213.000
2662.007,1185.000,1210.000,1207.000
2663.434,1180.000,1205.000,1211.000
2664.860,1191.000,1228.000,1210.000
2666.286,1186.000,1225.000,1223.000
2667.713,1218.000,1196.000,1229.000
2669.139,1209.000,1197.000,1212.000
2670.564,1224.000,1232.000,1193.000
2671.990,1202.000,1214.000,1204.000
2673.415,1169.000,1251.000,1213.000
2674.838,1203.000,1227.000,1209.000
2676.263,1172.000,1214.000,1198.000
2677.688,1193.000,1212.000,1218.000
2679.112,1217.000,1201.000,1203.000
2680.536,1197.000,1247.000,1214.000
2681.959,1189.000,1217.000,1216.000
2683.382,1212.000,1198.000,1180.000
2684.805,1187.000,1222.000,1200.000
2686.228,1194.000,1206.000,1220.000
2687.650,1178.000,1225.000,1201.000
2689.072,1189.000,1209.000,1230.000
2690.495,1211.000,1235.000,1212.000
2691.916,1182.000,1209.000,1230.000
2693.338,1193.000,1250.000,1211.000
2694.757,1166.000,1228.000,1227.000
2696.178,1202.000,1211.000,1206.000
2697.599,1193.000,1210.000,1214.000
2699.020,1200.000,1208.000,1235.000
2700.440,1196.000,1209.000,1237.000
2701.859,1242.000,1224.000,1247.000
2703.280,1212.000,1222.000,1205.000
2704.699,1200.000,1194.000,1241.000
2706.118,1190.000,1232.000,1218.000
2707.537,1208.000,1216.000,1210.000
2708.956,1220.000,1214.000,1214.000
2710.374,1194.000,1206.000,1183.000
2711.793,1173.000,1216.000,1207.000
2713.211,1161.000,1240.000,1221.000
2714.629,1193.000,1216.000,1234.000
2716.046,1207.000,1217.000,1209.000
2717.464,1190.000,1233.000,1202.000
2718.881,1169.000,1239.000,1172.000
2720.297,1194.000,1239.000,1195.000
2721.713,1216.000,1223.000,1209.000
2723.130,1213.000,1215.000,1204.000
2724.545,1208.000,1223.000,1221.000
2725.961,1215.000,1194.000,1228.000
2727.375,1162.000,1189.000,1213.000
2728.791,1199.000,1208.000,1198.000
2730.205,1198.000,1201.000,1219.000
2731.620,1208.000,1213.000,1214.000
2733.034,1189.000,1224.000,1220.000
2734.449,1217.000,1218.000,1200.000
2735.863,1157.000,1219.000,1192.000
2737.276,1200.000,1215.000,1231.000
2738.690,1178.000,1213.000,1225.000
2740.103,1189.000,1241.000,1224.000
2741.516,1201.000,1239.000,1229.000
2742.930,1230.000,1248.000,1221.000
2744.342,1204.000,1196.000,1219.000
2745.754,1186.000,1229.000,1209.000
2747.166,1208.000,1223.000,1182.000
2748.578,1193.000,1229.000,1221.000
2749.989,1195.000,1218.000,1235.000
2751.400,1168.000,1239.000,1224.000
2752.811,1219.000,1231.000,1226.000
2754.222,1182.000,1209.000,1215.000
2755.633,1188.000,1222.000,1197.000
2757.043,1196.000,1219.000,1235.000
2758.452,1188.000,1215.000,1224.000
2759.862,1188.000,1200.000,1232.000
2761.272,1197.000,1201.000,1247.000
2762.682,1223.000,1248.000,1229.000
2764.089,1229.000,1203.000,1215.000
2765.498,1211.000,1234.000,1210.000
2766.907,1174.000,1237.000,1198.000
2768.315,1201.000,1216.000,1220.000
2769.723,1186.000,1212.000,1191.000
2771.130,1177.000,1216.000,1231.000
2772.538,1205.000,1221.000,1202.000
2773.945,1202.000,1194.000,1237.000
2775.352,1175.000,1234.000,1208.000
2776.759,1193.000,1221.000,1228.000
2778.166,1189.000,1225.000,1233.000
2779.572,1205.000,1224.000,1225.000
2780.978,1200.000,1241.000,1210.000
2782.384,1203.000,1202.000,1212.000
2783.789,1204.000,1213.000,1190.000
2785.194,1216.000,1213.000,1221.000
2786.599,1197.000,1237.000,1199.000
2788.004,1185.000,1215.000,1230.000
2789.410,1186.000,1205.000,1237.000
2790.814,1200.000,1206.000,1210.000
2792.218,1218.000,1201.000,1213.000
2793.621,1211.000,1206.000,1224.000
2795.025,1202.000,1234.000,1209.000
2796.428,1188.000,1223.000,1229.000
2797.830,1202.000,1233.000,1187.000
2799.233,1201.000,1195.000,1221.000
2800.636,1202.000,1200.000,1227.000
2802.038,1178.000,1214.000,1231.000
2803.440,1171.000,1206.000,1216.000
2804.842,1214.000,1231.000,1233.000
2806.243,1167.000,1202.000,1207.000
2807.645,1214.000,1212.000,1220.000
2809.045,1221.000,1235.000,1216.000
2810.447,1169.000,1225.000,1242.000
2811.847,1191.000,1230.000,1195.000
2813.248,1222.000,1237.000,1239.000
2814.648,1235.000,1247.000,1237.000
2816.048,1191.000,1217.000,1203.000
2817.447,1215.000,1212.000,1208.000
2818.848,1188.000,1212.000,1217.000
2820.246,1194.000,1225.000,1223.000
2821.645,1205.000,1213.000,1255.000
2823.044,1201.000,1224.000,1197.000
2824.442,1227.000,1187.000,1211.000
2825.841,1190.000,1222.000,1197.000
2827.239,1221.000,1238.000,1224.000
2828.636,1187.000,1211.000,1219.000
2830.034,1221.000,1251.000,1217.000
2831.431,1215.000,1215.000,1211.000
2832.828,1210.000,1256.000,1184.000
2834.223,1229.000,1226.000,1227.000
2835.619,1202.000,1240.000,1234.000
2837.015,1213.000,1221.000,1271.000
2838.411,1204.000,1217.000,1215.000
2839.807,1200.000,1252.000,1223.000
2841.203,1224.000,1247.000,1202.000
2842.599,1222.000,1251.000,1224.000
2843.993,1188.000,1265.000,1229.000
2845.388,1203.000,1261.000,1237.000
2846.783,1188.000,1247.000,1234.000
2848.177,1204.000,1264.000,1232.000
2849.571,1215.000,1251.000,1247.000
2850.964,1206.000,1225.000,1230.000
2852.358,1203.000,1242.000,1227.000
2853.751,1231.000,1243.000,1270.000
2855.145,1233.000,1223.000,1215.000
2856.537,1224.000,1243.000,1261.000
2857.929,1204.000,1241.000,1255.000
2859.322,1233.000,1244.000,1258.000
2860.714,1234.000,1251.000,1249.000
2862.106,1237.000,1251.000,1250.000
2863.497,1242.000,1241.000,1266.000
2864.889,1238.000,1243.000,1234.000
2866.280,1230.000,1254.000,1268.000
2867.670,1225.000,1247.000,1253.000
2869.060,1216.000,1253.000,1259.000
2870.451,1220.000,1227.000,1238.000
2871.841,1233.000,1228.000,1256.000
2873.231,1229.000,1249.000,1249.000
2874.620,1219.000,1234.000,1258.000
2876.010,1238.000,1283.000,1256.000
2877.399,1238.000,1251.000,1228.000
2878.787,1237.000,1260.000,1240.000
2880.176,1241.000,1247.000,1263.000
2881.565,1229.000,1265.000,1247.000
2882.953,1207.000,1245.000,1260.000
2884.342,1220.000,1270.000,1236.000
2885.729,1254.000,1247.000,1280.000