File: Raman/Silica/2025_08_22_Nat_SiO2_Glass_XRD_50X_532nm_6mW_Andor750_600gv_400wn_3accum_30s_UnPol.csv
-683.222,651.000,657.000,650.000
-681.133,649.000,652.000,646.000
-679.044,645.000,647.000,655.000
-676.957,657.000,648.000,650.000
-674.869,647.000,644.000,650.000
-672.782,653.000,650.000,654.000
-670.692,648.000,657.000,645.000
-668.606,658.000,651.000,646.000
-666.520,650.000,649.000,656.000
-664.435,657.000,651.000,657.000
-662.350,645.000,655.000,655.000
-660.266,651.000,646.000,656.000
-658.182,644.000,643.000,648.000
-656.099,651.000,647.000,654.000
-654.015,642.000,655.000,652.000
-651.932,654.000,655.000,641.000
-649.848,650.000,651.000,652.000
-647.766,651.000,652.000,651.000
-645.685,656.000,658.000,645.000
-643.604,656.000,654.000,653.000
-641.523,654.000,650.000,649.000
-639.443,649.000,650.000,649.000
-637.364,657.000,654.000,651.000
-635.285,651.000,657.000,656.000
-633.206,649.000,653.000,659.000
-631.128,653.000,647.000,658.000
-629.047,658.000,657.000,658.000
-626.970,664.000,651.000,661.000
-624.893,655.000,655.000,654.000
-622.817,655.000,649.000,652.000
-620.741,646.000,655.000,655.000
-618.665,662.000,660.000,650.000
-616.591,656.000,651.000,655.000
-614.515,655.000,654.000,652.000
-612.442,664.000,654.000,656.000
-610.367,655.000,660.000,654.000
-608.291,656.000,659.000,653.000
-606.219,660.000,656.000,660.000
-604.147,661.000,649.000,652.000
-602.075,654.000,664.000,664.000
-600.003,663.000,656.000,656.000
-597.932,662.000,660.000,660.000
-595.861,659.000,661.000,662.000
-593.791,650.000,657.000,664.000
-591.721,660.000,652.000,657.000
-589.652,650.000,656.000,657.000
-587.580,647.000,655.000,660.000
-585.512,653.000,660.000,665.000
-583.444,656.000,659.000,662.000
-581.376,659.000,655.000,663.000
-579.309,664.000,661.000,659.000
-577.242,660.000,658.000,654.000
-575.176,664.000,659.000,656.000
-573.111,663.000,659.000,658.000
-571.044,660.000,651.000,657.000
-568.980,656.000,661.000,660.000
-566.913,665.000,656.000,659.000
-564.849,656.000,664.000,667.000
-562.786,664.000,659.000,664.000
-560.722,653.000,661.000,660.000
-558.659,656.000,670.000,667.000
-556.597,659.000,663.000,658.000
-554.536,659.000,663.000,660.000
-552.474,657.000,653.000,664.000
-550.413,660.000,662.000,660.000
-548.353,662.000,659.000,662.000
-546.290,662.000,662.000,656.000
-544.230,651.000,665.000,665.000
-542.171,665.000,664.000,657.000
-540.112,663.000,664.000,664.000
-538.053,671.000,660.000,664.000
-535.995,659.000,663.000,673.000
-533.938,667.000,662.000,671.000
-531.881,669.000,662.000,667.000
-529.825,676.000,660.000,668.000
-527.768,668.000,668.000,664.000
-525.710,673.000,663.000,666.000
-523.655,662.000,664.000,659.000
-521.600,668.000,673.000,666.000
-519.546,666.000,670.000,663.000
-517.492,665.000,664.000,677.000
-515.439,674.000,668.000,667.000
-513.385,673.000,670.000,673.000
-511.333,676.000,667.000,676.000
-509.280,672.000,673.000,662.000
-507.229,677.000,674.000,671.000
-505.177,680.000,676.000,668.000
-503.124,675.000,680.000,672.000
-501.073,681.000,672.000,680.000
-499.023,690.000,685.000,686.000
-496.974,688.000,682.000,692.000
-494.924,689.000,693.000,686.000
-492.876,695.000,691.000,691.000
-490.827,697.000,702.000,696.000
-488.780,707.000,707.000,695.000
-486.732,710.000,699.000,700.000
-484.685,702.000,698.000,709.000
-482.636,703.000,715.000,711.000
-480.590,715.000,727.000,712.000
-478.544,718.000,705.000,710.000
-476.499,707.000,720.000,711.000
-474.455,726.000,722.000,730.000
-472.409,712.000,723.000,720.000
-470.366,726.000,726.000,715.000
-468.322,733.000,726.000,723.000
-466.279,734.000,728.000,732.000
-464.237,727.000,723.000,736.000
-462.191,722.000,730.000,712.000
-460.151,724.000,718.000,730.000
-458.109,717.000,738.000,714.000
-456.068,733.000,728.000,715.000
-454.027,726.000,741.000,734.000
-451.988,738.000,730.000,728.000
-449.948,730.000,723.000,719.000
-447.908,730.000,737.000,726.000
-445.870,725.000,729.000,730.000
-443.832,745.000,728.000,739.000
-441.791,732.000,747.000,735.000
-439.754,739.000,741.000,737.000
-437.716,739.000,739.000,742.000
-435.680,740.000,739.000,739.000
-433.644,730.000,747.000,750.000
-431.608,743.000,745.000,754.000
-429.573,756.000,757.000,732.000
-427.538,734.000,754.000,765.000
-425.503,736.000,757.000,755.000
-423.469,749.000,754.000,753.000
-421.433,744.000,745.000,751.000
-419.399,757.000,753.000,755.000
-417.367,751.000,754.000,759.000
-415.335,741.000,754.000,742.000
-413.303,753.000,755.000,746.000
-411.271,749.000,762.000,766.000
-409.241,757.000,769.000,755.000
-407.210,763.000,757.000,751.000
-405.179,762.000,744.000,761.000
-403.150,752.000,757.000,759.000
-401.119,766.000,760.000,753.000
-399.090,756.000,762.000,760.000
-397.061,767.000,775.000,776.000
-395.033,760.000,771.000,748.000
-393.006,758.000,751.000,762.000
-390.978,760.000,755.000,747.000
-388.951,782.000,752.000,752.000
-386.925,779.000,756.000,762.000
-384.900,786.000,771.000,767.000
-382.874,758.000,759.000,763.000
-380.846,769.000,770.000,766.000
-378.822,770.000,762.000,767.000
-376.797,774.000,769.000,760.000
-374.774,770.000,771.000,778.000
-372.751,775.000,759.000,770.000
-370.727,771.000,761.000,771.000
-368.705,770.000,762.000,768.000
-366.683,774.000,773.000,771.000
-364.662,769.000,770.000,761.000
-362.640,783.000,767.000,776.000
-360.620,773.000,772.000,777.000
-358.597,763.000,776.000,767.000
-356.577,769.000,761.000,781.000
-354.557,778.000,769.000,763.000
-352.539,775.000,767.000,766.000
-350.520,776.000,769.000,773.000
-348.501,779.000,758.000,776.000
-346.484,760.000,775.000,779.000
-344.466,770.000,761.000,771.000
-342.450,761.000,772.000,770.000
-340.434,785.000,766.000,778.000
-338.415,765.000,764.000,782.000
-336.399,789.000,778.000,750.000
-334.384,771.000,767.000,767.000
-332.370,763.000,785.000,777.000
-330.355,780.000,773.000,787.000
-328.341,779.000,767.000,783.000
-326.328,783.000,765.000,765.000
-324.315,769.000,777.000,771.000
-322.302,768.000,771.000,771.000
-320.289,780.000,773.000,788.000
-318.275,795.000,787.000,784.000
-316.264,774.000,778.000,767.000
-314.253,782.000,777.000,780.000
-312.243,777.000,778.000,778.000
-310.232,769.000,779.000,783.000
-308.223,770.000,782.000,795.000
-306.214,784.000,775.000,773.000
-304.204,790.000,786.000,779.000
-302.196,784.000,782.000,782.000
-300.188,773.000,775.000,778.000
-298.179,784.000,779.000,769.000
-296.170,789.000,780.000,772.000
-294.165,790.000,768.000,775.000
-292.158,766.000,803.000,780.000
-290.152,782.000,781.000,779.000
-288.146,778.000,781.000,779.000
-286.141,792.000,782.000,794.000
-284.137,785.000,797.000,783.000
-282.132,779.000,792.000,778.000
-280.128,787.000,785.000,777.000
-278.122,803.000,773.000,781.000
-276.120,784.000,788.000,784.000
-274.118,784.000,773.000,769.000
-272.115,774.000,778.000,784.000
-270.113,777.000,788.000,785.000
-268.112,772.000,781.000,782.000
-266.112,788.000,782.000,791.000
-264.111,788.000,790.000,773.000
-262.111,803.000,774.000,790.000
-260.111,790.000,788.000,794.000
-258.110,794.000,781.000,775.000
-256.111,783.000,785.000,779.000
-254.113,790.000,781.000,794.000
-252.115,790.000,801.000,792.000
-250.118,780.000,787.000,786.000
-248.120,781.000,791.000,779.000
-246.123,796.000,779.000,779.000
-244.127,800.000,785.000,778.000
-242.132,787.000,784.000,795.000
-240.136,784.000,791.000,798.000
-238.138,783.000,795.000,780.000
-236.144,782.000,786.000,782.000
-234.150,779.000,781.000,796.000
-232.156,795.000,767.000,780.000
-230.163,783.000,786.000,795.000
-228.170,801.000,793.000,801.000
-226.178,791.000,781.000,777.000
-224.185,786.000,789.000,787.000
-222.194,773.000,789.000,792.000
-220.202,778.000,786.000,790.000
-218.209,808.000,796.000,795.000
-216.219,780.000,792.000,781.000
-214.229,796.000,780.000,804.000
-212.240,782.000,789.000,794.000
-210.250,792.000,789.000,786.000
-208.262,791.000,801.000,790.000
-206.273,787.000,804.000,797.000
-204.285,801.000,798.000,805.000
-202.298,799.000,810.000,799.000
-200.310,800.000,792.000,784.000
-198.324,803.000,813.000,805.000
-196.336,788.000,795.000,809.000
-194.350,801.000,791.000,801.000
-192.364,799.000,801.000,804.000
-190.379,800.000,811.000,797.000
-188.394,802.000,803.000,789.000
-186.411,791.000,809.000,785.000
-184.427,804.000,805.000,795.000
-182.443,799.000,804.000,803.000
-180.461,809.000,811.000,791.000
-178.478,804.000,809.000,803.000
-176.494,803.000,804.000,806.000
-174.512,795.000,803.000,808.000
-172.530,831.000,827.000,826.000
-170.550,816.000,815.000,816.000
-168.570,808.000,822.000,800.000
-166.590,811.000,816.000,802.000
-164.609,804.000,818.000,808.000
-162.630,827.000,834.000,817.000
-160.651,827.000,830.000,844.000
-158.673,822.000,828.000,830.000
-156.693,834.000,831.000,815.000
-154.715,839.000,823.000,829.000
-152.739,827.000,851.000,826.000
-150.762,841.000,840.000,842.000
-148.785,830.000,833.000,838.000
-146.810,843.000,838.000,838.000
-144.834,848.000,827.000,831.000
-142.860,852.000,850.000,827.000
-140.884,828.000,839.000,838.000
-138.910,843.000,851.000,839.000
-136.934,858.000,846.000,856.000
-134.961,858.000,854.000,846.000
-132.988,832.000,834.000,855.000
-131.015,846.000,843.000,854.000
-129.043,860.000,874.000,859.000
-127.071,867.000,887.000,869.000
-125.099,886.000,892.000,873.000
-123.128,872.000,864.000,872.000
-121.159,865.000,854.000,873.000
-119.188,887.000,881.000,872.000
-117.216,894.000,887.000,899.000
-115.247,888.000,896.000,893.000
-113.277,912.000,902.000,900.000
-111.310,908.000,892.000,899.000
-109.341,895.000,879.000,893.000
-107.374,893.000,919.000,896.000
-105.406,902.000,909.000,914.000
-103.439,903.000,925.000,940.000
-101.473,916.000,925.000,921.000
-99.506,912.000,914.000,909.000
-97.539,915.000,945.000,932.000
-95.574,941.000,953.000,943.000
-93.609,933.000,943.000,938.000
-91.645,936.000,959.000,938.000
-89.681,962.000,967.000,941.000
-87.717,944.000,949.000,949.000
-85.754,948.000,960.000,948.000
-83.792,958.000,980.000,974.000
-81.829,976.000,975.000,987.000
-79.867,984.000,984.000,971.000
-77.903,971.000,985.000,956.000
-75.942,972.000,1000.000,967.000
-73.981,962.000,972.000,991.000
-72.021,994.000,1004.000,999.000
-70.060,992.000,995.000,1006.000
-68.101,1003.000,991.000,998.000
-66.142,1006.000,1013.000,1005.000
-64.184,1015.000,998.000,991.000
-62.226,1030.000,1005.000,1032.000
-60.268,1011.000,1023.000,1031.000
-58.307,1032.000,1033.000,1024.000
-56.350,1024.000,1021.000,1032.000
-54.394,1037.000,1018.000,1011.000
-52.437,1006.000,1009.000,1008.000
-50.482,1086.000,1075.000,1030.000
-48.526,1055.000,1082.000,1082.000
-46.571,1080.000,1046.000,1039.000
-44.617,1052.000,1069.000,1043.000
-42.662,1044.000,1034.000,1018.000
-40.709,1042.000,1062.000,1050.000
-38.755,1065.000,1073.000,1078.000
-36.799,1056.000,1074.000,1049.000
-34.847,1068.000,1071.000,1057.000
-32.895,1064.000,1060.000,1064.000
-30.944,1038.000,1022.000,1061.000
-28.991,1025.000,1047.000,1033.000
-27.040,1052.000,1052.000,1034.000
-25.090,1055.000,1047.000,1041.000
-23.140,1007.000,1018.000,1007.000
-21.190,979.000,981.000,960.000
-19.239,970.000,960.000,964.000
-17.289,962.000,973.000,955.000
-15.342,939.000,935.000,944.000
-13.393,897.000,907.000,930.000
-11.445,920.000,916.000,906.000
-9.498,949.000,946.000,943.000
-7.551,1021.000,1001.000,1022.000
-5.605,1124.000,1156.000,1125.000
-3.658,1259.000,1251.000,1273.000
-1.713,1430.000,1408.000,1407.000
0.232,1679.000,1669.000,1639.000
2.180,3272.000,3150.000,3158.000
4.124,3963.000,3914.000,3900.000
6.068,2353.000,2358.000,2395.000
8.012,1810.000,1850.000,1866.000
9.955,1654.000,1623.000,1630.000
11.898,1545.000,1518.000,1523.000
13.841,1585.000,1596.000,1593.000
15.783,2513.000,2546.000,2564.000
17.725,3403.000,3315.000,3386.000
19.667,1590.000,1568.000,1585.000
21.610,1119.000,1141.000,1121.000
23.550,996.000,1003.000,992.000
25.490,911.000,913.000,910.000
27.429,897.000,907.000,885.000
29.369,917.000,889.000,899.000
31.308,919.000,934.000,955.000
33.247,953.000,936.000,934.000
35.185,985.000,1007.000,963.000
37.122,1009.000,1022.000,1025.000
39.060,1023.000,1011.000,1031.000
40.999,1063.000,1024.000,1041.000
42.936,1094.000,1104.000,1108.000
44.872,1135.000,1124.000,1136.000
46.808,1108.000,1114.000,1121.000
48.743,1100.000,1096.000,1090.000
50.677,1111.000,1151.000,1111.000
52.612,1126.000,1142.000,1168.000
54.546,1151.000,1129.000,1155.000
56.480,1141.000,1159.000,1179.000
58.413,1175.000,1165.000,1150.000
60.348,1152.000,1157.000,1127.000
62.281,1180.000,1155.000,1178.000
64.213,1169.000,1157.000,1152.000
66.144,1170.000,1144.000,1156.000
68.076,1229.000,1195.000,1201.000
70.007,1170.000,1153.000,1176.000
71.937,1135.000,1149.000,1135.000
73.867,1157.000,1140.000,1150.000
75.798,1162.000,1183.000,1167.000
77.727,1159.000,1167.000,1157.000
79.658,1163.000,1163.000,1171.000
81.586,1147.000,1146.000,1139.000
83.515,1157.000,1155.000,1149.000
85.443,1133.000,1132.000,1166.000
87.369,1144.000,1145.000,1150.000
89.296,1140.000,1126.000,1133.000
91.223,1145.000,1143.000,1139.000
93.149,1146.000,1141.000,1146.000
95.075,1151.000,1102.000,1117.000
97.000,1127.000,1117.000,1121.000
98.927,1136.000,1146.000,1142.000
100.852,1141.000,1181.000,1156.000
102.776,1111.000,1158.000,1127.000
104.700,1143.000,1108.000,1125.000
106.623,1095.000,1111.000,1123.000
108.546,1129.000,1116.000,1134.000
110.470,1130.000,1090.000,1097.000
112.392,1139.000,1124.000,1102.000
114.312,1144.000,1099.000,1127.000
116.234,1135.000,1112.000,1116.000
118.155,1095.000,1101.000,1101.000
120.078,1114.000,1090.000,1088.000
121.998,1086.000,1133.000,1072.000
123.918,1106.000,1093.000,1105.000
125.838,1091.000,1077.000,1075.000
127.757,1077.000,1071.000,1073.000
129.676,1059.000,1081.000,1067.000
131.593,1073.000,1087.000,1091.000
133.512,1068.000,1091.000,1075.000
135.429,1075.000,1076.000,1080.000
137.349,1047.000,1081.000,1068.000
139.265,1074.000,1070.000,1082.000
141.181,1045.000,1051.000,1059.000
143.097,1032.000,1066.000,1058.000
145.012,1062.000,1088.000,1065.000
146.927,1065.000,1066.000,1063.000
148.842,1046.000,1069.000,1062.000
150.756,1038.000,1051.000,1048.000
152.670,1057.000,1070.000,1040.000
154.584,1051.000,1067.000,1060.000
156.497,1059.000,1032.000,1055.000
158.412,1036.000,1055.000,1054.000
160.324,1032.000,1044.000,1051.000
162.236,1041.000,1031.000,1064.000
164.147,1045.000,1037.000,1052.000
166.059,1056.000,1039.000,1043.000
167.969,1051.000,1034.000,1046.000
169.880,1047.000,1041.000,1056.000
171.790,1018.000,1022.000,1021.000
173.699,1049.000,1016.000,1046.000
175.609,1004.000,1023.000,1026.000
177.520,1047.000,1026.000,1058.000
179.428,1026.000,1042.000,1047.000
181.336,1017.000,1050.000,1052.000
183.244,1030.000,1018.000,1054.000
185.151,1026.000,1028.000,1026.000
187.058,1031.000,1041.000,1038.000
188.965,1034.000,1052.000,1045.000
190.871,1055.000,1031.000,1031.000
192.776,1030.000,1035.000,1035.000
194.682,1028.000,1030.000,1020.000
196.589,1029.000,1012.000,1037.000
198.493,1034.000,1026.000,1026.000
200.398,1050.000,1034.000,1027.000
202.301,1043.000,1051.000,1045.000
204.205,1018.000,1029.000,1014.000
206.107,1053.000,1047.000,1036.000
208.010,1047.000,1028.000,1043.000
209.913,1043.000,1055.000,1053.000
211.814,1060.000,1044.000,1050.000
213.716,1042.000,1038.000,1052.000
215.618,1042.000,1055.000,1066.000
217.519,1038.000,1042.000,1027.000
219.419,1050.000,1030.000,1049.000
221.319,1046.000,1050.000,1069.000
223.219,1028.000,1065.000,1071.000
225.118,1079.000,1033.000,1070.000
227.016,1066.000,1055.000,1043.000
228.915,1081.000,1066.000,1079.000
230.813,1048.000,1062.000,1062.000
232.710,1083.000,1076.000,1080.000
234.610,1080.000,1062.000,1080.000
236.507,1071.000,1087.000,1102.000
238.403,1091.000,1047.000,1066.000
240.298,1048.000,1063.000,1078.000
242.195,1064.000,1069.000,1090.000
244.090,1073.000,1092.000,1093.000
245.984,1075.000,1087.000,1091.000
247.879,1075.000,1096.000,1076.000
249.773,1091.000,1097.000,1082.000
251.666,1094.000,1076.000,1077.000
253.561,1080.000,1094.000,1096.000
255.454,1080.000,1095.000,1096.000
257.347,1101.000,1110.000,1084.000
259.239,1104.000,1095.000,1092.000
261.131,1116.000,1096.000,1117.000
263.022,1147.000,1095.000,1114.000
264.913,1102.000,1122.000,1108.000
266.804,1125.000,1126.000,1110.000
268.694,1139.000,1120.000,1137.000
270.584,1144.000,1147.000,1150.000
272.473,1129.000,1164.000,1160.000
274.365,1142.000,1136.000,1129.000
276.253,1139.000,1135.000,1145.000
278.141,1137.000,1134.000,1161.000
280.028,1151.000,1147.000,1129.000
281.917,1119.000,1139.000,1164.000
283.804,1135.000,1143.000,1148.000
285.690,1203.000,1148.000,1142.000
287.577,1151.000,1151.000,1157.000
289.463,1159.000,1146.000,1158.000
291.350,1160.000,1188.000,1164.000
293.236,1190.000,1217.000,1160.000
295.121,1160.000,1183.000,1171.000
297.004,1178.000,1164.000,1173.000
298.889,1177.000,1174.000,1190.000
300.772,1194.000,1196.000,1190.000
302.655,1186.000,1210.000,1174.000
304.539,1202.000,1235.000,1213.000
306.421,1230.000,1181.000,1189.000
308.303,1178.000,1170.000,1205.000
310.185,1200.000,1221.000,1208.000
312.068,1202.000,1203.000,1202.000
313.950,1200.000,1202.000,1219.000
315.830,1227.000,1243.000,1212.000
317.710,1216.000,1205.000,1247.000
319.590,1227.000,1231.000,1203.000
321.469,1204.000,1228.000,1227.000
323.348,1235.000,1237.000,1202.000
325.227,1230.000,1242.000,1246.000
327.104,1236.000,1214.000,1214.000
328.983,1236.000,1256.000,1230.000
330.862,1214.000,1237.000,1236.000
332.740,1195.000,1253.000,1279.000
334.617,1264.000,1250.000,1245.000
336.492,1282.000,1242.000,1253.000
338.369,1284.000,1277.000,1263.000
340.244,1292.000,1281.000,1306.000
342.120,1242.000,1290.000,1244.000
343.994,1269.000,1262.000,1279.000
345.868,1291.000,1280.000,1280.000
347.743,1280.000,1278.000,1305.000
349.619,1298.000,1268.000,1310.000
351.492,1317.000,1279.000,1284.000
353.365,1302.000,1319.000,1285.000
355.237,1325.000,1288.000,1311.000
357.109,1291.000,1307.000,1279.000
358.981,1324.000,1296.000,1340.000
360.853,1323.000,1302.000,1300.000
362.724,1344.000,1322.000,1300.000
364.595,1313.000,1301.000,1327.000
366.464,1323.000,1318.000,1360.000
368.336,1334.000,1350.000,1318.000
370.206,1305.000,1293.000,1338.000
372.076,1364.000,1366.000,1342.000
373.944,1314.000,1371.000,1329.000
375.813,1315.000,1329.000,1364.000
377.681,1372.000,1333.000,1357.000
379.548,1339.000,1361.000,1348.000
381.416,1363.000,1358.000,1357.000
383.282,1377.000,1353.000,1387.000
385.149,1394.000,1359.000,1359.000
387.016,1356.000,1368.000,1355.000
388.883,1366.000,1365.000,1371.000
390.748,1357.000,1373.000,1335.000
392.613,1382.000,1391.000,1391.000
394.478,1374.000,1356.000,1377.000
396.342,1394.000,1380.000,1398.000
398.206,1383.000,1383.000,1385.000
400.069,1384.000,1371.000,1372.000
401.933,1387.000,1338.000,1369.000
403.795,1370.000,1410.000,1428.000
405.659,1416.000,1408.000,1396.000
407.522,1421.000,1407.000,1397.000
409.383,1424.000,1397.000,1395.000
411.244,1376.000,1399.000,1443.000
413.105,1401.000,1379.000,1412.000
414.965,1392.000,1399.000,1413.000
416.826,1431.000,1408.000,1420.000
418.685,1421.000,1396.000,1411.000
420.544,1445.000,1391.000,1403.000
422.403,1403.000,1423.000,1395.000
424.262,1406.000,1436.000,1410.000
426.123,1418.000,1387.000,1406.000
427.980,1400.000,1381.000,1462.000
429.837,1444.000,1427.000,1398.000
431.694,1431.000,1422.000,1399.000
433.551,1425.000,1419.000,1411.000
435.408,1395.000,1411.000,1436.000
437.264,1411.000,1401.000,1422.000
439.119,1386.000,1437.000,1416.000
440.974,1394.000,1436.000,1421.000
442.831,1428.000,1436.000,1423.000
444.685,1420.000,1435.000,1415.000
446.540,1415.000,1427.000,1431.000
448.393,1399.000,1428.000,1410.000
450.246,1415.000,1389.000,1437.000
452.100,1433.000,1378.000,1423.000
453.952,1417.000,1407.000,1404.000
455.804,1418.000,1401.000,1395.000
457.656,1373.000,1377.000,1350.000
459.507,1377.000,1394.000,1398.000
461.358,1403.000,1396.000,1378.000
463.211,1400.000,1381.000,1361.000
465.061,1412.000,1381.000,1371.000
466.911,1397.000,1365.000,1404.000
468.761,1387.000,1317.000,1347.000
470.611,1383.000,1345.000,1357.000
472.459,1349.000,1371.000,1362.000
474.308,1345.000,1357.000,1341.000
476.156,1322.000,1333.000,1359.000
478.003,1303.000,1313.000,1339.000
479.851,1304.000,1352.000,1330.000
481.699,1333.000,1354.000,1315.000
483.547,1331.000,1345.000,1333.000
485.392,1362.000,1363.000,1337.000
487.238,1360.000,1368.000,1378.000
489.084,1343.000,1356.000,1354.000
490.929,1384.000,1346.000,1389.000
492.774,1363.000,1393.000,1383.000
494.618,1389.000,1364.000,1351.000
496.462,1358.000,1336.000,1351.000
498.306,1322.000,1346.000,1329.000
500.151,1314.000,1300.000,1314.000
501.994,1273.000,1267.000,1279.000
503.837,1216.000,1279.000,1253.000
505.679,1220.000,1252.000,1258.000
507.520,1208.000,1205.000,1173.000
509.362,1160.000,1139.000,1133.000
511.202,1119.000,1102.000,1137.000
513.043,1079.000,1095.000,1115.000
514.884,1075.000,1047.000,1064.000
516.724,1024.000,1028.000,1074.000
518.565,1028.000,1005.000,1024.000
520.404,1000.000,1000.000,1016.000
522.243,997.000,1000.000,988.000
524.082,983.000,951.000,982.000
525.920,963.000,955.000,958.000
527.757,939.000,948.000,928.000
529.595,927.000,924.000,903.000
531.432,918.000,916.000,922.000
533.268,905.000,909.000,918.000
535.104,913.000,915.000,929.000
536.940,921.000,887.000,894.000
538.778,894.000,900.000,900.000
540.612,897.000,898.000,901.000
542.447,882.000,881.000,870.000
544.282,875.000,886.000,901.000
546.115,869.000,861.000,868.000
547.949,869.000,858.000,859.000
549.783,858.000,863.000,844.000
551.616,851.000,858.000,861.000
553.448,846.000,867.000,847.000
555.282,835.000,855.000,839.000
557.114,840.000,844.000,835.000
558.946,850.000,840.000,844.000
560.777,840.000,835.000,826.000
562.607,841.000,838.000,843.000
564.438,827.000,859.000,823.000
566.267,850.000,836.000,829.000
568.097,824.000,855.000,815.000
569.926,844.000,829.000,845.000
571.755,840.000,839.000,819.000
573.584,823.000,836.000,835.000
575.414,816.000,829.000,814.000
577.241,819.000,832.000,812.000
579.069,826.000,820.000,816.000
580.896,815.000,825.000,799.000
582.722,819.000,822.000,829.000
584.549,810.000,816.000,827.000
586.374,830.000,827.000,815.000
588.201,826.000,819.000,825.000
590.025,808.000,825.000,835.000
591.853,828.000,834.000,836.000
593.677,818.000,835.000,834.000
595.501,822.000,842.000,823.000
597.324,839.000,837.000,832.000
599.147,866.000,849.000,843.000
600.970,843.000,855.000,848.000
602.793,858.000,849.000,856.000
604.615,853.000,856.000,853.000
606.437,865.000,839.000,854.000
608.259,839.000,848.000,844.000
610.080,854.000,847.000,857.000
611.903,852.000,841.000,842.000
613.724,848.000,828.000,836.000
615.543,826.000,827.000,828.000
617.363,811.000,839.000,820.000
619.182,826.000,824.000,823.000
621.002,826.000,819.000,810.000
622.820,822.000,806.000,797.000
624.639,803.000,795.000,804.000
626.456,807.000,804.000,805.000
628.273,805.000,808.000,791.000
630.093,788.000,793.000,789.000
631.910,785.000,787.000,772.000
633.726,775.000,783.000,776.000
635.542,781.000,772.000,790.000
637.358,786.000,789.000,778.000
639.173,776.000,771.000,771.000
640.988,775.000,779.000,767.000
642.803,765.000,759.000,776.000
644.617,763.000,773.000,773.000
646.431,773.000,764.000,775.000
648.247,771.000,746.000,773.000
650.059,762.000,760.000,773.000
651.873,763.000,772.000,777.000
653.684,753.000,762.000,771.000
655.497,757.000,760.000,766.000
657.308,761.000,751.000,758.000
659.120,760.000,752.000,761.000
660.931,775.000,768.000,771.000
662.741,759.000,767.000,764.000
664.552,760.000,759.000,750.000
666.364,757.000,767.000,759.000
668.173,762.000,761.000,747.000
669.983,752.000,749.000,750.000
671.792,764.000,756.000,755.000
673.600,754.000,751.000,754.000
675.407,737.000,757.000,750.000
677.215,746.000,757.000,750.000
679.023,761.000,745.000,756.000
680.830,744.000,752.000,753.000
682.637,765.000,752.000,750.000
684.444,754.000,762.000,748.000
686.252,757.000,746.000,758.000
688.057,748.000,762.000,738.000
689.862,752.000,751.000,752.000
691.667,762.000,742.000,745.000
693.472,756.000,752.000,756.000
695.275,751.000,744.000,749.000
697.079,749.000,767.000,758.000
698.883,749.000,759.000,759.000
700.686,748.000,752.000,744.000
702.490,757.000,751.000,744.000
704.292,759.000,749.000,769.000
706.095,763.000,766.000,758.000
707.897,752.000,744.000,748.000
709.698,754.000,751.000,753.000
711.499,762.000,772.000,747.000
713.298,750.000,756.000,750.000
715.099,765.000,772.000,756.000
716.899,761.000,734.000,755.000
718.699,754.000,760.000,755.000
720.497,741.000,751.000,737.000
722.298,744.000,751.000,756.000
724.097,759.000,748.000,743.000
725.894,741.000,756.000,755.000
727.692,742.000,739.000,751.000
729.489,764.000,756.000,755.000
731.287,741.000,747.000,757.000
733.083,761.000,761.000,750.000
734.879,757.000,754.000,755.000
736.676,763.000,760.000,756.000
738.473,752.000,754.000,763.000
740.268,758.000,752.000,742.000
742.063,761.000,758.000,757.000
743.857,755.000,765.000,755.000
745.651,758.000,762.000,743.000
747.445,763.000,759.000,755.000
749.238,765.000,776.000,758.000
751.032,771.000,753.000,764.000
752.825,760.000,764.000,750.000
754.616,761.000,763.000,772.000
756.408,767.000,773.000,773.000
758.202,766.000,768.000,769.000
759.994,756.000,770.000,773.000
761.784,766.000,757.000,781.000
763.575,767.000,768.000,776.000
765.365,768.000,777.000,769.000
767.156,779.000,767.000,784.000
768.945,777.000,774.000,771.000
770.734,783.000,778.000,779.000
772.522,796.000,794.000,775.000
774.310,806.000,803.000,789.000
776.101,790.000,826.000,806.000
777.889,817.000,810.000,801.000
779.676,840.000,833.000,823.000
781.463,842.000,848.000,819.000
783.250,847.000,844.000,847.000
785.036,846.000,836.000,833.000
786.822,849.000,838.000,841.000
788.607,849.000,849.000,861.000
790.392,873.000,856.000,863.000
792.178,846.000,852.000,851.000
793.964,864.000,861.000,875.000
795.748,851.000,861.000,852.000
797.532,851.000,847.000,871.000
799.315,866.000,870.000,863.000
801.099,851.000,868.000,862.000
802.881,856.000,854.000,840.000
804.663,852.000,861.000,858.000
806.446,837.000,840.000,838.000
808.227,871.000,864.000,842.000
810.009,866.000,862.000,847.000
811.792,846.000,848.000,845.000
813.573,848.000,842.000,856.000
815.353,845.000,836.000,836.000
817.133,839.000,841.000,841.000
818.911,836.000,834.000,841.000
820.691,847.000,844.000,838.000
822.470,847.000,833.000,815.000
824.249,829.000,844.000,843.000
826.027,832.000,822.000,836.000
827.804,825.000,813.000,814.000
829.582,823.000,826.000,834.000
831.361,845.000,833.000,840.000
833.137,831.000,838.000,819.000
834.914,827.000,830.000,833.000
836.690,813.000,809.000,809.000
838.466,839.000,800.000,810.000
840.241,807.000,811.000,822.000
842.016,807.000,806.000,817.000
843.791,808.000,807.000,811.000
845.566,813.000,785.000,800.000
847.341,789.000,790.000,801.000
849.115,780.000,785.000,790.000
850.888,789.000,781.000,777.000
852.661,781.000,776.000,780.000
854.433,770.000,781.000,779.000
856.206,782.000,771.000,764.000
857.978,767.000,762.000,759.000
859.749,768.000,767.000,763.000
861.521,753.000,752.000,769.000
863.291,743.000,746.000,764.000
865.062,766.000,746.000,757.000
866.834,739.000,738.000,749.000
868.603,744.000,752.000,747.000
870.373,724.000,755.000,735.000
872.142,759.000,751.000,744.000
873.911,736.000,740.000,750.000
875.679,746.000,735.000,748.000
877.447,739.000,746.000,740.000
879.215,747.000,729.000,740.000
880.982,748.000,747.000,739.000
882.751,745.000,735.000,749.000
884.517,740.000,744.000,729.000
886.283,746.000,725.000,747.000
888.049,743.000,742.000,749.000
889.815,735.000,736.000,740.000
891.580,731.000,752.000,732.000
893.345,739.000,737.000,734.000
895.110,741.000,741.000,746.000
896.874,743.000,744.000,735.000
898.637,737.000,739.000,740.000
900.401,749.000,736.000,733.000
902.166,725.000,738.000,748.000
903.930,730.000,736.000,735.000
905.692,739.000,726.000,734.000
907.453,738.000,752.000,736.000
909.215,742.000,731.000,740.000
910.976,735.000,735.000,740.000
912.738,734.000,747.000,727.000
914.499,740.000,728.000,733.000
916.259,743.000,743.000,735.000
918.019,745.000,742.000,745.000
919.781,735.000,739.000,752.000
921.540,744.000,730.000,734.000
923.299,740.000,739.000,739.000
925.058,736.000,741.000,741.000
926.816,719.000,740.000,738.000
928.574,740.000,732.000,728.000
930.331,745.000,753.000,733.000
932.088,742.000,733.000,739.000
933.845,747.000,739.000,740.000
935.602,736.000,743.000,735.000
937.361,740.000,733.000,726.000
939.116,736.000,736.000,746.000
940.872,745.000,741.000,734.000
942.626,738.000,743.000,745.000
944.382,725.000,740.000,731.000
946.136,729.000,731.000,734.000
947.890,740.000,744.000,737.000
949.644,752.000,739.000,741.000
951.397,743.000,724.000,740.000
953.150,742.000,726.000,753.000
954.906,736.000,731.000,738.000
956.658,732.000,726.000,744.000
958.410,751.000,746.000,732.000
960.162,731.000,726.000,735.000
961.913,726.000,741.000,741.000
963.663,736.000,749.000,734.000
965.414,744.000,725.000,734.000
967.164,751.000,741.000,732.000
968.915,743.000,742.000,738.000
970.665,740.000,763.000,750.000
972.413,748.000,741.000,747.000
974.164,747.000,750.000,747.000
975.913,739.000,736.000,744.000
977.661,744.000,740.000,746.000
979.410,747.000,753.000,743.000
981.157,755.000,754.000,740.000
982.905,741.000,736.000,743.000
984.651,725.000,741.000,746.000
986.398,739.000,744.000,736.000
988.144,744.000,743.000,736.000
989.892,748.000,749.000,744.000
991.637,733.000,742.000,739.000
993.382,749.000,740.000,727.000
995.127,732.000,739.000,736.000
996.872,752.000,742.000,729.000
998.616,735.000,731.000,746.000
1000.360,743.000,754.000,740.000
1002.104,736.000,732.000,744.000
1003.847,732.000,746.000,739.000
1005.589,751.000,738.000,732.000
1007.332,745.000,758.000,736.000
1009.076,753.000,747.000,742.000
1010.817,740.000,735.000,746.000
1012.559,753.000,761.000,746.000
1014.301,753.000,753.000,747.000
1016.041,763.000,739.000,748.000
1017.781,758.000,750.000,757.000
1019.522,747.000,756.000,744.000
1021.261,763.000,751.000,744.000
1023.000,757.000,755.000,758.000
1024.742,740.000,744.000,754.000
1026.480,760.000,759.000,767.000
1028.218,752.000,749.000,757.000
1029.956,757.000,769.000,766.000
1031.694,759.000,760.000,758.000
1033.431,769.000,752.000,745.000
1035.169,763.000,762.000,755.000
1036.905,759.000,756.000,755.000
1038.642,776.000,769.000,769.000
1040.378,778.000,758.000,773.000
1042.113,779.000,787.000,774.000
1043.850,769.000,765.000,766.000
1045.586,782.000,772.000,774.000
1047.321,777.000,786.000,782.000
1049.054,778.000,785.000,791.000
1050.789,778.000,762.000,775.000
1052.522,777.000,767.000,776.000
1054.256,765.000,786.000,777.000
1055.989,791.000,768.000,780.000
1057.721,782.000,770.000,770.000
1059.453,778.000,784.000,784.000
1061.187,787.000,781.000,770.000
1062.919,779.000,770.000,778.000
1064.650,775.000,768.000,777.000
1066.381,788.000,776.000,780.000
1068.111,795.000,772.000,771.000
1069.841,780.000,784.000,773.000
1071.571,777.000,787.000,796.000
1073.301,782.000,787.000,781.000
1075.031,771.000,788.000,775.000
1076.760,780.000,780.000,780.000
1078.490,781.000,790.000,766.000
1080.218,774.000,782.000,777.000
1081.946,775.000,774.000,789.000
1083.674,780.000,772.000,775.000
1085.400,783.000,758.000,771.000
1087.128,779.000,773.000,769.000
1088.854,762.000,782.000,763.000
1090.581,767.000,771.000,767.000
1092.306,765.000,764.000,762.000
1094.031,759.000,759.000,773.000
1095.759,770.000,767.000,769.000
1097.484,758.000,764.000,764.000
1099.208,754.000,757.000,766.000
1100.932,760.000,753.000,764.000
1102.656,767.000,766.000,761.000
1104.379,744.000,746.000,755.000
1106.102,764.000,759.000,752.000
1107.825,752.000,763.000,759.000
1109.548,759.000,759.000,749.000
1111.270,758.000,738.000,763.000
1112.992,762.000,751.000,763.000
1114.716,748.000,748.000,755.000
1116.436,746.000,766.000,751.000
1118.157,760.000,746.000,741.000
1119.878,754.000,748.000,753.000
1121.598,746.000,759.000,752.000
1123.318,752.000,755.000,758.000
1125.037,745.000,761.000,758.000
1126.757,753.000,766.000,721.000
1128.475,764.000,744.000,734.000
1130.196,750.000,755.000,745.000
1131.914,754.000,743.000,751.000
1133.632,760.000,747.000,752.000
1135.349,771.000,753.000,754.000
1137.066,754.000,759.000,737.000
1138.784,756.000,747.000,752.000
1140.499,743.000,752.000,753.000
1142.215,755.000,759.000,755.000
1143.931,760.000,763.000,756.000
1145.647,754.000,754.000,742.000
1147.362,748.000,749.000,758.000
1149.079,766.000,760.000,765.000
1150.793,755.000,757.000,766.000
1152.508,765.000,752.000,762.000
1154.221,755.000,766.000,750.000
1155.935,763.000,764.000,752.000
1157.647,767.000,755.000,760.000
1159.361,767.000,770.000,763.000
1161.074,766.000,762.000,776.000
1162.785,752.000,767.000,773.000
1164.500,774.000,762.000,768.000
1166.211,748.000,764.000,755.000
1167.922,766.000,759.000,768.000
1169.632,763.000,750.000,764.000
1171.343,767.000,763.000,762.000
1173.053,767.000,765.000,769.000
1174.763,757.000,768.000,756.000
1176.473,769.000,774.000,766.000
1178.182,764.000,778.000,760.000
1179.891,765.000,760.000,759.000
1181.599,766.000,758.000,770.000
1183.309,768.000,754.000,767.000
1185.017,763.000,778.000,765.000
1186.725,770.000,767.000,765.000
1188.431,766.000,761.000,765.000
1190.138,767.000,781.000,778.000
1191.844,762.000,768.000,749.000
1193.551,766.000,766.000,759.000
1195.257,769.000,763.000,766.000
1196.962,769.000,773.000,767.000
1198.668,767.000,777.000,768.000
1200.374,768.000,750.000,768.000
1202.079,771.000,752.000,764.000
1203.783,764.000,762.000,773.000
1205.487,772.000,767.000,772.000
1207.190,769.000,777.000,765.000
1208.893,771.000,764.000,763.000
1210.597,770.000,784.000,767.000
1212.299,767.000,774.000,763.000
1214.002,776.000,768.000,768.000
1215.703,768.000,759.000,776.000
1217.407,760.000,775.000,756.000
1219.108,779.000,759.000,773.000
1220.809,778.000,777.000,779.000
1222.509,774.000,765.000,791.000
1224.209,756.000,772.000,760.000
1225.910,752.000,772.000,781.000
1227.610,769.000,770.000,771.000
1229.308,769.000,766.000,759.000
1231.008,777.000,784.000,768.000
1232.706,782.000,780.000,770.000
1234.406,792.000,760.000,770.000
1236.104,769.000,777.000,782.000
1237.802,768.000,774.000,782.000
1239.499,782.000,765.000,772.000
1241.195,788.000,792.000,781.000
1242.893,770.000,772.000,759.000