File: Raman/Silica/2025_09_12_12pct_Hydrated_SiO2_Glass_on_DAC_Culet_50X_532nm_74mW_Andor750_600gv_3400wn_6accum_30s_DePol_Loc5_DAC2.csv
2654.492,811.000,800.000,827.000,807.000,807.000,802.000
2657.338,837.000,813.000,816.000,810.000,803.000,817.000
2660.180,838.000,834.000,818.000,832.000,823.000,808.000
2663.023,829.000,826.000,823.000,810.000,807.000,796.000
2665.866,828.000,844.000,814.000,801.000,813.000,800.000
2668.704,840.000,827.000,815.000,813.000,803.000,809.000
2671.545,830.000,821.000,825.000,831.000,812.000,801.000
2674.383,825.000,829.000,820.000,810.000,822.000,804.000
2677.221,821.000,831.000,823.000,815.000,803.000,795.000
2680.058,832.000,838.000,822.000,828.000,801.000,802.000
2682.894,821.000,819.000,836.000,827.000,804.000,810.000
2685.729,840.000,820.000,822.000,819.000,804.000,814.000
2688.562,837.000,827.000,818.000,813.000,812.000,804.000
2691.395,825.000,843.000,849.000,810.000,819.000,787.000
2694.227,835.000,812.000,819.000,825.000,809.000,813.000
2697.056,824.000,826.000,831.000,808.000,818.000,811.000
2699.886,834.000,835.000,814.000,812.000,800.000,814.000
2702.715,828.000,821.000,815.000,816.000,810.000,794.000
2705.543,827.000,825.000,824.000,811.000,800.000,812.000
2708.369,1206.000,837.000,819.000,814.000,817.000,818.000
2711.196,841.000,815.000,807.000,807.000,822.000,799.000
2714.020,838.000,839.000,827.000,813.000,813.000,802.000
2716.844,822.000,830.000,809.000,827.000,814.000,802.000
2719.668,831.000,791.000,812.000,812.000,801.000,797.000
2722.488,826.000,828.000,823.000,824.000,818.000,811.000
2725.309,826.000,831.000,828.000,807.000,819.000,795.000
2728.129,821.000,819.000,819.000,817.000,812.000,793.000
2730.947,832.000,836.000,808.000,798.000,808.000,812.000
2733.765,845.000,825.000,808.000,822.000,819.000,809.000
2736.583,835.000,813.000,823.000,799.000,803.000,802.000
2739.399,825.000,821.000,811.000,806.000,805.000,810.000
2742.214,825.000,799.000,827.000,811.000,821.000,782.000
2745.027,825.000,821.000,814.000,819.000,815.000,817.000
2747.840,827.000,827.000,816.000,824.000,823.000,803.000
2750.650,836.000,821.000,808.000,816.000,819.000,808.000
2753.462,835.000,835.000,826.000,811.000,821.000,812.000
2756.272,811.000,812.000,817.000,806.000,802.000,798.000
2759.081,820.000,830.000,823.000,822.000,811.000,816.000
2761.889,827.000,815.000,822.000,809.000,817.000,814.000
2764.696,828.000,829.000,831.000,810.000,810.000,795.000
2767.503,829.000,820.000,829.000,807.000,805.000,817.000
2770.307,824.000,829.000,824.000,811.000,817.000,820.000
2773.111,821.000,826.000,823.000,817.000,810.000,804.000
2775.915,840.000,823.000,810.000,828.000,815.000,810.000
2778.716,824.000,826.000,823.000,820.000,814.000,803.000
2781.517,838.000,819.000,812.000,819.000,826.000,804.000
2784.316,837.000,821.000,823.000,810.000,809.000,812.000
2787.116,836.000,830.000,821.000,816.000,798.000,800.000
2789.915,818.000,827.000,820.000,820.000,826.000,808.000
2792.711,816.000,825.000,823.000,809.000,810.000,787.000
2795.507,814.000,821.000,843.000,830.000,807.000,822.000
2798.304,832.000,833.000,825.000,810.000,819.000,804.000
2801.098,838.000,816.000,820.000,810.000,826.000,810.000
2803.889,835.000,822.000,807.000,797.000,803.000,809.000
2806.682,834.000,811.000,837.000,816.000,811.000,800.000
2809.474,820.000,806.000,814.000,814.000,810.000,804.000
2812.264,834.000,818.000,809.000,819.000,810.000,817.000
2815.054,830.000,819.000,839.000,819.000,802.000,806.000
2817.842,836.000,831.000,812.000,820.000,812.000,816.000
2820.630,840.000,830.000,817.000,818.000,792.000,793.000
2823.416,833.000,823.000,825.000,804.000,828.000,798.000
2826.201,827.000,832.000,819.000,817.000,812.000,792.000
2828.986,837.000,827.000,824.000,830.000,827.000,815.000
2831.768,808.000,828.000,814.000,831.000,812.000,800.000
2834.551,812.000,835.000,812.000,832.000,823.000,812.000
2837.333,825.000,828.000,833.000,817.000,827.000,808.000
2840.113,819.000,812.000,825.000,818.000,814.000,811.000
2842.893,817.000,814.000,832.000,807.000,813.000,807.000
2845.672,828.000,816.000,807.000,815.000,814.000,815.000
2848.450,832.000,821.000,819.000,810.000,811.000,813.000
2851.227,835.000,830.000,819.000,833.000,819.000,815.000
2854.003,837.000,853.000,824.000,812.000,835.000,808.000
2856.776,817.000,831.000,826.000,823.000,826.000,816.000
2859.550,834.000,808.000,812.000,815.000,804.000,811.000
2862.323,826.000,837.000,819.000,814.000,820.000,815.000
2865.095,838.000,820.000,825.000,823.000,830.000,815.000
2867.867,825.000,835.000,826.000,832.000,816.000,820.000
2870.636,831.000,830.000,825.000,828.000,824.000,813.000
2873.406,844.000,827.000,824.000,834.000,827.000,805.000
2876.174,839.000,817.000,826.000,831.000,823.000,824.000
2878.941,814.000,833.000,823.000,824.000,817.000,818.000
2881.707,834.000,833.000,828.000,815.000,819.000,827.000
2884.471,859.000,837.000,818.000,820.000,820.000,822.000
2887.236,837.000,844.000,825.000,819.000,821.000,825.000
2889.998,840.000,843.000,837.000,830.000,832.000,816.000
2892.761,837.000,832.000,829.000,821.000,809.000,834.000
2895.522,823.000,836.000,831.000,839.000,845.000,830.000
2898.284,832.000,838.000,853.000,839.000,826.000,819.000
2901.043,839.000,843.000,838.000,831.000,844.000,821.000
2903.802,833.000,871.000,835.000,843.000,852.000,854.000
2906.558,867.000,863.000,857.000,853.000,846.000,847.000
2909.314,889.000,886.000,866.000,880.000,839.000,852.000
2912.069,902.000,885.000,876.000,882.000,868.000,871.000
2914.825,885.000,920.000,913.000,872.000,870.000,887.000
2917.578,913.000,926.000,908.000,905.000,919.000,881.000
2920.331,924.000,913.000,905.000,910.000,896.000,906.000
2923.083,922.000,913.000,906.000,894.000,923.000,898.000
2925.834,910.000,914.000,908.000,893.000,896.000,888.000
2928.584,851.000,896.000,872.000,861.000,864.000,884.000
2931.333,875.000,884.000,883.000,844.000,871.000,874.000
2934.081,871.000,862.000,866.000,865.000,867.000,864.000
2936.826,851.000,868.000,858.000,844.000,856.000,845.000
2939.573,840.000,847.000,834.000,853.000,832.000,840.000
2942.319,857.000,847.000,840.000,841.000,850.000,831.000
2945.063,862.000,842.000,839.000,837.000,851.000,831.000
2947.805,859.000,849.000,859.000,851.000,841.000,824.000
2950.548,824.000,842.000,853.000,826.000,821.000,822.000
2953.290,865.000,846.000,843.000,855.000,828.000,833.000
2956.030,868.000,847.000,847.000,858.000,834.000,848.000
2958.769,853.000,852.000,837.000,827.000,844.000,837.000
2961.509,873.000,850.000,841.000,846.000,849.000,815.000
2964.244,855.000,850.000,852.000,839.000,839.000,845.000
2966.981,870.000,863.000,849.000,847.000,841.000,851.000
2969.717,869.000,862.000,873.000,854.000,863.000,848.000
2972.452,874.000,878.000,853.000,870.000,842.000,858.000
2975.185,875.000,856.000,867.000,863.000,870.000,860.000
2977.919,883.000,871.000,853.000,847.000,872.000,832.000
2980.651,856.000,851.000,863.000,854.000,842.000,842.000
2983.382,869.000,846.000,854.000,849.000,853.000,852.000
2986.112,868.000,861.000,868.000,844.000,859.000,852.000
2988.840,854.000,854.000,859.000,834.000,850.000,827.000
2991.567,833.000,873.000,859.000,832.000,856.000,846.000
2994.295,858.000,856.000,859.000,831.000,826.000,854.000
2997.021,852.000,871.000,861.000,844.000,861.000,829.000
2999.746,845.000,847.000,845.000,846.000,841.000,841.000
3002.471,853.000,861.000,836.000,838.000,831.000,826.000
3005.195,851.000,847.000,852.000,846.000,848.000,836.000
3007.916,851.000,857.000,868.000,848.000,844.000,840.000
3010.638,874.000,859.000,842.000,854.000,825.000,844.000
3013.358,851.000,853.000,850.000,832.000,835.000,851.000
3016.077,886.000,875.000,863.000,839.000,858.000,850.000
3018.797,868.000,842.000,858.000,860.000,846.000,845.000
3021.514,853.000,857.000,874.000,852.000,855.000,846.000
3024.231,876.000,862.000,865.000,857.000,847.000,855.000
3026.947,854.000,852.000,877.000,854.000,862.000,859.000
3029.662,858.000,874.000,870.000,871.000,857.000,853.000
3032.377,877.000,859.000,862.000,864.000,841.000,841.000
3035.089,873.000,873.000,845.000,858.000,858.000,849.000
3037.801,868.000,856.000,850.000,850.000,856.000,851.000
3040.512,882.000,871.000,869.000,871.000,843.000,852.000
3043.222,853.000,853.000,877.000,853.000,838.000,870.000
3045.932,876.000,864.000,856.000,868.000,839.000,841.000
3048.640,871.000,872.000,839.000,835.000,861.000,843.000
3051.348,875.000,870.000,865.000,849.000,870.000,860.000
3054.054,854.000,848.000,868.000,856.000,854.000,853.000
3056.760,882.000,869.000,871.000,863.000,839.000,849.000
3059.465,866.000,862.000,836.000,855.000,865.000,842.000
3062.168,882.000,852.000,850.000,865.000,859.000,845.000
3064.872,888.000,859.000,887.000,886.000,843.000,859.000
3067.572,867.000,878.000,860.000,874.000,834.000,863.000
3070.273,893.000,874.000,868.000,866.000,885.000,842.000
3072.974,883.000,867.000,851.000,859.000,864.000,831.000
3075.673,861.000,877.000,865.000,860.000,851.000,873.000
3078.371,867.000,880.000,851.000,866.000,867.000,856.000
3081.068,873.000,871.000,868.000,880.000,868.000,853.000
3083.765,876.000,883.000,867.000,866.000,866.000,862.000
3086.461,885.000,882.000,861.000,863.000,867.000,863.000
3089.156,878.000,876.000,859.000,858.000,862.000,858.000
3091.847,875.000,885.000,883.000,859.000,875.000,864.000
3094.540,877.000,868.000,870.000,866.000,864.000,879.000
3097.231,891.000,887.000,887.000,888.000,861.000,882.000
3099.923,863.000,865.000,867.000,891.000,854.000,846.000
3102.613,885.000,891.000,883.000,891.000,872.000,884.000
3105.303,890.000,890.000,868.000,887.000,871.000,855.000
3107.991,890.000,895.000,877.000,883.000,885.000,890.000
3110.677,885.000,876.000,876.000,890.000,869.000,860.000
3113.363,901.000,870.000,878.000,882.000,881.000,880.000
3116.049,896.000,887.000,895.000,889.000,879.000,881.000
3118.732,903.000,893.000,896.000,888.000,898.000,895.000
3121.416,888.000,900.000,881.000,897.000,871.000,873.000
3124.098,912.000,906.000,909.000,872.000,884.000,889.000
3126.780,913.000,912.000,894.000,896.000,891.000,853.000
3129.461,896.000,895.000,888.000,868.000,884.000,902.000
3132.141,896.000,883.000,883.000,895.000,902.000,869.000
3134.820,890.000,914.000,888.000,906.000,873.000,875.000
3137.497,920.000,905.000,914.000,898.000,891.000,878.000
3140.175,902.000,904.000,894.000,903.000,888.000,885.000
3142.850,896.000,896.000,902.000,891.000,893.000,893.000
3145.525,917.000,900.000,896.000,904.000,904.000,913.000
3148.199,917.000,921.000,908.000,901.000,891.000,895.000
3150.873,919.000,909.000,913.000,902.000,892.000,877.000
3153.545,919.000,911.000,901.000,897.000,916.000,880.000
3156.217,915.000,926.000,895.000,899.000,906.000,915.000
3158.887,921.000,903.000,920.000,917.000,907.000,895.000
3161.558,911.000,911.000,882.000,922.000,897.000,891.000
3164.226,913.000,928.000,904.000,927.000,916.000,926.000
3166.894,931.000,916.000,918.000,900.000,892.000,895.000
3169.560,895.000,917.000,898.000,905.000,916.000,914.000
3172.226,915.000,932.000,914.000,908.000,921.000,925.000
3174.892,932.000,937.000,919.000,924.000,918.000,916.000
3177.556,931.000,936.000,915.000,933.000,917.000,932.000
3180.219,943.000,938.000,936.000,939.000,919.000,918.000
3182.882,935.000,925.000,920.000,928.000,926.000,930.000
3185.544,950.000,960.000,928.000,931.000,926.000,921.000
3188.204,940.000,930.000,955.000,930.000,932.000,907.000
3190.864,947.000,938.000,933.000,929.000,924.000,925.000
3193.522,945.000,941.000,947.000,926.000,936.000,923.000
3196.180,942.000,945.000,955.000,933.000,949.000,930.000
3198.836,971.000,927.000,964.000,950.000,931.000,932.000
3201.493,965.000,949.000,930.000,930.000,934.000,945.000
3204.148,936.000,954.000,973.000,953.000,950.000,930.000
3206.803,947.000,950.000,965.000,940.000,929.000,931.000
3209.456,969.000,964.000,931.000,939.000,951.000,944.000
3212.109,949.000,971.000,963.000,951.000,941.000,951.000
3214.761,958.000,951.000,953.000,979.000,939.000,944.000
3217.412,954.000,976.000,964.000,932.000,946.000,962.000
3220.060,957.000,935.000,982.000,971.000,966.000,952.000
3222.709,951.000,959.000,957.000,931.000,955.000,952.000
3225.357,965.000,942.000,957.000,960.000,954.000,946.000
3228.004,965.000,952.000,959.000,976.000,947.000,939.000
3230.650,977.000,983.000,956.000,946.000,927.000,954.000
3233.295,964.000,970.000,966.000,966.000,965.000,950.000
3235.940,981.000,938.000,964.000,971.000,958.000,965.000
3238.584,966.000,964.000,958.000,970.000,957.000,972.000
3241.227,966.000,971.000,940.000,981.000,953.000,960.000
3243.868,980.000,988.000,981.000,967.000,942.000,961.000
3246.507,979.000,969.000,948.000,959.000,959.000,968.000
3249.148,966.000,972.000,972.000,970.000,952.000,953.000
3251.787,981.000,979.000,965.000,968.000,976.000,974.000
3254.425,981.000,965.000,984.000,974.000,971.000,962.000
3257.063,964.000,987.000,984.000,980.000,947.000,961.000
3259.698,973.000,972.000,974.000,974.000,986.000,1007.000
3262.334,966.000,982.000,992.000,983.000,957.000,978.000
3264.969,977.000,964.000,981.000,977.000,977.000,943.000
3267.603,1000.000,988.000,982.000,995.000,970.000,971.000
3270.234,1000.000,981.000,998.000,960.000,964.000,957.000
3272.866,1000.000,957.000,1005.000,949.000,978.000,979.000
3275.497,978.000,981.000,982.000,980.000,980.000,993.000
3278.127,980.000,1001.000,976.000,980.000,993.000,982.000
3280.757,986.000,996.000,959.000,989.000,964.000,979.000
3283.385,1023.000,995.000,980.000,997.000,987.000,991.000
3286.013,985.000,994.000,1007.000,979.000,989.000,964.000
3288.639,988.000,1001.000,951.000,971.000,961.000,964.000
3291.264,1011.000,1004.000,983.000,975.000,996.000,1001.000
3293.890,987.000,983.000,991.000,1015.000,1003.000,983.000
3296.512,1019.000,1033.000,1002.000,995.000,996.000,984.000
3299.135,984.000,998.000,986.000,966.000,983.000,978.000
3301.757,1002.000,998.000,995.000,986.000,981.000,981.000
3304.379,991.000,997.000,993.000,1010.000,994.000,990.000
3306.999,983.000,1004.000,998.000,1019.000,997.000,1002.000
3309.618,1005.000,992.000,990.000,998.000,1000.000,1014.000
3312.237,1017.000,1004.000,972.000,1000.000,992.000,990.000
3314.855,1004.000,1015.000,1014.000,997.000,994.000,991.000
3317.472,1013.000,1014.000,1011.000,1004.000,979.000,1002.000
3320.087,1031.000,1015.000,1048.000,998.000,1008.000,981.000
3322.701,1027.000,1021.000,1010.000,1017.000,991.000,1006.000
3325.316,1043.000,1001.000,1021.000,1017.000,994.000,1000.000
3327.928,1023.000,1021.000,1011.000,1019.000,1039.000,1013.000
3330.542,1017.000,1015.000,1000.000,1024.000,1016.000,987.000
3333.153,1031.000,1021.000,1010.000,1035.000,1017.000,1006.000
3335.763,1024.000,1012.000,1014.000,1042.000,1011.000,1005.000
3338.373,1038.000,1028.000,1024.000,1047.000,1011.000,1007.000
3340.982,1034.000,1034.000,1026.000,1020.000,1029.000,1014.000
3343.591,1029.000,1056.000,1027.000,1038.000,1031.000,1008.000
3346.196,1034.000,1040.000,1034.000,1044.000,1010.000,1058.000
3348.803,1035.000,1042.000,1034.000,1033.000,1028.000,1022.000
3351.408,1042.000,1032.000,1024.000,1045.000,1022.000,1037.000
3354.012,1035.000,1057.000,1033.000,1041.000,1029.000,1025.000
3356.615,1047.000,1051.000,1046.000,1027.000,1027.000,1035.000
3359.218,1038.000,1051.000,1045.000,1030.000,1051.000,1032.000
3361.820,1043.000,1037.000,1035.000,1020.000,1048.000,1037.000
3364.421,1062.000,1052.000,1026.000,1044.000,1049.000,1039.000
3367.022,1045.000,1056.000,1036.000,1043.000,1083.000,1064.000
3369.619,1080.000,1046.000,1048.000,1053.000,1042.000,1028.000
3372.217,1044.000,1066.000,1072.000,1051.000,1038.000,1038.000
3374.815,1060.000,1050.000,1038.000,1069.000,1078.000,1063.000
3377.412,1082.000,1059.000,1061.000,1066.000,1065.000,1053.000
3380.008,1087.000,1078.000,1068.000,1033.000,1039.000,1066.000
3382.603,1072.000,1063.000,1064.000,1059.000,1056.000,1042.000
3385.196,1077.000,1078.000,1074.000,1042.000,1063.000,1052.000
3387.789,1062.000,1061.000,1048.000,1046.000,1058.000,1059.000
3390.382,1079.000,1045.000,1083.000,1065.000,1079.000,1075.000
3392.973,1103.000,1062.000,1044.000,1037.000,1042.000,1057.000
3395.562,1078.000,1086.000,1099.000,1070.000,1063.000,1052.000
3398.152,1099.000,1087.000,1069.000,1057.000,1091.000,1067.000
3400.740,1086.000,1079.000,1094.000,1071.000,1064.000,1056.000
3403.328,1078.000,1066.000,1063.000,1072.000,1059.000,1089.000
3405.916,1093.000,1090.000,1059.000,1047.000,1063.000,1063.000
3408.502,1070.000,1089.000,1091.000,1055.000,1078.000,1100.000
3411.087,1067.000,1097.000,1082.000,1089.000,1078.000,1078.000
3413.672,1081.000,1097.000,1123.000,1085.000,1077.000,1080.000
3416.255,1077.000,1107.000,1075.000,1090.000,1070.000,1086.000
3418.838,1090.000,1106.000,1113.000,1096.000,1095.000,1078.000
3421.418,1090.000,1115.000,1074.000,1081.000,1109.000,1083.000
3423.999,1091.000,1098.000,1093.000,1095.000,1071.000,1086.000
3426.579,1117.000,1100.000,1103.000,1096.000,1079.000,1087.000
3429.158,1103.000,1123.000,1102.000,1083.000,1073.000,1097.000
3431.737,1103.000,1105.000,1104.000,1090.000,1087.000,1104.000
3434.314,1119.000,1115.000,1069.000,1103.000,1083.000,1085.000
3436.891,1125.000,1081.000,1095.000,1091.000,1097.000,1094.000
3439.467,1103.000,1102.000,1106.000,1117.000,1104.000,1094.000
3442.041,1118.000,1116.000,1108.000,1109.000,1118.000,1107.000
3444.614,1099.000,1092.000,1092.000,1105.000,1114.000,1085.000
3447.188,1092.000,1136.000,1088.000,1117.000,1132.000,1118.000
3449.759,1102.000,1095.000,1102.000,1125.000,1120.000,1084.000
3452.331,1099.000,1087.000,1111.000,1116.000,1096.000,1117.000
3454.901,1124.000,1121.000,1095.000,1102.000,1115.000,1090.000
3457.472,1106.000,1115.000,1083.000,1115.000,1112.000,1098.000
3460.040,1097.000,1109.000,1127.000,1097.000,1078.000,1087.000
3462.608,1083.000,1093.000,1140.000,1089.000,1106.000,1103.000
3465.175,1128.000,1139.000,1110.000,1124.000,1109.000,1092.000
3467.740,1124.000,1115.000,1108.000,1098.000,1109.000,1097.000
3470.305,1102.000,1112.000,1117.000,1101.000,1082.000,1111.000
3472.870,1110.000,1119.000,1094.000,1083.000,1086.000,1108.000
3475.433,1112.000,1104.000,1116.000,1089.000,1114.000,1072.000
3477.997,1131.000,1101.000,1083.000,1119.000,1074.000,1081.000
3480.559,1099.000,1121.000,1115.000,1122.000,1089.000,1105.000
3483.120,1115.000,1120.000,1108.000,1127.000,1073.000,1088.000
3485.680,1104.000,1118.000,1100.000,1083.000,1095.000,1101.000
3488.239,1111.000,1091.000,1104.000,1099.000,1086.000,1099.000
3490.798,1133.000,1101.000,1103.000,1071.000,1120.000,1081.000
3493.354,1092.000,1120.000,1118.000,1094.000,1093.000,1099.000
3495.911,1105.000,1095.000,1114.000,1107.000,1093.000,1106.000
3498.467,1113.000,1115.000,1105.000,1109.000,1092.000,1083.000
3501.023,1096.000,1104.000,1086.000,1062.000,1098.000,1072.000
3503.577,1113.000,1089.000,1090.000,1099.000,1088.000,1091.000
3506.130,1134.000,1106.000,1089.000,1100.000,1087.000,1114.000
3508.683,1126.000,1100.000,1104.000,1083.000,1083.000,1091.000
3511.235,1089.000,1085.000,1060.000,1079.000,1093.000,1083.000
3513.785,1107.000,1111.000,1114.000,1083.000,1098.000,1072.000
3516.336,1092.000,1105.000,1105.000,1101.000,1071.000,1099.000
3518.883,1115.000,1091.000,1080.000,1072.000,1075.000,1062.000
3521.431,1109.000,1112.000,1102.000,1088.000,1093.000,1057.000
3523.979,1099.000,1088.000,1098.000,1082.000,1087.000,1077.000
3526.526,1087.000,1075.000,1062.000,1086.000,1078.000,1079.000
3529.072,1116.000,1099.000,1084.000,1065.000,1085.000,1068.000
3531.617,1094.000,1057.000,1086.000,1090.000,1078.000,1070.000
3534.160,1092.000,1080.000,1092.000,1074.000,1056.000,1072.000
3536.704,1087.000,1081.000,1072.000,1052.000,1077.000,1085.000
3539.246,1057.000,1095.000,1085.000,1079.000,1067.000,1048.000
3541.787,1077.000,1072.000,1074.000,1077.000,1096.000,1088.000
3544.327,1060.000,1083.000,1060.000,1074.000,1065.000,1048.000
3546.867,1089.000,1099.000,1071.000,1078.000,1070.000,1073.000
3549.406,1061.000,1065.000,1076.000,1074.000,1063.000,1055.000
3551.944,1053.000,1061.000,1064.000,1070.000,1071.000,1047.000
3554.482,1089.000,1071.000,1079.000,1079.000,1073.000,1058.000
3557.017,1085.000,1063.000,1061.000,1058.000,1084.000,1065.000
3559.553,1066.000,1051.000,1064.000,1091.000,1048.000,1065.000
3562.088,1076.000,1075.000,1068.000,1047.000,1071.000,1030.000
3564.623,1075.000,1064.000,1056.000,1049.000,1039.000,1053.000
3567.154,1076.000,1058.000,1088.000,1093.000,1075.000,1060.000
3569.686,1073.000,1060.000,1076.000,1046.000,1073.000,1076.000
3572.218,1074.000,1069.000,1074.000,1074.000,1072.000,1058.000
3574.749,1077.000,1075.000,1062.000,1052.000,1065.000,1055.000
3577.278,1072.000,1055.000,1077.000,1091.000,1056.000,1079.000
3579.807,1044.000,1115.000,1079.000,1080.000,1081.000,1071.000
3582.335,1115.000,1072.000,1075.000,1085.000,1060.000,1071.000
3584.862,1072.000,1086.000,1080.000,1087.000,1066.000,1067.000
3587.389,1111.000,1085.000,1074.000,1095.000,1063.000,1050.000
3589.914,1087.000,1096.000,1089.000,1090.000,1076.000,1101.000
3592.437,1098.000,1080.000,1077.000,1059.000,1096.000,1072.000
3594.961,1089.000,1073.000,1092.000,1107.000,1077.000,1082.000
3597.484,1116.000,1078.000,1087.000,1102.000,1106.000,1098.000
3600.006,1080.000,1077.000,1084.000,1074.000,1062.000,1083.000
3602.528,1105.000,1058.000,1076.000,1058.000,1071.000,1085.000
3605.048,1072.000,1071.000,1107.000,1059.000,1068.000,1058.000
3607.568,1081.000,1058.000,1075.000,1052.000,1069.000,1062.000
3610.086,1080.000,1064.000,1051.000,1051.000,1042.000,1032.000
3612.604,1054.000,1036.000,1067.000,1035.000,1037.000,1040.000
3615.120,1037.000,1036.000,1061.000,1062.000,1021.000,1023.000
3617.637,1041.000,1033.000,1035.000,1030.000,1041.000,1022.000
3620.153,1026.000,1047.000,1037.000,1041.000,1017.000,1029.000
3622.667,1045.000,1043.000,1069.000,1033.000,1032.000,1018.000
3625.181,1041.000,1026.000,1052.000,1013.000,1036.000,1031.000
3627.694,1040.000,1022.000,1033.000,1049.000,1031.000,1018.000
3630.206,1018.000,1049.000,1017.000,1008.000,1028.000,1017.000
3632.718,1042.000,1049.000,1042.000,1015.000,1027.000,1023.000
3635.227,1043.000,1030.000,1008.000,1040.000,1002.000,1027.000
3637.736,1038.000,1037.000,1028.000,1043.000,1041.000,1027.000
3640.245,1004.000,1038.000,1032.000,997.000,1026.000,1006.000
3642.753,1029.000,1022.000,1016.000,1036.000,1011.000,1031.000
3645.260,1030.000,1019.000,1015.000,1038.000,1017.000,1023.000
3647.767,1030.000,997.000,992.000,1009.000,1003.000,1006.000
3650.272,1011.000,1000.000,1016.000,995.000,1030.000,1011.000
3652.777,1022.000,1015.000,1009.000,993.000,1006.000,1001.000
3655.281,1017.000,1018.000,1023.000,995.000,995.000,996.000
3657.784,988.000,1011.000,994.000,1013.000,997.000,1003.000
3660.286,1019.000,1000.000,998.000,1024.000,1006.000,987.000
3662.786,1012.000,1017.000,981.000,982.000,1006.000,982.000
3665.286,1006.000,999.000,985.000,969.000,971.000,982.000
3667.786,961.000,987.000,962.000,967.000,982.000,974.000
3670.285,966.000,1003.000,975.000,962.000,965.000,949.000
3672.783,984.000,939.000,945.000,919.000,940.000,952.000
3675.280,960.000,955.000,948.000,937.000,930.000,946.000
3677.777,941.000,929.000,930.000,932.000,936.000,920.000
3680.272,920.000,925.000,948.000,910.000,918.000,918.000
3682.767,920.000,906.000,907.000,898.000,900.000,915.000
3685.262,916.000,915.000,891.000,892.000,890.000,890.000
3687.753,883.000,884.000,873.000,896.000,848.000,867.000
3690.245,874.000,869.000,882.000,864.000,874.000,879.000
3692.737,865.000,855.000,845.000,864.000,871.000,856.000
3695.228,862.000,846.000,853.000,843.000,863.000,845.000
3697.717,846.000,840.000,850.000,832.000,825.000,824.000
3700.206,846.000,842.000,836.000,836.000,833.000,827.000
3702.695,844.000,845.000,823.000,819.000,822.000,812.000
3705.181,831.000,830.000,823.000,821.000,823.000,806.000
3707.668,825.000,812.000,825.000,803.000,788.000,805.000
3710.152,802.000,812.000,808.000,814.000,807.000,802.000
3712.638,793.000,817.000,800.000,799.000,803.000,800.000
3715.122,811.000,796.000,799.000,791.000,785.000,775.000
3717.605,807.000,789.000,800.000,797.000,799.000,788.000
3720.087,788.000,793.000,785.000,780.000,796.000,781.000
3722.569,793.000,776.000,774.000,772.000,791.000,786.000
3725.050,786.000,779.000,773.000,784.000,772.000,782.000
3727.531,792.000,799.000,778.000,780.000,780.000,776.000
3730.009,795.000,786.000,767.000,770.000,782.000,775.000
3732.487,789.000,789.000,777.000,785.000,787.000,787.000
3734.964,797.000,792.000,772.000,772.000,769.000,769.000
3737.441,776.000,786.000,779.000,780.000,781.000,770.000
3739.917,785.000,782.000,774.000,772.000,782.000,767.000
3742.392,773.000,775.000,767.000,780.000,764.000,751.000
3744.866,773.000,763.000,770.000,766.000,769.000,769.000
3747.340,767.000,764.000,768.000,761.000,778.000,765.000
3749.813,774.000,767.000,778.000,769.000,774.000,755.000
3752.284,772.000,767.000,767.000,774.000,756.000,778.000
3754.756,770.000,762.000,771.000,761.000,758.000,763.000
3757.226,780.000,768.000,768.000,768.000,762.000,747.000
3759.694,777.000,779.000,767.000,768.000,767.000,759.000
3762.162,758.000,773.000,753.000,767.000,754.000,773.000
3764.630,772.000,765.000,770.000,755.000,759.000,753.000
3767.097,764.000,772.000,763.000,762.000,761.000,773.000
3769.564,767.000,767.000,752.000,766.000,757.000,751.000
3772.029,761.000,764.000,766.000,748.000,761.000,767.000
3774.494,766.000,760.000,771.000,764.000,759.000,765.000
3776.957,778.000,766.000,774.000,756.000,758.000,759.000
3779.421,776.000,759.000,749.000,773.000,741.000,764.000
3781.882,767.000,766.000,764.000,756.000,772.000,737.000
3784.343,762.000,767.000,763.000,755.000,760.000,752.000
3786.803,763.000,768.000,768.000,774.000,760.000,764.000
3789.262,760.000,767.000,766.000,756.000,768.000,768.000
3791.722,765.000,763.000,758.000,757.000,763.000,746.000
3794.180,765.000,749.000,762.000,767.000,760.000,755.000
3796.637,755.000,761.000,776.000,757.000,749.000,749.000
3799.094,763.000,767.000,774.000,760.000,755.000,742.000
3801.550,761.000,775.000,754.000,759.000,756.000,764.000
3804.003,750.000,779.000,762.000,759.000,756.000,745.000
3806.457,761.000,762.000,758.000,740.000,751.000,754.000
3808.911,751.000,770.000,762.000,754.000,743.000,749.000
3811.363,776.000,768.000,762.000,755.000,756.000,756.000
3813.814,746.000,761.000,761.000,766.000,733.000,750.000
3816.266,767.000,760.000,755.000,762.000,758.000,759.000
3818.715,774.000,749.000,758.000,742.000,758.000,750.000
3821.165,756.000,760.000,753.000,754.000,750.000,746.000
3823.613,767.000,764.000,758.000,746.000,760.000,761.000
3826.061,766.000,767.000,754.000,742.000,750.000,750.000
3828.507,768.000,766.000,758.000,772.000,753.000,761.000
3830.953,765.000,762.000,755.000,760.000,757.000,744.000
3833.398,760.000,773.000,751.000,756.000,753.000,741.000
3835.842,767.000,759.000,767.000,758.000,758.000,747.000
3838.286,757.000,769.000,757.000,757.000,756.000,736.000
3840.730,752.000,755.000,755.000,759.000,748.000,747.000
3843.172,757.000,762.000,753.000,752.000,766.000,745.000
3845.613,759.000,761.000,763.000,752.000,764.000,755.000
3848.053,765.000,756.000,753.000,748.000,743.000,750.000
3850.493,773.000,757.000,757.000,754.000,746.000,734.000
3852.931,748.000,767.000,769.000,761.000,749.000,763.000
3855.369,767.000,767.000,766.000,739.000,745.000,755.000
3857.807,760.000,765.000,767.000,736.000,749.000,755.000
3860.243,752.000,757.000,751.000,771.000,760.000,747.000
3862.679,758.000,762.000,754.000,760.000,743.000,747.000
3865.113,763.000,764.000,770.000,756.000,758.000,757.000
3867.547,769.000,771.000,761.000,744.000,749.000,734.000
3869.981,760.000,755.000,763.000,759.000,757.000,763.000
3872.413,754.000,754.000,752.000,754.000,754.000,746.000
3874.844,771.000,756.000,747.000,757.000,755.000,753.000
3877.275,755.000,753.000,778.000,760.000,749.000,754.000
3879.705,764.000,754.000,766.000,760.000,746.000,754.000
3882.134,755.000,757.000,761.000,757.000,754.000,755.000
3884.563,763.000,765.000,757.000,754.000,749.000,746.000
3886.991,778.000,748.000,762.000,741.000,757.000,762.000
3889.418,762.000,753.000,741.000,754.000,747.000,755.000
3891.844,761.000,758.000,760.000,755.000,766.000,754.000
3894.269,749.000,758.000,767.000,757.000,758.000,747.000
3896.693,744.000,767.000,759.000,755.000,751.000,751.000
3899.117,762.000,758.000,758.000,747.000,765.000,745.000
3901.540,754.000,763.000,741.000,747.000,745.000,761.000
3903.962,755.000,758.000,766.000,745.000,752.000,730.000
3906.383,772.000,769.000,770.000,747.000,758.000,767.000
3908.805,760.000,757.000,753.000,759.000,742.000,758.000
3911.224,749.000,766.000,755.000,741.000,752.000,754.000
3913.643,769.000,751.000,753.000,745.000,750.000,744.000
3916.062,768.000,767.000,755.000,760.000,766.000,762.000
3918.479,760.000,752.000,763.000,749.000,757.000,746.000
3920.897,764.000,751.000,764.000,760.000,747.000,748.000
3923.311,745.000,765.000,761.000,765.000,749.000,754.000
3925.726,766.000,761.000,753.000,751.000,756.000,762.000
3928.140,765.000,756.000,764.000,749.000,767.000,746.000
3930.554,768.000,767.000,752.000,753.000,746.000,749.000
3932.967,767.000,771.000,759.000,765.000,753.000,752.000
3935.379,759.000,767.000,755.000,746.000,746.000,754.000
3937.791,761.000,771.000,760.000,764.000,757.000,745.000
3940.201,759.000,757.000,767.000,753.000,747.000,750.000
3942.610,748.000,758.000,767.000,752.000,755.000,741.000
3945.018,765.000,767.000,763.000,748.000,767.000,745.000
3947.427,763.000,740.000,758.000,743.000,759.000,748.000
3949.834,750.000,767.000,764.000,749.000,763.000,760.000
3952.240,769.000,765.000,763.000,758.000,752.000,758.000
3954.647,754.000,752.000,754.000,761.000,753.000,761.000
3957.052,756.000,764.000,768.000,745.000,756.000,755.000
3959.456,767.000,758.000,758.000,757.000,757.000,766.000
3961.859,762.000,766.000,761.000,749.000,755.000,756.000
3964.261,762.000,753.000,764.000,766.000,752.000,747.000
3966.662,764.000,762.000,754.000,762.000,754.000,756.000
3969.064,769.000,770.000,754.000,753.000,766.000,760.000
3971.464,759.000,751.000,761.000,762.000,750.000,753.000
3973.863,775.000,747.000,775.000,773.000,769.000,758.000
3976.263,760.000,762.000,758.000,763.000,751.000,777.000
3978.661,758.000,767.000,755.000,762.000,750.000,749.000
3981.058,766.000,784.000,768.000,775.000,764.000,755.000
3983.454,762.000,778.000,778.000,764.000,774.000,758.000
3985.849,770.000,764.000,760.000,785.000,755.000,769.000
3988.245,777.000,768.000,764.000,781.000,755.000,778.000
3989.441,788.000,781.000,782.000,771.000,772.000,767.000