File: Raman/Silica/2025_08_22_BB1392_SiO2_8wtPctH2O_Glass_50X_532nm_750uW_Kymera328_600gv_2050wn_3accum_60s_Unpol.csv
82.904,3911.000,3881.000,3863.000
87.182,3896.000,3846.000,3853.000
91.460,3779.000,3823.000,3831.000
95.735,3833.000,3808.000,3793.000
100.010,3775.000,3785.000,3778.000
104.280,3748.000,3759.000,3769.000
108.551,3727.000,3723.000,3743.000
112.818,3750.000,3690.000,3733.000
117.084,3727.000,3718.000,3692.000
121.347,3691.000,3707.000,3671.000
125.610,3686.000,3690.000,3675.000
129.869,3663.000,3668.000,3657.000
134.127,3640.000,3653.000,3639.000
138.382,3630.000,3621.000,3618.000
142.639,3604.000,3612.000,3609.000
146.889,3616.000,3617.000,3587.000
151.140,3566.000,3585.000,3587.000
155.388,3544.000,3583.000,3568.000
159.635,3570.000,3561.000,3561.000
163.879,3595.000,3552.000,3574.000
168.121,3563.000,3552.000,3566.000
172.362,3541.000,3537.000,3531.000
176.599,3553.000,3540.000,3567.000
180.837,3543.000,3529.000,3540.000
185.071,3548.000,3551.000,3535.000
189.305,3555.000,3512.000,3555.000
193.535,3534.000,3499.000,3518.000
197.765,3504.000,3529.000,3532.000
201.991,3517.000,3526.000,3509.000
206.218,3529.000,3546.000,3518.000
210.440,3524.000,3507.000,3514.000
214.662,3511.000,3536.000,3530.000
218.880,3483.000,3515.000,3499.000
223.099,3527.000,3518.000,3511.000
227.313,3531.000,3524.000,3520.000
231.529,3483.000,3518.000,3519.000
235.739,3503.000,3504.000,3510.000
239.950,3536.000,3525.000,3527.000
244.156,3505.000,3527.000,3510.000
248.361,3503.000,3502.000,3513.000
252.567,3517.000,3521.000,3506.000
256.769,3512.000,3508.000,3510.000
260.969,3518.000,3522.000,3506.000
265.167,3522.000,3536.000,3535.000
269.365,3516.000,3495.000,3507.000
273.558,3517.000,3523.000,3521.000
277.751,3553.000,3520.000,3523.000
281.941,3521.000,3535.000,3536.000
286.132,3532.000,3539.000,3534.000
290.317,3550.000,3552.000,3532.000
294.504,3540.000,3543.000,3532.000
298.686,3601.000,3590.000,3547.000
302.868,3564.000,3538.000,3553.000
307.047,3532.000,3551.000,3546.000
311.225,3558.000,3554.000,3531.000
315.400,3571.000,3562.000,3597.000
319.575,3576.000,3577.000,3538.000
323.746,3569.000,3555.000,3577.000
327.915,3559.000,3575.000,3583.000
332.084,3588.000,3578.000,3614.000
336.249,3555.000,3601.000,3588.000
340.414,3633.000,3593.000,3604.000
344.576,3621.000,3614.000,3606.000
348.738,3631.000,3611.000,3619.000
352.895,3607.000,3624.000,3618.000
357.053,3645.000,3638.000,3669.000
361.207,3635.000,3628.000,3638.000
365.362,3627.000,3649.000,3633.000
369.512,3636.000,3650.000,3640.000
373.662,3648.000,3641.000,3652.000
377.809,3653.000,3648.000,3652.000
381.956,3667.000,3661.000,3700.000
386.098,3659.000,3659.000,3669.000
390.241,3699.000,3625.000,3685.000
394.381,3663.000,3689.000,3688.000
398.519,3699.000,3686.000,3694.000
402.656,3692.000,3686.000,3660.000
406.791,3691.000,3647.000,3679.000
410.922,3737.000,3672.000,3672.000
415.052,3721.000,3695.000,3698.000
419.182,3754.000,3727.000,3728.000
423.308,3748.000,3711.000,3740.000
427.435,3711.000,3737.000,3745.000
431.557,3736.000,3746.000,3744.000
435.679,3731.000,3776.000,3743.000
439.798,3775.000,3749.000,3751.000
443.917,3779.000,3765.000,3735.000
448.032,3811.000,3798.000,3778.000
452.147,3843.000,3804.000,3808.000
456.258,3831.000,3809.000,3816.000
460.370,3802.000,3843.000,3851.000
464.477,3849.000,3825.000,3858.000
468.585,3859.000,3867.000,3824.000
472.689,3883.000,3885.000,3863.000
476.792,3839.000,3882.000,3883.000
480.893,3870.000,3876.000,3824.000
484.994,3855.000,3857.000,3819.000
489.091,3829.000,3825.000,3790.000
493.185,3796.000,3799.000,3822.000
497.279,3761.000,3804.000,3751.000
501.371,3774.000,3727.000,3748.000
505.462,3683.000,3699.000,3695.000
509.549,3636.000,3691.000,3675.000
513.637,3614.000,3604.000,3610.000
517.721,3569.000,3592.000,3557.000
521.804,3533.000,3515.000,3558.000
525.885,3518.000,3528.000,3514.000
529.965,3495.000,3487.000,3514.000
534.042,3474.000,3467.000,3497.000
538.119,3456.000,3428.000,3474.000
542.191,3458.000,3432.000,3426.000
546.264,3438.000,3411.000,3429.000
550.333,3407.000,3415.000,3456.000
554.403,3388.000,3421.000,3403.000
558.468,3368.000,3394.000,3381.000
562.535,3389.000,3392.000,3395.000
566.596,3366.000,3394.000,3370.000
570.656,3373.000,3387.000,3366.000
574.716,3370.000,3372.000,3364.000
578.773,3355.000,3371.000,3382.000
582.829,3367.000,3352.000,3365.000
586.883,3375.000,3363.000,3346.000
590.935,3346.000,3336.000,3357.000
594.985,3352.000,3358.000,3320.000
599.034,3344.000,3331.000,3347.000
603.080,3357.000,3323.000,3334.000
607.126,3336.000,3339.000,3343.000
611.168,3355.000,3323.000,3334.000
615.210,3331.000,3338.000,3324.000
619.249,3308.000,3319.000,3305.000
623.288,3332.000,3320.000,3337.000
627.323,3309.000,3326.000,3305.000
631.358,3310.000,3316.000,3313.000
635.390,3312.000,3322.000,3293.000
639.421,3316.000,3304.000,3316.000
643.449,3281.000,3311.000,3303.000
647.475,3301.000,3305.000,3289.000
651.500,3331.000,3298.000,3321.000
655.523,3304.000,3288.000,3283.000
659.546,3305.000,3280.000,3270.000
663.565,3307.000,3300.000,3309.000
667.583,3290.000,3291.000,3306.000
671.598,3301.000,3305.000,3288.000
675.615,3291.000,3299.000,3289.000
679.626,3298.000,3289.000,3287.000
683.638,3286.000,3278.000,3288.000
687.646,3279.000,3291.000,3299.000
691.654,3291.000,3283.000,3294.000
695.659,3268.000,3280.000,3283.000
699.664,3301.000,3296.000,3288.000
703.665,3279.000,3294.000,3283.000
707.666,3270.000,3275.000,3290.000
711.664,3296.000,3269.000,3291.000
715.662,3282.000,3293.000,3293.000
719.656,3286.000,3282.000,3286.000
723.648,3288.000,3279.000,3283.000
727.641,3293.000,3295.000,3262.000
731.629,3271.000,3303.000,3295.000
735.619,3297.000,3287.000,3283.000
739.604,3273.000,3263.000,3280.000
743.588,3306.000,3279.000,3281.000
747.571,3284.000,3257.000,3292.000
751.552,3312.000,3299.000,3281.000
755.530,3291.000,3298.000,3303.000
759.509,3288.000,3300.000,3302.000
763.484,3297.000,3298.000,3303.000
767.458,3318.000,3305.000,3297.000
771.429,3294.000,3310.000,3312.000
775.401,3316.000,3312.000,3314.000
779.369,3338.000,3323.000,3305.000
783.336,3327.000,3335.000,3347.000
787.301,3333.000,3336.000,3315.000
791.265,3326.000,3350.000,3348.000
795.226,3325.000,3362.000,3347.000
799.187,3356.000,3363.000,3326.000
803.144,3350.000,3361.000,3341.000
807.100,3337.000,3327.000,3340.000
811.056,3357.000,3323.000,3339.000
815.007,3327.000,3331.000,3341.000
818.959,3320.000,3332.000,3322.000
822.908,3316.000,3317.000,3327.000
826.857,3303.000,3316.000,3310.000
830.802,3317.000,3309.000,3328.000
834.747,3318.000,3312.000,3278.000
838.688,3297.000,3278.000,3303.000
842.630,3292.000,3296.000,3307.000
846.568,3284.000,3287.000,3281.000
850.507,3300.000,3281.000,3273.000
854.441,3280.000,3281.000,3288.000
858.376,3275.000,3280.000,3267.000
862.308,3283.000,3278.000,3276.000
866.239,3260.000,3270.000,3262.000
870.167,3274.000,3285.000,3290.000
874.092,3293.000,3285.000,3267.000
878.019,3284.000,3283.000,3263.000
881.942,3269.000,3291.000,3281.000
885.864,3272.000,3280.000,3282.000
889.784,3276.000,3279.000,3301.000
893.704,3292.000,3285.000,3281.000
897.619,3274.000,3297.000,3280.000
901.535,3299.000,3287.000,3275.000
905.448,3301.000,3295.000,3298.000
909.360,3317.000,3294.000,3299.000
913.268,3311.000,3303.000,3312.000
917.178,3311.000,3336.000,3318.000
921.083,3324.000,3310.000,3323.000
924.989,3333.000,3303.000,3331.000
928.891,3335.000,3324.000,3335.000
932.794,3309.000,3324.000,3342.000
936.692,3332.000,3346.000,3342.000
940.591,3341.000,3342.000,3355.000
944.486,3372.000,3352.000,3344.000
948.382,3361.000,3371.000,3386.000
952.273,3382.000,3381.000,3371.000
956.164,3376.000,3389.000,3402.000
960.055,3382.000,3386.000,3401.000
963.942,3390.000,3406.000,3391.000
967.828,3382.000,3401.000,3402.000
971.711,3397.000,3386.000,3395.000
975.595,3403.000,3399.000,3406.000
979.475,3400.000,3383.000,3363.000
983.355,3393.000,3393.000,3379.000
987.232,3381.000,3381.000,3355.000
991.110,3365.000,3364.000,3374.000
994.983,3376.000,3351.000,3348.000
998.856,3356.000,3354.000,3379.000
1002.725,3337.000,3339.000,3327.000
1006.596,3362.000,3331.000,3330.000
1010.462,3322.000,3310.000,3339.000
1014.329,3313.000,3327.000,3353.000
1018.192,3322.000,3307.000,3321.000
1022.056,3301.000,3330.000,3329.000
1025.915,3333.000,3311.000,3322.000
1029.773,3311.000,3327.000,3308.000
1033.633,3299.000,3333.000,3296.000
1037.487,3330.000,3320.000,3310.000
1041.342,3326.000,3332.000,3319.000
1045.194,3308.000,3336.000,3337.000
1049.045,3316.000,3305.000,3315.000
1052.893,3328.000,3321.000,3331.000
1056.741,3334.000,3322.000,3326.000
1060.586,3323.000,3320.000,3308.000
1064.431,3328.000,3344.000,3333.000
1068.273,3339.000,3336.000,3339.000
1072.115,3331.000,3319.000,3327.000
1075.952,3335.000,3323.000,3335.000
1079.791,3334.000,3334.000,3295.000
1083.626,3328.000,3325.000,3293.000
1087.461,3333.000,3333.000,3320.000
1091.292,3327.000,3316.000,3311.000
1095.124,3313.000,3334.000,3318.000
1098.952,3327.000,3314.000,3325.000
1102.779,3310.000,3321.000,3312.000
1106.605,3318.000,3317.000,3306.000
1110.428,3326.000,3324.000,3307.000
1114.251,3300.000,3321.000,3312.000
1118.072,3313.000,3298.000,3302.000
1121.892,3302.000,3296.000,3296.000
1125.709,3317.000,3317.000,3307.000
1129.525,3298.000,3307.000,3305.000
1133.339,3314.000,3320.000,3302.000
1137.153,3307.000,3319.000,3316.000
1140.962,3323.000,3322.000,3313.000
1144.772,3303.000,3287.000,3319.000
1148.579,3310.000,3328.000,3296.000
1152.385,3335.000,3316.000,3289.000
1156.189,3299.000,3285.000,3309.000
1159.993,3314.000,3307.000,3308.000
1163.793,3308.000,3316.000,3322.000
1167.594,3314.000,3311.000,3304.000
1171.390,3299.000,3311.000,3324.000
1175.188,3320.000,3334.000,3293.000
1178.982,3306.000,3311.000,3322.000
1182.773,3325.000,3310.000,3299.000
1186.565,3314.000,3315.000,3298.000
1190.354,3320.000,3316.000,3302.000
1194.142,3320.000,3307.000,3293.000
1197.928,3323.000,3301.000,3308.000
1201.714,3277.000,3297.000,3320.000
1205.496,3305.000,3299.000,3330.000
1209.279,3309.000,3307.000,3299.000
1213.058,3316.000,3304.000,3294.000
1216.836,3300.000,3309.000,3301.000
1220.613,3287.000,3278.000,3305.000
1224.388,3309.000,3302.000,3274.000
1228.161,3282.000,3315.000,3287.000
1231.933,3282.000,3298.000,3306.000
1235.703,3300.000,3293.000,3291.000
1239.472,3294.000,3292.000,3296.000
1243.238,3285.000,3297.000,3286.000
1247.003,3282.000,3274.000,3296.000
1250.767,3288.000,3296.000,3314.000
1254.528,3326.000,3292.000,3295.000
1258.290,3264.000,3293.000,3296.000
1262.048,3288.000,3311.000,3283.000
1265.805,3271.000,3277.000,3295.000
1269.561,3305.000,3293.000,3310.000
1273.315,3288.000,3268.000,3278.000
1277.067,3307.000,3302.000,3286.000
1280.818,3280.000,3277.000,3288.000
1284.567,3310.000,3297.000,3297.000
1288.316,3308.000,3297.000,3271.000
1292.061,3307.000,3292.000,3292.000
1295.806,3298.000,3273.000,3295.000
1299.548,3285.000,3307.000,3301.000
1303.290,3300.000,3288.000,3279.000
1307.028,3296.000,3290.000,3287.000
1310.767,3288.000,3303.000,3301.000
1314.503,3298.000,3282.000,3289.000
1318.239,3300.000,3282.000,3295.000
1321.971,3288.000,3288.000,3291.000
1325.701,3292.000,3295.000,3297.000
1329.432,3307.000,3297.000,3304.000
1333.160,3296.000,3298.000,3308.000
1336.887,3284.000,3309.000,3278.000
1340.612,3303.000,3300.000,3280.000
1344.337,3288.000,3289.000,3288.000
1348.058,3286.000,3301.000,3275.000
1351.779,3289.000,3308.000,3280.000
1355.498,3292.000,3307.000,3274.000
1359.216,3308.000,3313.000,3308.000
1362.931,3327.000,3311.000,3286.000
1366.646,3299.000,3309.000,3304.000
1370.357,3327.000,3328.000,3319.000
1374.068,3318.000,3300.000,3314.000
1377.777,3321.000,3322.000,3309.000
1381.486,3322.000,3296.000,3295.000
1385.192,3309.000,3307.000,3310.000
1388.895,3317.000,3318.000,3311.000
1392.599,3299.000,3314.000,3299.000
1396.300,3296.000,3340.000,3312.000
1400.001,3334.000,3315.000,3314.000
1403.698,3320.000,3296.000,3307.000
1407.396,3328.000,3307.000,3318.000
1411.089,3320.000,3330.000,3301.000
1414.784,3307.000,3309.000,3324.000
1418.476,3327.000,3304.000,3319.000
1422.168,3330.000,3313.000,3315.000
1425.856,3300.000,3302.000,3328.000
1429.544,3324.000,3307.000,3315.000
1433.228,3327.000,3310.000,3309.000
1436.914,3303.000,3321.000,3314.000
1440.595,3316.000,3314.000,3314.000
1444.277,3327.000,3324.000,3311.000
1447.956,3338.000,3323.000,3332.000
1451.635,3332.000,3327.000,3343.000
1455.310,3315.000,3323.000,3314.000
1458.986,3315.000,3318.000,3318.000
1462.658,3329.000,3322.000,3324.000
1466.330,3342.000,3319.000,3332.000
1470.000,3330.000,3316.000,3323.000
1473.668,3328.000,3334.000,3335.000
1477.336,3339.000,3327.000,3307.000
1481.000,3318.000,3321.000,3316.000
1484.666,3348.000,3339.000,3314.000
1488.328,3331.000,3326.000,3342.000
1491.989,3348.000,3323.000,3328.000
1495.648,3327.000,3331.000,3328.000
1499.307,3332.000,3334.000,3310.000
1502.962,3319.000,3328.000,3305.000
1506.618,3305.000,3343.000,3318.000
1510.269,3341.000,3356.000,3312.000
1513.921,3328.000,3323.000,3328.000
1517.571,3349.000,3326.000,3345.000
1521.221,3322.000,3333.000,3354.000
1524.867,3346.000,3345.000,3358.000
1528.512,3337.000,3348.000,3322.000
1532.156,3335.000,3328.000,3329.000
1535.799,3342.000,3352.000,3335.000
1539.440,3333.000,3340.000,3338.000
1543.078,3347.000,3331.000,3349.000
1546.717,3325.000,3344.000,3322.000
1550.351,3347.000,3349.000,3339.000
1553.987,3341.000,3360.000,3343.000
1557.619,3351.000,3346.000,3321.000
1561.252,3333.000,3360.000,3337.000
1564.881,3343.000,3356.000,3325.000
1568.511,3348.000,3345.000,3337.000
1572.137,3346.000,3327.000,3338.000
1575.764,3347.000,3335.000,3317.000
1579.386,3344.000,3329.000,3368.000
1583.010,3349.000,3340.000,3347.000
1586.630,3340.000,3339.000,3360.000
1590.250,3356.000,3342.000,3346.000
1593.867,3338.000,3347.000,3342.000
1597.484,3356.000,3359.000,3343.000
1601.099,3356.000,3344.000,3354.000
1604.711,3349.000,3357.000,3355.000
1608.324,3356.000,3353.000,3358.000
1611.934,3343.000,3324.000,3359.000
1615.543,3346.000,3346.000,3349.000
1619.149,3352.000,3352.000,3342.000
1622.756,3360.000,3346.000,3355.000
1626.360,3339.000,3369.000,3378.000
1629.963,3339.000,3347.000,3370.000
1633.564,3375.000,3350.000,3371.000
1637.164,3363.000,3371.000,3335.000
1640.762,3386.000,3364.000,3354.000
1644.359,3329.000,3326.000,3350.000
1647.953,3362.000,3357.000,3338.000
1651.548,3345.000,3342.000,3361.000
1655.139,3348.000,3351.000,3356.000
1658.730,3351.000,3345.000,3358.000
1662.320,3358.000,3373.000,3345.000
1665.907,3335.000,3369.000,3372.000
1669.493,3365.000,3341.000,3353.000
1673.079,3356.000,3372.000,3356.000
1676.661,3345.000,3354.000,3354.000
1680.242,3363.000,3351.000,3355.000
1683.823,3352.000,3358.000,3347.000
1687.400,3366.000,3333.000,3346.000
1690.979,3358.000,3364.000,3350.000
1694.554,3351.000,3361.000,3352.000
1698.129,3360.000,3350.000,3343.000
1701.700,3355.000,3352.000,3350.000
1705.272,3360.000,3343.000,3376.000
1708.841,3359.000,3370.000,3389.000
1712.411,3351.000,3367.000,3335.000
1715.977,3358.000,3337.000,3342.000
1719.542,3339.000,3345.000,3351.000
1723.105,3357.000,3356.000,3348.000
1726.668,3370.000,3328.000,3337.000
1730.228,3341.000,3327.000,3364.000
1733.788,3350.000,3350.000,3383.000
1737.346,3340.000,3342.000,3357.000
1740.901,3346.000,3356.000,3364.000
1744.456,3366.000,3347.000,5102.000
1748.009,3386.000,3369.000,3358.000
1751.561,3335.000,3384.000,3358.000
1755.111,3350.000,3360.000,3357.000
1758.661,3350.000,3336.000,3346.000
1762.207,3357.000,3377.000,3358.000
1765.755,3370.000,3353.000,3360.000
1769.298,3441.000,3353.000,3349.000
1772.842,4928.000,3344.000,3347.000
1776.382,4654.000,3343.000,3367.000
1779.923,4033.000,3347.000,3356.000
1783.461,3376.000,3355.000,3364.000
1786.999,3375.000,3382.000,3357.000
1790.534,3380.000,3358.000,3352.000
1794.069,3363.000,3378.000,3361.000
1797.601,3355.000,3386.000,3364.000
1801.133,3397.000,3347.000,3375.000
1804.662,3384.000,3361.000,3349.000
1808.191,3366.000,3354.000,3376.000
1811.718,3360.000,3355.000,3354.000
1815.242,3370.000,3373.000,3372.000
1818.767,3383.000,3391.000,3351.000
1822.288,3369.000,3377.000,3371.000
1825.810,3369.000,3379.000,3376.000
1829.329,3375.000,3363.000,3354.000
1832.847,3365.000,3360.000,3355.000
1836.363,3368.000,3361.000,3366.000
1839.880,3357.000,3360.000,3414.000
1843.392,3364.000,3389.000,3378.000
1846.905,3338.000,3353.000,3342.000
1850.415,3378.000,3361.000,3380.000
1853.925,3384.000,3383.000,3383.000
1857.433,3367.000,3388.000,3365.000
1860.940,3367.000,3366.000,3387.000
1864.444,3364.000,3362.000,3366.000
1867.949,3378.000,3378.000,3367.000
1871.449,3371.000,3385.000,3377.000
1874.950,3362.000,3364.000,3370.000
1878.449,3380.000,3382.000,3368.000
1881.946,3396.000,3369.000,3388.000
1885.443,3356.000,3382.000,3356.000
1888.937,3350.000,3381.000,5188.000
1892.432,3398.000,3389.000,3655.000
1895.923,3376.000,3369.000,3380.000
1899.414,3375.000,3391.000,3382.000
1902.902,3386.000,3394.000,3404.000
1906.391,3383.000,3376.000,3392.000
1909.877,3403.000,3389.000,3373.000
1913.362,3402.000,3381.000,3395.000
1916.844,3386.000,3386.000,3385.000
1920.327,3377.000,3405.000,3396.000
1923.807,3377.000,3380.000,3363.000
1927.287,3396.000,3362.000,3397.000
1930.764,3390.000,3395.000,3385.000
1934.240,3411.000,3406.000,3404.000
1937.714,3389.000,3367.000,3391.000
1941.189,3375.000,3384.000,3392.000
1944.659,3404.000,3392.000,3391.000
1948.128,3391.000,3401.000,3383.000
1951.599,3373.000,3395.000,3387.000
1955.066,3409.000,3372.000,3402.000
1958.532,3404.000,3409.000,3397.000
1961.996,3392.000,3392.000,3390.000
1965.460,3388.000,3427.000,3387.000
1968.921,3440.000,3368.000,3408.000
1972.382,3405.000,3395.000,3404.000
1975.841,3417.000,3415.000,3374.000
1979.300,3391.000,3398.000,3401.000
1982.755,3391.000,3391.000,3400.000
1986.210,3387.000,3413.000,3389.000
1989.663,3393.000,3385.000,3398.000
1993.116,3374.000,3390.000,3406.000
1996.565,3406.000,3429.000,3410.000
2000.015,3398.000,3390.000,3403.000
2003.462,3406.000,3400.000,3390.000
2006.909,3430.000,3410.000,3388.000
2010.354,3405.000,3409.000,3396.000
2013.797,3411.000,3406.000,3432.000
2017.238,3406.000,3401.000,3402.000
2020.678,3396.000,3385.000,3390.000
2024.119,3413.000,3379.000,3374.000
2027.555,3424.000,3388.000,3396.000
2030.993,3396.000,3420.000,3411.000
2034.427,3420.000,3390.000,3413.000
2037.861,3400.000,3396.000,3384.000
2041.292,3406.000,3419.000,3393.000
2044.724,3407.000,3414.000,3390.000
2048.152,3423.000,3401.000,3396.000
2051.581,3418.000,3404.000,3417.000
2055.007,3418.000,3418.000,3402.000
2058.433,3431.000,3398.000,3399.000
2061.856,3399.000,3398.000,3419.000
2065.280,3415.000,3405.000,3410.000
2068.699,3414.000,3419.000,3434.000
2072.120,3422.000,3424.000,3427.000
2075.537,3421.000,3435.000,3402.000
2078.952,3396.000,3424.000,3424.000
2082.369,3412.000,3428.000,3407.000
2085.784,3429.000,3420.000,3416.000
2089.196,3435.000,3416.000,3412.000
2092.606,3415.000,3425.000,3436.000
2096.017,3433.000,3407.000,3425.000
2099.424,3430.000,3429.000,3425.000
2102.832,3445.000,3428.000,3410.000
2106.237,3416.000,3433.000,3426.000
2109.642,3419.000,3422.000,3429.000
2113.044,3416.000,3410.000,3424.000
2116.445,3412.000,3414.000,3386.000
2119.845,3407.000,3392.000,3419.000
2123.244,3422.000,3417.000,3440.000
2126.641,3423.000,3420.000,3419.000
2130.038,3441.000,3428.000,3412.000
2133.431,3434.000,3455.000,3404.000
2136.824,3412.000,3414.000,3414.000
2140.216,3399.000,3429.000,3420.000
2143.607,3418.000,3433.000,3427.000
2146.995,3422.000,3421.000,3445.000
2150.383,3412.000,3419.000,3412.000
2153.769,3430.000,3398.000,3432.000
2157.153,3439.000,3430.000,3441.000
2160.538,3428.000,3447.000,3401.000
2163.919,3410.000,3428.000,3432.000
2167.300,3467.000,3422.000,3415.000
2170.678,3433.000,3428.000,3438.000
2174.058,3437.000,3441.000,3448.000
2177.434,3416.000,3409.000,3432.000
2180.810,3423.000,3428.000,3450.000
2184.183,3422.000,3419.000,3430.000
2187.556,3429.000,3452.000,3444.000
2190.927,3431.000,3420.000,3438.000
2194.297,3423.000,3422.000,3413.000
2197.665,3445.000,3442.000,3448.000
2201.033,3435.000,3454.000,3443.000
2204.397,3435.000,3450.000,3444.000
2207.760,3446.000,3427.000,3449.000
2211.125,3459.000,3451.000,3437.000
2214.487,3435.000,3423.000,3448.000
2217.846,3418.000,3426.000,3440.000
2221.204,3438.000,3424.000,3426.000
2224.562,3454.000,3424.000,3435.000
2227.918,3445.000,3431.000,3446.000
2231.273,3439.000,3458.000,3434.000
2234.625,3443.000,3441.000,3442.000
2237.978,3451.000,3428.000,3457.000
2241.329,3452.000,3444.000,3459.000
2244.679,3459.000,3442.000,3462.000
2248.026,3452.000,3457.000,3414.000
2251.373,3411.000,3452.000,3443.000
2254.718,3442.000,3425.000,3424.000
2258.062,3423.000,3438.000,3430.000
2261.404,3460.000,3457.000,3444.000
2264.747,3437.000,3481.000,3452.000
2268.085,3442.000,3437.000,3462.000
2271.424,3478.000,3456.000,3472.000
2274.761,3476.000,3444.000,3453.000
2278.096,3455.000,3482.000,3466.000
2281.431,3479.000,3466.000,3446.000
2284.763,3441.000,3445.000,3473.000
2288.096,3461.000,3452.000,3450.000
2291.426,3475.000,3433.000,3442.000
2294.755,3450.000,3459.000,3432.000
2298.082,3462.000,3449.000,3441.000
2301.409,3455.000,3453.000,3456.000
2304.734,3475.000,3446.000,3464.000
2308.059,3448.000,3445.000,3488.000
2311.380,3467.000,3475.000,3460.000
2314.702,3473.000,3478.000,3467.000
2318.021,3475.000,3459.000,3492.000
2321.340,3463.000,3461.000,3501.000
2324.656,3458.000,3478.000,3474.000
2327.973,3479.000,3468.000,3463.000
2331.286,3493.000,3476.000,3457.000
2334.598,3471.000,3467.000,3485.000
2337.911,3477.000,3482.000,3473.000
2341.222,3477.000,3481.000,3474.000
2344.531,3453.000,3457.000,3475.000
2347.837,3501.000,3478.000,3513.000
2351.144,3472.000,3511.000,3481.000
2354.449,3496.000,3494.000,3494.000
2357.753,3476.000,3466.000,3494.000
2361.055,3473.000,3474.000,3485.000
2364.356,3449.000,3483.000,3457.000
2367.656,3482.000,3475.000,3494.000
2370.955,3484.000,3469.000,3469.000
2374.252,3474.000,3472.000,3466.000
2377.547,3493.000,3489.000,3473.000
2380.842,3495.000,3487.000,3485.000
2384.135,3488.000,3490.000,3499.000
2387.426,3505.000,3511.000,3462.000
2390.717,3470.000,3499.000,3484.000
2394.006,3510.000,3472.000,3507.000
2397.295,3485.000,3495.000,3473.000
2400.580,3475.000,3466.000,3496.000
2403.865,3498.000,3477.000,3476.000
2407.149,3466.000,3481.000,3491.000
2410.431,3470.000,3501.000,3456.000
2413.713,3497.000,3470.000,3468.000
2416.992,3518.000,3465.000,3458.000
2420.272,3491.000,3512.000,3477.000
2423.549,3499.000,3482.000,3477.000
2426.825,3499.000,3497.000,3490.000
2430.100,3480.000,3493.000,3488.000
2433.373,3515.000,3495.000,3484.000
2436.644,3498.000,3466.000,3466.000
2439.916,3504.000,3488.000,3482.000
2443.185,3489.000,3459.000,3479.000
2446.454,3491.000,3503.000,3491.000
2449.720,3498.000,3493.000,3495.000
2452.987,3482.000,3485.000,3510.000
2456.250,3533.000,3523.000,3497.000
2459.512,3518.000,3506.000,3484.000
2462.774,3503.000,3496.000,3471.000
2466.036,3517.000,3498.000,3500.000
2469.294,3483.000,3500.000,3474.000
2472.550,3505.000,3500.000,3501.000
2475.808,3492.000,3499.000,3499.000
2479.063,3502.000,3487.000,3480.000
2482.316,3489.000,3514.000,3496.000
2485.569,3501.000,3498.000,3511.000
2488.821,3507.000,3491.000,3510.000
2492.070,3532.000,3494.000,3483.000
2495.319,3509.000,3498.000,3507.000
2498.566,3487.000,3518.000,3506.000
2501.813,3531.000,3501.000,3508.000
2505.057,3513.000,3498.000,3498.000
2508.300,3543.000,3534.000,3522.000
2511.543,3500.000,3497.000,3507.000
2514.784,3542.000,3525.000,3510.000
2518.022,3504.000,3503.000,3509.000
2521.262,3499.000,3533.000,3515.000
2524.498,3487.000,3502.000,3499.000
2527.734,3514.000,3501.000,3551.000
2530.969,3512.000,3518.000,3510.000
2534.203,3541.000,3489.000,3512.000
2537.433,3522.000,3513.000,3542.000
2540.663,3529.000,3523.000,3525.000
2543.893,3520.000,3488.000,3534.000
2547.120,3555.000,3545.000,3535.000
2550.348,3520.000,3495.000,3520.000
2553.573,3519.000,3531.000,3534.000
2556.798,3518.000,3514.000,3533.000
2560.020,3525.000,3545.000,3500.000
2563.243,3534.000,3523.000,3530.000
2566.461,3528.000,3528.000,3530.000
2569.681,3527.000,3535.000,3501.000
2572.899,3520.000,3522.000,3541.000
2576.116,3511.000,3523.000,3529.000
2579.330,3521.000,3527.000,3530.000
2582.544,3523.000,3536.000,3545.000
2585.757,3518.000,3538.000,3531.000
2588.969,3538.000,3532.000,3537.000
2592.179,3527.000,3568.000,3519.000
2595.387,3550.000,3531.000,3515.000
2598.596,3521.000,3538.000,3514.000
2601.800,3537.000,3528.000,3527.000
2605.007,3528.000,3528.000,3513.000
2608.210,3526.000,3524.000,3538.000
2611.413,3542.000,3531.000,3553.000
2614.613,3560.000,3536.000,3550.000
2617.815,3552.000,3547.000,3534.000
2621.013,3533.000,3555.000,3544.000
2624.210,3532.000,3549.000,3517.000
2627.406,3547.000,3537.000,3552.000
2630.602,3535.000,3541.000,3553.000
2633.795,3553.000,3574.000,3515.000
2636.988,3542.000,3552.000,3519.000
2640.178,3539.000,3528.000,3523.000
2643.369,3585.000,3559.000,3539.000
2646.556,3519.000,3562.000,3553.000
2649.744,3570.000,3516.000,3583.000
2652.930,3566.000,3532.000,3531.000
2656.116,3574.000,3558.000,3560.000
2659.299,3563.000,3562.000,3544.000
2662.481,3538.000,3563.000,3563.000
2665.662,3564.000,3520.000,3567.000
2668.842,3559.000,3553.000,3581.000
2672.021,3562.000,3540.000,3548.000
2675.197,3557.000,3548.000,3550.000
2678.374,3552.000,3587.000,3542.000
2681.548,3580.000,3556.000,3535.000
2684.723,3567.000,3559.000,3583.000
2687.894,3573.000,3524.000,3546.000
2691.067,3556.000,3564.000,3553.000
2694.235,3580.000,3553.000,3569.000
2697.404,3557.000,3575.000,3537.000
2700.571,3574.000,3559.000,3567.000
2703.738,3563.000,3574.000,3547.000
2706.903,3561.000,3573.000,3586.000
2710.067,3543.000,3564.000,3563.000
2713.229,3562.000,3567.000,3581.000
2716.388,3550.000,3569.000,3582.000
2719.549,3539.000,3555.000,3557.000
2722.707,3605.000,3563.000,3575.000
2725.865,3572.000,3531.000,3536.000
2729.020,3578.000,3585.000,3572.000
2732.176,3546.000,3587.000,3569.000
2735.329,3590.000,3563.000,3542.000
2738.483,3570.000,3541.000,3573.000
2741.633,3594.000,3579.000,3551.000
2744.784,3567.000,3580.000,3556.000
2747.932,3578.000,3535.000,3556.000
2751.080,3569.000,3578.000,3557.000
2754.225,3566.000,3566.000,3557.000
2757.371,3590.000,3548.000,3545.000
2760.514,3582.000,3558.000,3565.000
2763.657,3591.000,3573.000,3562.000
2766.798,3586.000,3581.000,3557.000
2769.938,3604.000,3586.000,3569.000
2773.077,3586.000,3586.000,3554.000
2776.215,3573.000,3578.000,3551.000
2779.351,3598.000,3581.000,3592.000
2782.485,3592.000,3604.000,3570.000
2785.620,3594.000,3587.000,3551.000
2788.752,3593.000,3562.000,3543.000
2791.885,3611.000,3574.000,3610.000
2795.014,3596.000,3563.000,3581.000
2798.144,3570.000,3563.000,3590.000
2801.271,3557.000,3609.000,3579.000
2804.398,3603.000,3590.000,3562.000
2807.523,3590.000,3584.000,3598.000
2810.648,3594.000,3602.000,5141.000
2813.771,3595.000,3593.000,3621.000
2816.893,3612.000,3605.000,3608.000
2820.013,3599.000,3588.000,3594.000
2823.133,3599.000,3573.000,3597.000
2826.250,3594.000,3599.000,3573.000
2829.368,3597.000,3618.000,3585.000
2832.482,3638.000,3604.000,3597.000
2835.596,3627.000,3612.000,3608.000
2838.710,3612.000,3590.000,3614.000
2841.821,3644.000,3592.000,3632.000
2844.933,3618.000,3592.000,3596.000
2848.041,3622.000,3626.000,3607.000
2851.150,3616.000,3594.000,3603.000
2854.258,3613.000,3628.000,3623.000
2857.364,3607.000,3609.000,3597.000
2860.468,3599.000,3647.000,3607.000
2863.572,3620.000,3615.000,3616.000
2866.673,3670.000,3623.000,3614.000
2869.776,3602.000,3624.000,3637.000
2872.875,3646.000,3620.000,3650.000
2875.974,3632.000,3643.000,3640.000
2879.070,3612.000,3655.000,3630.000
2882.168,3610.000,3616.000,3664.000
2885.262,3637.000,3621.000,3646.000
2888.356,3657.000,3630.000,3635.000
2891.449,3660.000,3661.000,3642.000
2894.541,3616.000,3641.000,3623.000
2897.630,3655.000,3623.000,3641.000
2900.719,3668.000,3655.000,3658.000
2903.807,3625.000,3647.000,3671.000
2906.894,3641.000,3640.000,3660.000
2909.980,3679.000,3657.000,3670.000
2913.064,3672.000,3640.000,3637.000
2916.147,3671.000,3638.000,3670.000
2919.228,3655.000,3647.000,3654.000
2922.309,3667.000,3666.000,3688.000
2925.389,3655.000,3676.000,3673.000
2928.468,3675.000,3662.000,3663.000
2931.543,3702.000,3662.000,3661.000
2934.620,3646.000,3699.000,3651.000
2937.695,3660.000,3693.000,3706.000
2940.768,3679.000,3672.000,3681.000
2943.840,3694.000,3680.000,6939.000
2946.911,3679.000,3645.000,3764.000
2949.981,3672.000,3684.000,3675.000
2953.049,3695.000,3692.000,3702.000
2956.117,3690.000,3686.000,3695.000
2959.185,3687.000,3692.000,3681.000
2962.249,3691.000,3698.000,3686.000
2965.312,3678.000,3668.000,3695.000
2968.376,3708.000,3657.000,3688.000
2971.437,3679.000,3722.000,3672.000
2974.498,3703.000,3673.000,3677.000
2977.557,3675.000,3717.000,3668.000
2980.616,3697.000,3685.000,3693.000
2983.672,3718.000,3726.000,3698.000
2986.728,3727.000,3699.000,3703.000
2989.781,3699.000,3693.000,3670.000
2992.836,3690.000,3736.000,3687.000
2995.887,3701.000,3721.000,3683.000
2998.939,3734.000,3722.000,3714.000
3001.989,3716.000,3716.000,3697.000
3005.038,3683.000,3719.000,3719.000
3008.084,3703.000,3709.000,3683.000
3011.132,3726.000,3707.000,3708.000
3014.176,3707.000,3712.000,3705.000
3017.219,3714.000,3662.000,3712.000
3020.262,3753.000,3715.000,3714.000
3023.303,3739.000,3723.000,3721.000
3026.345,3742.000,3752.000,3742.000
3029.383,3722.000,3734.000,3716.000
3032.422,3764.000,3737.000,3714.000
3035.458,3711.000,3704.000,3729.000
3038.494,3758.000,3776.000,3738.000
3041.528,3724.000,3715.000,3735.000
3044.563,3752.000,3748.000,3730.000
3047.594,3736.000,3731.000,3736.000
3050.626,3725.000,3769.000,3775.000
3053.655,3725.000,3715.000,3736.000
3056.684,3759.000,3731.000,3745.000
3059.711,3758.000,3734.000,3704.000
3062.739,3713.000,3727.000,3754.000
3065.763,3747.000,3771.000,3756.000
3068.787,3772.000,3773.000,3738.000
3071.810,3726.000,3724.000,3745.000
3074.832,3795.000,3786.000,3756.000
3077.852,3815.000,3744.000,3765.000
3080.870,3810.000,3773.000,3763.000
3083.890,3776.000,3784.000,3754.000
3086.907,3787.000,3764.000,3762.000
3089.923,3771.000,3798.000,3732.000
3092.937,3771.000,3787.000,3762.000
3095.952,3763.000,3748.000,3767.000
3098.964,3763.000,3798.000,3759.000
3101.975,3773.000,3784.000,3774.000
3104.985,3796.000,3767.000,3816.000
3107.995,3789.000,3772.000,3740.000
3111.002,3780.000,3763.000,3803.000
3114.009,3773.000,3820.000,3810.000
3117.014,3781.000,3809.000,3784.000
3120.020,3795.000,3777.000,3755.000
3123.022,3790.000,3781.000,3797.000
3126.024,3806.000,3814.000,3822.000
3129.025,3792.000,3772.000,3821.000
3132.023,3837.000,3787.000,3807.000
3135.023,3824.000,3794.000,3789.000
3138.020,3798.000,3816.000,3774.000
3141.018,3798.000,3795.000,3806.000
3144.012,3773.000,3829.000,3826.000
3147.006,3787.000,3795.000,3828.000
3149.999,3809.000,3807.000,3818.000
3152.991,3826.000,3812.000,3816.000
3155.982,3784.000,3823.000,3812.000
3158.971,3823.000,3824.000,3817.000
3161.960,3843.000,3801.000,3849.000
3164.947,3827.000,3824.000,3826.000
3167.933,3846.000,3841.000,3837.000
3170.918,3844.000,3828.000,3845.000
3173.901,3812.000,3853.000,3828.000
3176.884,3871.000,3834.000,3807.000
3179.865,3834.000,3815.000,3821.000
3182.844,3864.000,3840.000,3822.000
3185.825,3881.000,3815.000,3840.000
3188.804,3851.000,3862.000,3821.000
3191.781,3854.000,3850.000,3870.000
3194.755,3811.000,3857.000,3879.000
3197.731,3838.000,3839.000,3866.000
3200.704,3853.000,3886.000,3831.000
3203.677,3869.000,3820.000,3883.000
3206.647,3846.000,3868.000,3841.000
3209.618,3876.000,3855.000,3889.000
3212.586,3846.000,3852.000,3889.000
3215.555,3886.000,3866.000,3881.000
3218.521,3855.000,3901.000,3877.000
3221.487,3886.000,3851.000,3901.000
3224.451,3858.000,3885.000,3880.000
3227.415,3878.000,3890.000,3894.000
3230.377,3887.000,3907.000,3889.000
3233.338,3914.000,3894.000,3894.000
3236.298,3901.000,3882.000,3931.000
3239.257,3868.000,3883.000,3900.000
3242.215,3910.000,3899.000,3870.000
3245.171,3913.000,3907.000,3895.000
3248.127,3881.000,3879.000,3930.000
3251.081,3914.000,3894.000,3934.000
3254.035,3910.000,3915.000,3866.000
3256.986,3914.000,3929.000,3946.000
3259.937,3942.000,3918.000,3893.000
3262.887,3921.000,3896.000,3920.000
3265.836,3959.000,3895.000,3903.000
3268.783,3960.000,3933.000,3910.000
3271.730,3939.000,3964.000,3886.000
3274.675,3945.000,3910.000,3936.000
3277.621,3904.000,3951.000,3933.000
3280.562,3933.000,3920.000,3922.000
3283.505,3922.000,3917.000,3965.000
3286.446,3914.000,3930.000,3924.000
3289.387,3922.000,3943.000,3983.000
3292.324,3961.000,3969.000,3955.000
3295.261,3931.000,3944.000,3917.000
3298.198,3949.000,3968.000,3941.000
3301.134,3929.000,3961.000,3948.000
3304.068,3959.000,3924.000,3942.000
3307.000,3948.000,3953.000,3955.000
3309.933,3921.000,3947.000,3949.000
3312.863,4001.000,3990.000,3972.000
3315.794,3970.000,3991.000,3954.000
3318.722,3961.000,3957.000,3940.000
3321.650,3986.000,3998.000,3947.000
3324.577,4030.000,3959.000,3965.000
3327.502,3960.000,3961.000,3995.000
3330.425,4023.000,3978.000,4001.000
3333.350,3977.000,3997.000,3968.000
3336.272,4006.000,3955.000,3950.000
3339.193,3970.000,3980.000,3978.000
3342.112,4003.000,3996.000,4035.000
3345.032,3997.000,3976.000,3970.000
3347.948,4028.000,3982.000,3966.000
3350.866,3998.000,3958.000,4007.000
3353.781,4013.000,3956.000,4011.000
3356.694,3981.000,4011.000,4013.000
3359.608,3992.000,3992.000,4012.000
3362.521,4020.000,3991.000,4039.000
3365.431,4013.000,4027.000,4007.000
3368.341,4038.000,4014.000,4032.000
3371.250,3972.000,3964.000,4017.000
3374.158,4035.000,4025.000,3992.000
3377.065,4065.000,4020.000,4022.000
3379.969,4018.000,4023.000,4006.000
3382.875,4052.000,4031.000,4012.000
3385.777,4058.000,4033.000,4041.000
3388.681,4014.000,4016.000,4018.000
3391.581,4042.000,4029.000,4036.000
3394.482,4039.000,4043.000,4029.000
3397.380,4033.000,4046.000,4019.000
3400.279,4039.000,4028.000,4055.000
3403.176,4067.000,4035.000,4080.000
3406.072,4058.000,4068.000,4048.000
3408.966,4040.000,4027.000,4084.000
3411.860,4027.000,4084.000,4057.000
3414.752,4034.000,4080.000,4049.000
3417.643,4055.000,4089.000,4117.000
3420.533,4073.000,4066.000,4067.000
3423.421,4098.000,4031.000,4018.000
3426.311,4075.000,4088.000,4049.000
3429.197,4071.000,4029.000,4061.000
3432.084,4085.000,4022.000,4071.000
3434.967,4096.000,4092.000,4116.000
3437.852,4075.000,4078.000,4081.000
3440.735,4100.000,4078.000,4063.000
3443.617,4075.000,4102.000,4094.000
3446.497,4112.000,4100.000,4082.000
3449.377,4063.000,4077.000,4080.000
3452.255,4086.000,4119.000,4109.000
3455.133,4104.000,4057.000,4088.000
3458.008,4077.000,4086.000,4131.000
3460.884,4129.000,4108.000,4067.000
3463.758,4113.000,4080.000,4087.000
3466.630,4115.000,4083.000,4091.000
3469.502,4118.000,4130.000,4087.000
3472.374,4097.000,4112.000,4126.000
3475.244,4092.000,4132.000,4111.000
3478.111,4107.000,4061.000,4108.000
3480.979,4139.000,4103.000,4085.000
3483.846,4103.000,4094.000,4105.000
3486.712,4140.000,4117.000,4132.000
3489.576,4154.000,4135.000,4116.000
3492.439,4135.000,4085.000,4091.000
3495.301,4107.000,4139.000,4096.000
3498.162,4133.000,4137.000,4144.000
3501.023,4123.000,4165.000,4162.000
3503.882,4097.000,4113.000,4148.000
3506.740,4116.000,4166.000,4125.000
3509.597,4097.000,4155.000,4082.000
3512.452,4134.000,4120.000,4150.000
3515.308,4123.000,4155.000,4174.000
3518.161,4169.000,4160.000,4122.000
3521.015,4165.000,4125.000,4159.000
3523.865,4170.000,4133.000,4145.000
3526.714,4137.000,4135.000,4142.000
3529.565,4132.000,4163.000,4173.000
3532.413,4153.000,4163.000,4165.000
3535.260,4114.000,4184.000,4129.000
3538.107,4155.000,4164.000,4209.000
3540.952,4142.000,4186.000,4169.000
3543.796,4136.000,4173.000,4206.000
3546.640,4207.000,4226.000,4173.000
3549.481,4201.000,4196.000,4188.000
3552.322,4198.000,4181.000,4219.000
3555.162,4204.000,4198.000,4189.000
3558.001,4224.000,4181.000,4217.000
3560.838,4209.000,4226.000,4201.000
3563.676,4194.000,4224.000,4176.000
3566.511,4253.000,4224.000,4223.000
3569.347,4265.000,4238.000,4236.000
3572.179,4240.000,4228.000,4244.000
3575.012,4263.000,4260.000,4240.000
3577.843,4274.000,4287.000,4314.000
3580.674,4210.000,4261.000,4295.000
3583.503,4283.000,4231.000,4266.000
3586.331,4274.000,4320.000,4279.000
3589.158,4295.000,4315.000,4276.000
3591.984,4334.000,4311.000,4312.000
3594.810,4299.000,4305.000,4329.000
3597.633,4309.000,4360.000,4329.000
3600.458,4304.000,4329.000,4322.000
3603.278,4342.000,4323.000,4327.000
3606.100,4308.000,4298.000,4236.000
3608.920,4316.000,4308.000,4322.000
3611.739,4298.000,4334.000,4368.000
3614.557,4252.000,4318.000,4279.000
3617.374,4318.000,4294.000,4295.000
3620.189,4297.000,4297.000,4323.000
3623.004,4293.000,4271.000,4317.000
3625.818,4271.000,4280.000,4288.000
3628.630,4286.000,4332.000,4292.000
3631.442,4328.000,4327.000,4276.000