File: Raman/Silica/2025_08_22_Nat_Qtz_50X_532nm_74mW_Andor750_600gv_4500wn_3accum_5s_UnPol.csv
3862.099,1170.000,1152.000,1183.000
3863.310,1215.000,1187.000,1200.000
3864.523,1196.000,1189.000,1180.000
3865.733,1202.000,1197.000,1208.000
3866.946,1227.000,1214.000,1202.000
3868.157,1203.000,1180.000,1232.000
3869.369,1191.000,1220.000,1184.000
3870.580,1166.000,1217.000,1203.000
3871.790,1234.000,1219.000,1201.000
3873.001,1206.000,1201.000,1193.000
3874.212,1194.000,1236.000,1196.000
3875.421,1216.000,1206.000,1200.000
3876.632,1193.000,1216.000,1197.000
3877.842,1210.000,1211.000,1206.000
3879.051,1201.000,1195.000,1217.000
3880.261,1204.000,1181.000,1229.000
3881.470,1212.000,1234.000,1220.000
3882.679,1194.000,1235.000,1242.000
3883.888,1215.000,1237.000,1250.000
3885.097,1218.000,1229.000,1242.000
3886.305,1226.000,1211.000,1235.000
3887.513,1192.000,1208.000,1217.000
3888.722,1239.000,1226.000,1194.000
3889.929,1212.000,1196.000,1256.000
3891.137,1221.000,1219.000,1200.000
3892.345,1236.000,1232.000,1199.000
3893.552,1214.000,1218.000,1220.000
3894.759,1235.000,1216.000,1190.000
3895.966,1216.000,1215.000,1219.000
3897.172,1236.000,1185.000,1211.000
3898.380,1248.000,1209.000,1225.000
3899.586,1226.000,1217.000,1196.000
3900.792,1200.000,1212.000,1208.000
3901.998,1224.000,1191.000,1212.000
3903.204,1223.000,1188.000,1226.000
3904.409,1210.000,1226.000,1213.000
3905.615,1186.000,1206.000,1218.000
3906.820,1208.000,1222.000,1188.000
3908.025,1233.000,1207.000,1212.000
3909.230,1187.000,1220.000,1220.000
3910.434,1205.000,1187.000,1155.000
3911.638,1189.000,1180.000,1207.000
3912.843,1166.000,1187.000,1189.000
3914.047,1169.000,1195.000,1194.000
3915.251,1176.000,1194.000,1186.000
3916.453,1197.000,1181.000,1172.000
3917.658,1187.000,1188.000,1164.000
3918.861,1168.000,1168.000,1171.000
3920.064,1201.000,1169.000,1144.000
3921.266,1171.000,1182.000,1176.000
3922.469,1185.000,1170.000,1164.000
3923.671,1157.000,1191.000,1171.000
3924.875,1190.000,1188.000,1151.000
3926.076,1131.000,1176.000,1174.000
3927.279,1190.000,1186.000,1197.000
3928.479,1179.000,1160.000,1188.000
3929.681,1176.000,1180.000,1154.000
3930.882,1174.000,1147.000,1170.000
3932.084,1164.000,1155.000,1172.000
3933.283,1182.000,1171.000,1169.000
3934.485,1143.000,1138.000,1165.000
3935.685,1173.000,1164.000,1169.000
3936.885,1143.000,1157.000,1161.000
3938.085,1136.000,1138.000,1145.000
3939.284,1156.000,1159.000,1143.000
3940.485,1140.000,1143.000,1153.000
3941.684,1167.000,1151.000,1168.000
3942.884,1171.000,1119.000,1154.000
3944.082,1129.000,1139.000,1147.000
3945.282,1137.000,1148.000,1133.000
3946.480,1131.000,1137.000,1129.000
3947.679,1156.000,1123.000,1135.000
3948.877,1143.000,1147.000,1132.000
3950.076,1163.000,1129.000,1138.000
3951.273,1147.000,1140.000,1159.000
3952.472,1150.000,1175.000,1168.000
3953.669,1156.000,1143.000,1168.000
3954.867,1162.000,1146.000,1156.000
3956.063,1141.000,1156.000,1165.000
3957.261,1148.000,1154.000,1144.000
3958.457,1150.000,1145.000,1142.000
3959.655,1175.000,1147.000,1168.000
3960.850,1136.000,1171.000,1157.000
3962.047,1145.000,1151.000,1148.000
3963.243,1160.000,1164.000,1170.000
3964.439,1149.000,1170.000,1126.000
3965.634,1146.000,1169.000,1163.000
3966.831,1146.000,1176.000,1155.000
3968.025,1137.000,1151.000,1161.000
3969.221,1163.000,1147.000,1142.000
3970.415,1178.000,1121.000,1161.000
3971.611,1158.000,1151.000,1149.000
3972.804,1169.000,1159.000,1158.000
3974.000,1157.000,1188.000,1184.000
3975.193,1165.000,1172.000,1166.000
3976.387,1147.000,1158.000,1146.000
3977.580,1162.000,1150.000,1158.000
3978.775,1203.000,1162.000,1181.000
3979.967,1165.000,1141.000,1140.000
3981.161,1181.000,1164.000,1183.000
3982.353,1156.000,1168.000,1169.000
3983.547,1193.000,1212.000,1167.000
3984.739,1180.000,1180.000,1159.000
3985.932,1170.000,1139.000,1181.000
3987.123,1175.000,1154.000,1192.000
3988.316,1171.000,1167.000,1160.000
3989.507,1179.000,1208.000,1170.000
3990.699,1178.000,1177.000,1203.000
3991.890,1181.000,1174.000,1166.000
3993.082,1189.000,1187.000,1159.000
3994.272,1196.000,1185.000,1190.000
3995.464,1175.000,1189.000,1177.000
3996.654,1200.000,1219.000,1185.000
3997.845,1207.000,1175.000,1203.000
3999.035,1179.000,1170.000,1197.000
4000.226,1181.000,1195.000,1176.000
4001.414,1176.000,1149.000,1162.000
4002.605,1200.000,1181.000,1206.000
4003.794,1190.000,1199.000,1157.000
4004.983,1190.000,1194.000,1183.000
4006.172,1169.000,1184.000,1183.000
4007.361,1182.000,1193.000,1207.000
4008.550,1166.000,1211.000,1184.000
4009.738,1180.000,1183.000,1180.000
4010.926,1187.000,1189.000,1158.000
4012.115,1188.000,1174.000,1151.000
4013.304,1166.000,1170.000,1172.000
4014.490,1161.000,1180.000,1157.000
4015.679,1182.000,1183.000,1172.000
4016.865,1165.000,1171.000,1198.000
4018.053,1184.000,1177.000,1146.000
4019.240,1149.000,1169.000,1161.000
4020.427,1167.000,1175.000,1179.000
4021.613,1176.000,1190.000,1181.000
4022.801,1142.000,1147.000,1175.000
4023.986,1152.000,1175.000,1155.000
4025.172,1153.000,1163.000,1170.000
4026.357,1179.000,1152.000,1183.000
4027.545,1152.000,1165.000,1183.000
4028.729,1168.000,1165.000,1167.000
4029.915,1200.000,1169.000,1182.000
4031.100,1140.000,1143.000,1162.000
4032.285,1166.000,1158.000,1142.000
4033.469,1148.000,1149.000,1153.000
4034.654,1133.000,1138.000,1174.000
4035.838,1137.000,1164.000,1157.000
4037.023,1130.000,1117.000,1167.000
4038.206,1149.000,1131.000,1134.000
4039.391,1137.000,1135.000,1129.000
4040.574,1117.000,1158.000,1139.000
4041.758,1144.000,1120.000,1131.000
4042.941,1120.000,1146.000,1095.000
4044.125,1152.000,1116.000,1132.000
4045.306,1121.000,1138.000,1128.000
4046.490,1125.000,1105.000,1119.000
4047.672,1126.000,1122.000,1120.000
4048.855,1111.000,1117.000,1138.000
4050.036,1118.000,1107.000,1108.000
4051.219,1105.000,1120.000,1098.000
4052.399,1126.000,1118.000,1119.000
4053.582,1114.000,1131.000,1106.000
4054.763,1131.000,1121.000,1115.000
4055.944,1122.000,1109.000,1087.000
4057.125,1103.000,1116.000,1118.000
4058.306,1089.000,1101.000,1098.000
4059.486,1108.000,1083.000,1104.000
4060.667,1090.000,1117.000,1109.000
4061.847,1113.000,1088.000,1101.000
4063.027,1117.000,1102.000,1098.000
4064.206,1087.000,1096.000,1097.000
4065.387,1106.000,1098.000,1100.000
4066.565,1085.000,1084.000,1082.000
4067.745,1104.000,1101.000,1128.000
4068.923,1110.000,1096.000,1085.000
4070.104,1096.000,1104.000,1097.000
4071.281,1092.000,1063.000,1085.000
4072.460,1095.000,1096.000,1106.000
4073.638,1084.000,1095.000,1107.000
4074.818,1109.000,1091.000,1082.000
4075.994,1109.000,1100.000,1093.000
4077.171,1091.000,1106.000,1100.000
4078.350,1135.000,1123.000,1132.000
4079.527,1099.000,1098.000,1115.000
4080.705,1102.000,1116.000,1097.000
4081.880,1100.000,1106.000,1091.000
4083.057,1102.000,1107.000,1099.000
4084.234,1119.000,1118.000,1131.000
4085.411,1117.000,1117.000,1096.000
4086.587,1130.000,1101.000,1103.000
4087.763,1096.000,1086.000,1108.000
4088.939,1115.000,1113.000,1102.000
4090.114,1130.000,1118.000,1137.000
4091.289,1100.000,1113.000,1125.000
4092.466,1099.000,1121.000,1124.000
4093.640,1114.000,1120.000,1103.000
4094.815,1115.000,1119.000,1109.000
4095.990,1119.000,1104.000,1114.000
4097.165,1084.000,1111.000,1081.000
4098.339,1111.000,1126.000,1121.000
4099.514,1131.000,1115.000,1120.000
4100.687,1128.000,1109.000,1110.000
4101.861,1104.000,1092.000,1099.000
4103.034,1098.000,1110.000,1122.000
4104.209,1111.000,1098.000,1087.000
4105.381,1091.000,1098.000,1087.000
4106.555,1105.000,1103.000,1083.000
4107.727,1084.000,1076.000,1112.000
4108.900,1094.000,1084.000,1075.000
4110.072,1087.000,1085.000,1080.000
4111.245,1104.000,1074.000,1099.000
4112.416,1098.000,1078.000,1087.000
4113.588,1093.000,1094.000,1101.000
4114.760,1111.000,1083.000,1081.000
4115.932,1105.000,1081.000,1121.000
4117.103,1092.000,1090.000,1091.000
4118.275,1101.000,1084.000,1099.000
4119.445,1105.000,1108.000,1107.000
4120.616,1120.000,1077.000,1087.000
4121.786,1078.000,1091.000,1072.000
4122.958,1097.000,1094.000,1091.000
4124.128,1094.000,1114.000,1111.000
4125.298,1103.000,1106.000,1105.000
4126.468,1108.000,1095.000,1073.000
4127.637,1093.000,1093.000,1104.000
4128.806,1082.000,1116.000,1113.000
4129.976,1108.000,1123.000,1102.000
4131.145,1116.000,1104.000,1117.000
4132.315,1086.000,1111.000,1101.000
4133.483,1107.000,1091.000,1111.000
4134.651,1120.000,1094.000,1104.000
4135.819,1109.000,1099.000,1093.000
4136.988,1101.000,1087.000,1093.000
4138.156,1119.000,1102.000,1101.000
4139.324,1095.000,1123.000,1099.000
4140.491,1092.000,1118.000,1098.000
4141.660,1101.000,1079.000,1110.000
4142.826,1119.000,1111.000,1126.000
4143.994,1081.000,1099.000,1111.000
4145.160,1088.000,1114.000,1113.000
4146.327,1087.000,1091.000,1107.000
4147.493,1081.000,1102.000,1099.000
4148.659,1077.000,1106.000,1094.000
4149.826,1085.000,1102.000,1116.000
4150.992,1090.000,1081.000,1076.000
4152.157,1090.000,1095.000,1086.000
4153.322,1077.000,1099.000,1091.000
4154.489,1091.000,1105.000,1071.000
4155.653,1116.000,1064.000,1062.000
4156.818,1067.000,1088.000,1084.000
4157.983,1104.000,1100.000,1070.000
4159.149,1068.000,1085.000,1082.000
4160.312,1058.000,1071.000,1082.000
4161.477,1112.000,1092.000,1096.000
4162.640,1106.000,1091.000,1070.000
4163.805,1079.000,1074.000,1103.000
4164.968,1069.000,1077.000,1072.000
4166.133,1075.000,1082.000,1058.000
4167.296,1087.000,1091.000,1072.000
4168.459,1069.000,1089.000,1088.000
4169.621,1045.000,1063.000,1058.000
4170.784,1079.000,1039.000,1053.000
4171.946,1058.000,1042.000,1069.000
4173.109,1083.000,1060.000,1065.000
4174.271,1056.000,1065.000,1075.000
4175.434,1087.000,1057.000,1088.000
4176.596,1076.000,1062.000,1082.000
4177.758,1060.000,1062.000,1090.000
4178.918,1047.000,1047.000,1071.000
4180.080,1057.000,1050.000,1056.000
4181.241,1067.000,1062.000,1063.000
4182.403,1096.000,1071.000,1046.000
4183.563,1064.000,1068.000,1042.000
4184.724,1064.000,1053.000,1047.000
4185.884,1049.000,1044.000,1044.000
4187.045,1058.000,1030.000,1030.000
4188.204,1031.000,1025.000,1047.000
4189.364,1052.000,1053.000,1042.000
4190.524,1052.000,1056.000,1043.000
4191.683,1043.000,1035.000,1046.000
4192.843,1039.000,1038.000,1042.000
4194.002,1035.000,1059.000,1052.000
4195.161,1042.000,1045.000,1051.000
4196.320,1019.000,1036.000,1040.000
4197.479,1018.000,1047.000,1028.000
4198.637,1032.000,1047.000,1046.000
4199.794,1046.000,1042.000,1038.000
4200.954,1031.000,1021.000,1054.000
4202.111,1028.000,1039.000,1030.000
4203.269,1038.000,1029.000,1041.000
4204.426,1034.000,1031.000,1045.000
4205.583,1031.000,1031.000,1024.000
4206.741,1005.000,1010.000,1029.000
4207.898,1009.000,1037.000,1030.000
4209.054,1042.000,1052.000,1029.000
4210.211,1025.000,1029.000,1005.000
4211.367,1027.000,1013.000,1023.000
4212.523,1009.000,1031.000,1019.000
4213.679,1019.000,1050.000,1021.000
4214.835,1033.000,1026.000,1020.000
4215.990,1062.000,1025.000,1006.000
4217.147,1049.000,1021.000,1046.000
4218.301,1036.000,1020.000,1032.000
4219.455,1026.000,1023.000,1046.000
4220.611,1024.000,1024.000,1021.000
4221.765,1036.000,1024.000,1013.000
4222.920,993.000,1018.000,1032.000
4224.074,1033.000,1025.000,999.000
4225.228,1013.000,1014.000,1002.000
4226.382,1029.000,1026.000,1011.000
4227.537,1018.000,1008.000,1009.000
4228.689,1033.000,1048.000,1004.000
4229.843,1029.000,1030.000,1035.000
4230.997,1015.000,1002.000,1032.000
4232.150,1021.000,1012.000,1009.000
4233.302,1029.000,1020.000,1036.000
4234.456,1012.000,1023.000,990.000
4235.608,1018.000,1029.000,1040.000
4236.761,1021.000,1010.000,1022.000
4237.912,1015.000,1011.000,1009.000
4239.064,994.000,1020.000,1011.000
4240.216,1000.000,1019.000,1033.000
4241.368,1027.000,1002.000,1007.000
4242.518,1018.000,1025.000,1051.000
4243.671,1007.000,1007.000,1028.000
4244.821,1028.000,1055.000,984.000
4245.972,1038.000,1033.000,1013.000
4247.123,1015.000,1002.000,1024.000
4248.274,1023.000,1017.000,1012.000
4249.424,1030.000,1022.000,1012.000
4250.574,1018.000,1024.000,1011.000
4251.723,1047.000,1016.000,1029.000
4252.875,1023.000,1032.000,1016.000
4254.024,1030.000,1027.000,1022.000
4255.174,1017.000,1029.000,1018.000
4256.322,1046.000,1029.000,1040.000
4257.472,1034.000,1026.000,1028.000
4258.620,1043.000,1026.000,1025.000
4259.769,1049.000,1046.000,1014.000
4260.917,1020.000,1044.000,1047.000
4262.066,1058.000,1044.000,1033.000
4263.214,1039.000,1043.000,1026.000
4264.363,1055.000,1023.000,1056.000
4265.509,1035.000,1020.000,1044.000
4266.658,1034.000,1046.000,1039.000
4267.805,1056.000,1047.000,1060.000
4268.953,1054.000,1047.000,1053.000
4270.098,1041.000,1051.000,1033.000
4271.246,1043.000,1057.000,1027.000
4272.393,1028.000,1048.000,1060.000
4273.540,1054.000,1041.000,1039.000
4274.685,1070.000,1064.000,1058.000
4275.832,1036.000,1049.000,1025.000
4276.977,1060.000,1050.000,1079.000
4278.124,1075.000,1083.000,1061.000
4279.270,1070.000,1062.000,1046.000
4280.415,1053.000,1079.000,1058.000
4281.559,1048.000,1071.000,1070.000
4282.705,1084.000,1042.000,1071.000
4283.849,1084.000,1066.000,1065.000
4284.995,1075.000,1067.000,1060.000
4286.139,1050.000,1097.000,1075.000
4287.284,1085.000,1081.000,1079.000
4288.428,1080.000,1065.000,1074.000
4289.571,1095.000,1081.000,1060.000
4290.716,1095.000,1101.000,1130.000
4291.859,1132.000,1098.000,1119.000
4293.003,1121.000,1091.000,1115.000
4294.145,1117.000,1103.000,1093.000
4295.290,1115.000,1081.000,1118.000
4296.432,1118.000,1117.000,1135.000
4297.575,1155.000,1127.000,1127.000
4298.717,1128.000,1156.000,1156.000
4299.860,1135.000,1135.000,1159.000
4301.001,1182.000,1186.000,1146.000
4302.144,1185.000,1169.000,1180.000
4303.285,1159.000,1173.000,1166.000
4304.427,1184.000,1198.000,1184.000
4305.568,1197.000,1211.000,1183.000
4306.710,1195.000,1227.000,1219.000
4307.851,1225.000,1240.000,1244.000
4308.992,1229.000,1263.000,1246.000
4310.132,1252.000,1275.000,1261.000
4311.273,1257.000,1266.000,1261.000
4312.413,1277.000,1278.000,1270.000
4313.554,1287.000,1317.000,1305.000
4314.694,1332.000,1325.000,1333.000
4315.834,1335.000,1328.000,1346.000
4316.973,1373.000,1316.000,1344.000
4318.113,1360.000,1381.000,1347.000
4319.252,1409.000,1386.000,1387.000
4320.392,1372.000,1417.000,1409.000
4321.530,1416.000,1429.000,1427.000
4322.669,1472.000,1446.000,1447.000
4323.808,1472.000,1492.000,1504.000
4324.946,1507.000,1496.000,1505.000
4326.084,1541.000,1589.000,1526.000
4327.223,1571.000,1607.000,1577.000
4328.360,1635.000,1609.000,1611.000
4329.498,1651.000,1659.000,1710.000
4330.636,1723.000,1696.000,1755.000
4331.773,1751.000,1788.000,1754.000
4332.910,1848.000,1803.000,1843.000
4334.048,1901.000,1854.000,1868.000
4335.184,1980.000,1950.000,1942.000
4336.321,1974.000,2010.000,1991.000
4337.457,2099.000,2110.000,2136.000
4338.594,2239.000,2222.000,2238.000
4339.729,2300.000,2323.000,2339.000
4340.866,2395.000,2429.000,2384.000
4342.001,2609.000,2538.000,2516.000
4343.137,2676.000,2650.000,2754.000
4344.272,2881.000,2849.000,2829.000
4345.407,3020.000,3051.000,2981.000
4346.543,3300.000,3226.000,3223.000
4347.678,3478.000,3472.000,3482.000
4348.811,3762.000,3775.000,3721.000
4349.947,3994.000,3997.000,3969.000
4351.080,4370.000,4295.000,4355.000
4352.215,4733.000,4707.000,4689.000
4353.348,5200.000,5186.000,5139.000
4354.482,5542.000,5608.000,5513.000
4355.616,6166.000,6211.000,6155.000
4356.750,6754.000,6765.000,6792.000
4357.883,7493.000,7279.000,7451.000
4359.015,8111.000,8267.000,8180.000
4360.149,9105.000,8998.000,8956.000
4361.281,9921.000,10002.000,9940.000
4362.415,10909.000,10978.000,10886.000
4363.546,12062.000,11853.000,12030.000
4364.679,13051.000,13021.000,12955.000
4365.810,13905.000,13967.000,13923.000
4366.942,14638.000,14550.000,14640.000
4368.074,15281.000,14996.000,15317.000
4369.205,15711.000,15738.000,15648.000
4370.337,15772.000,15883.000,16078.000
4371.468,15832.000,15910.000,15845.000
4372.599,15523.000,15614.000,15587.000
4373.730,15021.000,14953.000,15104.000
4374.859,14587.000,14551.000,14661.000
4375.991,14091.000,14091.000,14089.000
4377.120,13556.000,13559.000,13461.000
4378.251,13087.000,13091.000,13273.000
4379.380,12856.000,12825.000,12869.000
4380.510,12596.000,12568.000,12656.000
4381.639,12580.000,12595.000,12546.000
4382.770,12652.000,12659.000,12458.000
4383.898,12872.000,12964.000,12854.000
4385.028,13333.000,13191.000,13215.000
4386.156,13653.000,13706.000,13646.000
4387.286,14425.000,14374.000,14505.000
4388.414,15226.000,15145.000,15004.000
4389.542,16087.000,16238.000,16049.000
4390.670,17076.000,17064.000,17181.000
4391.798,18218.000,18390.000,18153.000
4392.925,19493.000,19482.000,19413.000
4394.054,20857.000,20889.000,20839.000
4395.180,22082.000,21974.000,21936.000
4396.308,23250.000,23040.000,23369.000
4397.435,23865.000,23865.000,23807.000
4398.562,24434.000,24447.000,24283.000
4399.688,24546.000,24403.000,24331.000
4400.815,24275.000,24234.000,24382.000
4401.941,23764.000,23967.000,23880.000
4403.068,22997.000,23090.000,22926.000
4404.193,21979.000,22112.000,22064.000
4405.319,21055.000,20983.000,21005.000
4406.444,19827.000,19688.000,19659.000
4407.571,18639.000,18374.000,18507.000
4408.695,17366.000,17255.000,17266.000
4409.821,16076.000,15988.000,16094.000
4410.946,14852.000,14792.000,14853.000
4412.070,14016.000,13882.000,13960.000
4413.195,12973.000,12925.000,12988.000
4414.320,11972.000,12070.000,12120.000
4415.443,11232.000,11265.000,11224.000
4416.569,10431.000,10495.000,10603.000
4417.691,9886.000,9836.000,9929.000
4418.815,9357.000,9280.000,9315.000
4419.939,8771.000,8820.000,8874.000
4421.062,8311.000,8319.000,8279.000
4422.186,7792.000,7833.000,7772.000
4423.308,7361.000,7423.000,7327.000
4424.431,7039.000,7090.000,6948.000
4425.555,6611.000,6600.000,6651.000
4426.676,6327.000,6273.000,6223.000
4427.798,6014.000,6029.000,5934.000
4428.920,5814.000,5673.000,5728.000
4430.041,5503.000,5343.000,5458.000
4431.165,5281.000,5267.000,5305.000
4432.286,5029.000,5007.000,5027.000
4433.407,4777.000,4810.000,4814.000
4434.528,4664.000,4661.000,4658.000
4435.650,4464.000,4542.000,4481.000
4436.770,4361.000,4331.000,4380.000
4437.891,4260.000,4193.000,4186.000
4439.011,4084.000,4054.000,4086.000
4440.132,3962.000,3888.000,3979.000
4441.252,3817.000,3835.000,3863.000
4442.372,3647.000,3678.000,3712.000
4443.492,3588.000,3551.000,3545.000
4444.612,3424.000,3443.000,3393.000
4445.731,3325.000,3373.000,3334.000
4446.851,3225.000,3284.000,3247.000
4447.969,3198.000,3187.000,3121.000
4449.089,3097.000,3040.000,3084.000
4450.207,3014.000,2971.000,3007.000
4451.327,2962.000,2952.000,2920.000
4452.444,2897.000,2915.000,2936.000
4453.563,2905.000,2830.000,2865.000
4454.681,2826.000,2825.000,2789.000
4455.799,2777.000,2758.000,2766.000
4456.917,2727.000,2722.000,2748.000
4458.035,2761.000,2783.000,2673.000
4459.151,2667.000,2644.000,2641.000
4460.270,2676.000,2663.000,2624.000
4461.386,2630.000,2622.000,2629.000
4462.504,2589.000,2631.000,2553.000
4463.619,2557.000,2595.000,2603.000
4464.737,2588.000,2524.000,2550.000
4465.852,2498.000,2536.000,2527.000
4466.970,2473.000,2472.000,2449.000
4468.085,2496.000,2433.000,2488.000
4469.201,2455.000,2499.000,2424.000
4470.316,2446.000,2423.000,2431.000
4471.432,2444.000,2420.000,2470.000
4472.547,2391.000,2440.000,2418.000
4473.662,2395.000,2377.000,2347.000
4474.777,2361.000,2314.000,2335.000
4475.893,2335.000,2347.000,2443.000
4477.007,2334.000,2343.000,2371.000
4478.122,2332.000,2341.000,2340.000
4479.235,2331.000,2365.000,2307.000
4480.350,2257.000,2284.000,2302.000
4481.463,2295.000,2310.000,2253.000
4482.577,2292.000,2291.000,2262.000
4483.690,2253.000,2286.000,2250.000
4484.804,2230.000,2264.000,2241.000
4485.917,2201.000,2232.000,2254.000
4487.031,2267.000,2217.000,2222.000
4488.143,2203.000,2212.000,2214.000
4489.257,2153.000,2185.000,2143.000
4490.369,2173.000,2185.000,2180.000
4491.481,2113.000,2123.000,2120.000
4492.594,2082.000,2114.000,2103.000
4493.705,2152.000,2103.000,2139.000
4494.817,2084.000,2120.000,2078.000
4495.928,2074.000,2076.000,2060.000
4497.041,2107.000,2067.000,2094.000
4498.151,2088.000,2091.000,2048.000
4499.263,2029.000,2039.000,2117.000
4500.374,2070.000,2107.000,2058.000
4501.484,2091.000,2081.000,2111.000
4502.595,2107.000,2052.000,2079.000
4503.706,2127.000,2127.000,2114.000
4504.815,2119.000,2086.000,2106.000
4505.927,2088.000,2128.000,2170.000
4507.036,2115.000,2123.000,2123.000
4508.146,2129.000,2139.000,2075.000
4509.255,2117.000,2111.000,2132.000
4510.366,2130.000,2097.000,2089.000
4511.474,2096.000,2099.000,2099.000
4512.583,2035.000,2089.000,2073.000
4513.692,2048.000,2061.000,2076.000
4514.801,2011.000,2042.000,2074.000
4515.909,1998.000,2011.000,2001.000
4517.018,2004.000,1995.000,1997.000
4518.126,1962.000,1970.000,1996.000
4519.234,1934.000,1967.000,1953.000
4520.341,1972.000,1935.000,1957.000
4521.450,1948.000,1944.000,1927.000
4522.557,1935.000,1896.000,1952.000
4523.665,1931.000,1888.000,1897.000
4524.772,1939.000,1905.000,1917.000
4525.879,1919.000,1900.000,1936.000
4526.985,1831.000,1962.000,1869.000
4528.093,1884.000,1877.000,1922.000
4529.199,1891.000,1895.000,1894.000
4530.305,1899.000,1915.000,1880.000
4531.411,1883.000,1856.000,1930.000
4532.518,1934.000,1916.000,1878.000
4533.623,1917.000,1904.000,1902.000
4534.729,1875.000,1931.000,1901.000
4535.834,1919.000,1920.000,1931.000
4536.940,1939.000,1965.000,1909.000
4538.045,1980.000,1953.000,1916.000
4539.151,1946.000,1923.000,1931.000
4540.254,1951.000,1949.000,1979.000
4541.360,2017.000,1993.000,2015.000
4542.464,2003.000,2055.000,2066.000
4543.568,2026.000,2054.000,2060.000
4544.672,2059.000,2087.000,2053.000
4545.777,2088.000,2083.000,2122.000
4546.879,2129.000,2118.000,2121.000
4547.984,2134.000,2099.000,2144.000
4549.087,2111.000,2114.000,2083.000
4550.191,2088.000,2099.000,2125.000
4551.294,2121.000,2083.000,2076.000
4552.397,2101.000,2077.000,2087.000
4553.499,2087.000,2048.000,2065.000
4554.601,2025.000,2015.000,2034.000
4555.704,2007.000,1998.000,1977.000
4556.807,1939.000,1958.000,1965.000
4557.909,1914.000,1964.000,1914.000
4559.010,1916.000,1856.000,1917.000
4560.112,1876.000,1867.000,1859.000
4561.215,1861.000,1876.000,1849.000
4562.315,1789.000,1803.000,1824.000
4563.415,1727.000,1788.000,1783.000
4564.517,1727.000,1785.000,1765.000
4565.618,1701.000,1731.000,1716.000
4566.719,1671.000,1700.000,1711.000
4567.819,1683.000,1704.000,1668.000
4568.920,1690.000,1645.000,1707.000
4570.019,1662.000,1688.000,1647.000
4571.120,1649.000,1621.000,1665.000
4572.219,1638.000,1602.000,1625.000
4573.320,1634.000,1646.000,1652.000
4574.419,1620.000,1631.000,1609.000
4575.519,1619.000,1599.000,1655.000
4576.616,1629.000,1617.000,1632.000
4577.717,1591.000,1614.000,1611.000
4578.814,1647.000,1615.000,1625.000
4579.914,1628.000,1547.000,1589.000
4581.012,1576.000,1619.000,1611.000
4582.111,1630.000,1625.000,1636.000
4583.208,1657.000,1641.000,1616.000
4584.307,1622.000,1659.000,1620.000
4585.405,1629.000,1656.000,1638.000
4586.502,1639.000,1649.000,1649.000
4587.599,1625.000,1647.000,1665.000
4588.697,1653.000,1628.000,1642.000
4589.793,1649.000,1641.000,1669.000
4590.891,1653.000,1693.000,1649.000
4591.988,1675.000,1708.000,1695.000
4593.085,1675.000,1711.000,1686.000
4594.181,1703.000,1694.000,1702.000
4595.278,1697.000,1691.000,1684.000
4596.373,1738.000,1716.000,1691.000
4597.470,1693.000,1697.000,1716.000
4598.565,1693.000,1726.000,1700.000
4599.661,1747.000,1717.000,1701.000
4600.756,1750.000,1719.000,1702.000
4601.852,1728.000,1779.000,1778.000
4602.946,1750.000,1700.000,1744.000
4604.042,1748.000,1765.000,1770.000
4605.136,1730.000,1744.000,1759.000
4606.231,1741.000,1786.000,1780.000
4607.326,1761.000,1826.000,1817.000
4608.420,1771.000,1830.000,1806.000
4609.513,1815.000,1844.000,1820.000
4610.609,1822.000,1801.000,1823.000
4611.702,1842.000,1840.000,1852.000
4612.796,1827.000,1847.000,1844.000
4613.888,1857.000,1873.000,1855.000
4614.982,1846.000,1881.000,1874.000
4616.074,1846.000,1869.000,1844.000
4617.169,1882.000,1908.000,1869.000
4618.261,1859.000,1883.000,1896.000
4619.354,1858.000,1855.000,1915.000
4620.446,1867.000,1863.000,1849.000
4621.536,1853.000,1843.000,1853.000
4622.630,1834.000,1847.000,1868.000
4623.723,1804.000,1835.000,1838.000
4624.814,1840.000,1857.000,1816.000
4625.904,1818.000,1843.000,1820.000
4626.996,1834.000,1858.000,1849.000
4628.088,1855.000,1858.000,1851.000
4629.179,1814.000,1784.000,1775.000
4630.269,1833.000,1800.000,1826.000
4631.361,1780.000,1802.000,1826.000
4632.450,1820.000,1817.000,1786.000
4633.541,1818.000,1795.000,1854.000
4634.631,1846.000,1799.000,1819.000
4635.722,1804.000,1816.000,1775.000
4636.811,1801.000,1774.000,1820.000
4637.901,1790.000,1772.000,1824.000
4638.991,1785.000,1772.000,1779.000
4640.080,1760.000,1801.000,1791.000
4641.169,1771.000,1792.000,1763.000
4642.258,1770.000,1765.000,1767.000
4643.347,1794.000,1769.000,1791.000
4644.437,1793.000,1799.000,1834.000
4645.524,1820.000,1801.000,1790.000
4646.613,1781.000,1819.000,1735.000
4647.701,1800.000,1798.000,1767.000
4648.789,1791.000,1785.000,1743.000
4649.877,1813.000,1783.000,1780.000
4650.965,1757.000,1804.000,1792.000
4652.051,1777.000,1778.000,1767.000
4653.140,1743.000,1795.000,1779.000
4654.226,1772.000,1771.000,1762.000
4655.314,1747.000,1739.000,1765.000
4656.401,1783.000,1781.000,1787.000
4657.488,1777.000,1812.000,1759.000
4658.574,1779.000,1753.000,1763.000
4659.660,1759.000,1795.000,1797.000
4660.746,1820.000,1778.000,1725.000
4661.832,1808.000,1785.000,1770.000
4662.919,1780.000,1744.000,1780.000
4664.005,1760.000,1771.000,1819.000
4665.090,1790.000,1758.000,1794.000
4666.175,1788.000,1765.000,1809.000
4667.260,1790.000,1810.000,1786.000
4668.346,1790.000,1760.000,1782.000
4669.430,1759.000,1785.000,1779.000
4670.515,1782.000,1793.000,1782.000
4671.599,1791.000,1806.000,1799.000
4672.684,1757.000,1768.000,1782.000
4673.767,1716.000,1750.000,1770.000
4674.852,1758.000,1742.000,1762.000
4675.936,1754.000,1756.000,1760.000
4677.020,1758.000,1716.000,1704.000
4678.103,1720.000,1691.000,1730.000
4679.186,1700.000,1713.000,1707.000
4680.269,1695.000,1730.000,1702.000
4681.353,1670.000,1679.000,1703.000
4682.436,1686.000,1701.000,1706.000
4683.518,1692.000,1728.000,1667.000
4684.601,1653.000,1655.000,1661.000
4685.684,1678.000,1654.000,1704.000
4686.765,1634.000,1635.000,1641.000
4687.847,1660.000,1625.000,1633.000
4688.929,1656.000,1644.000,1653.000
4690.012,1665.000,1717.000,1654.000
4691.092,1651.000,1674.000,1641.000
4692.174,1608.000,1590.000,1642.000
4693.255,1627.000,1621.000,1641.000
4694.336,1656.000,1608.000,1606.000
4695.417,1644.000,1627.000,1641.000
4696.497,1578.000,1620.000,1596.000
4697.578,1595.000,1636.000,1577.000
4698.658,1568.000,1609.000,1620.000
4699.738,1583.000,1596.000,1588.000
4700.819,1555.000,1589.000,1603.000
4701.899,1604.000,1588.000,1577.000
4702.978,1541.000,1557.000,1555.000
4704.059,1555.000,1541.000,1516.000
4705.137,1576.000,1539.000,1575.000
4706.217,1544.000,1515.000,1525.000
4707.295,1541.000,1495.000,1489.000
4708.375,1525.000,1486.000,1511.000
4709.453,1524.000,1501.000,1527.000
4710.532,1499.000,1524.000,1511.000
4711.610,1475.000,1472.000,1513.000
4712.688,1465.000,1475.000,1495.000
4713.767,1480.000,1485.000,1483.000
4714.845,1488.000,1463.000,1487.000
4715.923,1461.000,1473.000,1486.000
4717.001,1491.000,1461.000,1461.000
4718.077,1468.000,1454.000,1439.000
4719.155,1453.000,1455.000,1424.000
4720.231,1479.000,1450.000,1456.000
4721.309,1464.000,1496.000,1452.000
4722.385,1447.000,1508.000,1475.000
4723.463,1446.000,1496.000,1490.000
4724.538,1435.000,1446.000,1472.000
4725.615,1459.000,1488.000,1443.000
4726.691,1451.000,1447.000,1467.000
4727.767,1448.000,1486.000,1449.000
4728.842,1441.000,1459.000,1507.000
4729.918,1444.000,1497.000,1468.000
4730.994,1475.000,1453.000,1469.000
4732.069,1490.000,1489.000,1487.000
4733.144,1472.000,1499.000,1486.000
4734.220,1483.000,1481.000,1461.000
4735.293,1499.000,1482.000,1481.000
4736.369,1474.000,1463.000,1511.000
4737.442,1465.000,1481.000,1472.000
4738.518,1470.000,1485.000,1479.000
4739.591,1491.000,1513.000,1463.000
4740.665,1471.000,1483.000,1461.000
4741.739,1476.000,1516.000,1467.000
4742.813,1503.000,1504.000,1518.000
4743.885,1514.000,1514.000,1511.000
4744.960,1538.000,1496.000,1536.000
4746.032,1506.000,1507.000,1519.000
4747.106,1534.000,1518.000,1558.000
4748.178,1542.000,1557.000,1519.000
4749.251,1557.000,1548.000,1544.000
4750.323,1540.000,1569.000,1604.000
4751.397,1563.000,1618.000,1570.000
4752.468,1603.000,1604.000,1558.000
4753.539,1622.000,1614.000,1607.000
4754.612,1582.000,1604.000,1602.000
4755.684,1615.000,1632.000,1580.000
4756.755,1624.000,1686.000,1605.000
4757.825,1621.000,1680.000,1665.000
4758.897,1646.000,1603.000,1655.000
4759.967,1662.000,1612.000,1645.000
4761.039,1656.000,1689.000,1667.000
4762.109,1653.000,1668.000,1671.000
4763.180,1651.000,1644.000,1678.000
4764.250,1686.000,1679.000,1684.000
4765.321,1697.000,1691.000,1692.000
4766.390,1721.000,1709.000,1746.000
4767.461,1735.000,1708.000,1734.000
4768.529,1706.000,1743.000,1724.000
4769.600,1732.000,1731.000,1718.000
4770.669,1730.000,1739.000,1763.000
4771.739,1760.000,1759.000,1772.000
4772.807,1776.000,1738.000,1763.000
4773.876,1780.000,1788.000,1755.000
4774.945,1813.000,1796.000,1798.000
4776.014,1791.000,1790.000,1767.000
4777.081,1789.000,1768.000,1793.000
4778.150,1798.000,1789.000,1794.000
4779.218,1806.000,1799.000,1814.000
4780.286,1816.000,1807.000,1850.000
4781.354,1802.000,1814.000,1780.000
4782.422,1798.000,1812.000,1836.000
4783.489,1816.000,1797.000,1802.000
4784.556,1851.000,1831.000,1838.000
4785.623,1876.000,1874.000,1829.000
4786.690,1840.000,1808.000,1864.000
4787.757,1825.000,1807.000,1822.000
4788.824,1868.000,1823.000,1837.000
4789.890,1833.000,1826.000,1839.000
4790.957,1837.000,1823.000,1822.000
4792.022,1834.000,1862.000,1806.000
4793.088,1839.000,1871.000,1816.000
4794.154,1840.000,1798.000,1838.000
4795.220,1824.000,1860.000,1858.000
4796.285,1821.000,1838.000,1844.000
4797.352,1839.000,1880.000,1833.000
4798.416,1816.000,1851.000,1857.000
4799.481,1828.000,1852.000,1793.000
4800.546,1851.000,1808.000,1827.000
4801.611,1867.000,1850.000,1864.000
4802.675,1828.000,1821.000,1829.000
4803.739,1815.000,1862.000,1790.000
4804.803,1879.000,1846.000,1850.000
4805.868,1845.000,1837.000,1786.000
4806.931,1841.000,1847.000,1827.000
4807.995,1790.000,1820.000,1809.000
4809.058,1851.000,1811.000,1778.000
4810.122,1844.000,1786.000,1789.000
4811.185,1830.000,1829.000,1811.000
4812.249,1819.000,1807.000,1847.000
4813.311,1806.000,1803.000,1813.000
4814.374,1800.000,1840.000,1804.000
4815.437,1807.000,1825.000,1827.000
4816.500,1770.000,1835.000,1804.000
4817.561,1796.000,1833.000,1779.000
4818.623,1807.000,1791.000,1830.000
4819.685,1801.000,1802.000,1802.000
4820.748,1844.000,1811.000,1767.000
4821.808,1788.000,1810.000,1815.000
4822.869,1762.000,1758.000,1795.000
4823.931,1780.000,1780.000,1771.000
4824.992,1802.000,1752.000,1774.000
4826.053,1788.000,1770.000,1730.000
4827.113,1741.000,1752.000,1751.000
4828.175,1724.000,1738.000,1746.000
4829.234,1761.000,1752.000,1745.000
4830.296,1737.000,1744.000,1715.000
4831.355,1756.000,1718.000,1704.000
4832.416,1698.000,1710.000,1706.000
4833.475,1692.000,1699.000,1723.000
4834.535,1688.000,1683.000,1702.000
4835.594,1703.000,1687.000,1730.000
4836.653,1700.000,1666.000,1647.000
4837.713,1696.000,1675.000,1664.000
4838.772,1681.000,1670.000,1663.000
4839.830,1646.000,1670.000,1697.000
4840.890,1677.000,1664.000,1638.000
4841.948,1629.000,1658.000,1666.000
4843.006,1635.000,1614.000,1678.000
4844.064,1656.000,1637.000,1656.000
4845.123,1631.000,1649.000,1627.000
4846.180,1663.000,1648.000,1651.000
4847.239,1631.000,1655.000,1618.000
4848.296,1637.000,1627.000,1616.000
4849.353,1629.000,1611.000,1602.000
4850.410,1633.000,1619.000,1616.000
4851.468,1608.000,1614.000,1616.000
4852.524,1632.000,1625.000,1606.000
4853.581,1593.000,1597.000,1587.000
4854.637,1598.000,1575.000,1578.000
4855.694,1597.000,1600.000,1593.000
4856.750,1574.000,1596.000,1567.000
4857.807,1538.000,1585.000,1564.000
4858.863,1539.000,1548.000,1610.000
4859.919,1590.000,1562.000,1593.000
4860.974,1549.000,1570.000,1582.000
4862.030,1553.000,1540.000,1575.000
4863.084,1539.000,1548.000,1571.000
4864.140,1532.000,1547.000,1567.000
4865.195,1546.000,1527.000,1570.000
4866.251,1542.000,1510.000,1514.000
4867.304,1540.000,1527.000,1558.000
4868.360,1522.000,1504.000,1512.000
4869.414,1486.000,1526.000,1540.000
4870.469,1527.000,1523.000,1516.000
4871.522,1492.000,1507.000,1507.000
4872.577,1524.000,1484.000,1509.000
4873.629,1497.000,1522.000,1527.000
4874.684,1524.000,1501.000,1493.000
4875.736,1478.000,1510.000,1509.000
4876.790,1539.000,1506.000,1500.000
4877.842,1514.000,1521.000,1506.000
4878.895,1468.000,1492.000,1517.000
4879.948,1459.000,1495.000,1456.000
4881.002,1518.000,1513.000,1470.000
4882.054,1502.000,1452.000,1476.000
4883.105,1506.000,1458.000,1489.000
4884.158,1443.000,1459.000,1493.000
4885.210,1468.000,1484.000,1486.000
4886.261,1495.000,1493.000,1461.000
4887.313,1488.000,1473.000,1474.000
4888.365,1435.000,1443.000,1465.000
4889.416,1470.000,1493.000,1480.000
4890.467,1452.000,1451.000,1484.000
4891.518,1487.000,1416.000,1471.000
4892.570,1442.000,1479.000,1463.000
4893.620,1448.000,1466.000,1473.000
4894.671,1432.000,1460.000,1461.000
4895.720,1428.000,1427.000,1460.000
4896.771,1469.000,1429.000,1414.000
4897.821,1436.000,1439.000,1440.000
4898.872,1416.000,1427.000,1434.000
4899.920,1418.000,1418.000,1424.000
4900.970,1424.000,1428.000,1406.000
4902.019,1420.000,1425.000,1399.000
4903.069,1426.000,1441.000,1436.000
4904.118,1417.000,1438.000,1418.000
4905.167,1379.000,1438.000,1384.000
4906.216,1407.000,1409.000,1427.000
4907.265,1418.000,1413.000,1403.000
4908.313,1389.000,1407.000,1382.000
4909.362,1408.000,1370.000,1365.000
4910.409,1393.000,1377.000,1425.000
4911.458,1360.000,1415.000,1382.000
4912.506,1391.000,1378.000,1360.000
4913.554,1375.000,1386.000,1380.000
4914.600,1363.000,1396.000,1395.000
4915.649,1393.000,1407.000,1407.000
4916.696,1385.000,1397.000,1387.000
4917.744,1374.000,1369.000,1402.000
4918.789,1411.000,1401.000,1387.000
4919.837,1394.000,1382.000,1362.000
4920.883,1365.000,1379.000,1395.000
4921.930,1380.000,1357.000,1343.000
4922.975,1383.000,1389.000,1358.000
4924.022,1365.000,1338.000,1357.000
4925.067,1342.000,1335.000,1338.000
4926.114,1354.000,1346.000,1353.000
4927.159,1332.000,1337.000,1333.000
4928.205,1333.000,1344.000,1343.000
4929.250,1326.000,1295.000,1314.000
4930.296,1327.000,1322.000,1321.000
4931.340,1325.000,1320.000,1312.000
4932.385,1298.000,1287.000,1301.000
4933.429,1304.000,1323.000,1311.000
4934.475,1279.000,1323.000,1288.000
4935.519,1310.000,1308.000,1315.000
4936.563,1291.000,1323.000,1305.000
4937.608,1289.000,1296.000,1323.000
4938.652,1306.000,1285.000,1295.000
4939.695,1291.000,1287.000,1300.000
4940.739,1253.000,1284.000,1292.000
4941.782,1264.000,1280.000,1259.000
4942.824,1254.000,1276.000,1278.000
4943.868,1263.000,1270.000,1291.000
4944.911,1252.000,1236.000,1242.000
4945.955,1288.000,1245.000,1261.000
4946.996,1246.000,1243.000,1269.000
4948.040,1238.000,1272.000,1246.000
4949.083,1267.000,1215.000,1261.000
4950.123,1247.000,1243.000,1250.000
4951.165,1259.000,1246.000,1226.000
4952.207,1216.000,1242.000,1242.000
4953.249,1245.000,1236.000,1257.000
4954.291,1212.000,1226.000,1188.000
4955.332,1231.000,1227.000,1196.000
4956.374,1238.000,1225.000,1234.000
4957.414,1245.000,1213.000,1244.000
4958.455,1216.000,1196.000,1241.000
4959.496,1189.000,1237.000,1209.000
4960.537,1221.000,1233.000,1174.000
4961.577,1205.000,1208.000,1223.000
4962.618,1218.000,1192.000,1216.000
4963.658,1183.000,1206.000,1214.000
4964.699,1194.000,1219.000,1221.000
4965.737,1177.000,1215.000,1164.000
4966.778,1177.000,1190.000,1190.000
4967.816,1171.000,1188.000,1188.000
4968.857,1203.000,1195.000,1224.000
4969.895,1172.000,1200.000,1179.000
4970.935,1217.000,1170.000,1176.000
4971.973,1208.000,1182.000,1178.000
4973.013,1155.000,1173.000,1181.000
4974.050,1160.000,1178.000,1204.000
4975.090,1143.000,1200.000,1172.000
4976.127,1183.000,1183.000,1182.000
4977.165,1194.000,1179.000,1174.000
4978.204,1162.000,1146.000,1156.000
4979.241,1169.000,1165.000,1150.000
4980.278,1164.000,1172.000,1159.000
4981.317,1169.000,1161.000,1176.000
4982.354,1142.000,1161.000,1184.000
4983.391,1166.000,1162.000,1187.000
4984.427,1127.000,1149.000,1144.000
4985.466,1163.000,1167.000,1160.000
4986.502,1187.000,1150.000,1139.000
4987.539,1153.000,1155.000,1143.000
4988.574,1149.000,1138.000,1143.000
4989.611,1168.000,1155.000,1150.000
4990.646,1143.000,1131.000,1142.000
4991.684,1146.000,1138.000,1147.000
4992.719,1142.000,1162.000,1181.000
4993.755,1168.000,1122.000,1139.000
4994.790,1135.000,1131.000,1125.000
4995.826,1143.000,1152.000,1142.000
4996.861,1149.000,1120.000,1134.000
4997.896,1142.000,1141.000,1137.000
4998.930,1164.000,1157.000,1111.000
4999.965,1117.000,1156.000,1136.000
5000.999,1143.000,1154.000,1127.000
5002.034,1141.000,1157.000,1145.000
5003.068,1128.000,1119.000,1145.000
5004.103,1119.000,1134.000,1134.000
5005.137,1155.000,1142.000,1153.000
5006.169,1123.000,1134.000,1158.000
5007.203,1141.000,1151.000,1150.000