File: Raman/Silica/2025_08_22_Nat_Qtz_50X_532nm_74mW_Andor750_600gv_0wn_3accum_5s_UnPol.csv
-1133.215,639.000,639.000,643.000
-1131.024,643.000,637.000,647.000
-1128.838,644.000,641.000,639.000
-1126.649,639.000,639.000,646.000
-1124.463,643.000,638.000,642.000
-1122.274,646.000,645.000,639.000
-1120.090,638.000,644.000,643.000
-1117.904,648.000,644.000,644.000
-1115.718,636.000,644.000,641.000
-1113.534,642.000,642.000,639.000
-1111.350,640.000,640.000,643.000
-1109.166,645.000,642.000,644.000
-1106.982,640.000,633.000,646.000
-1104.798,645.000,639.000,647.000
-1102.617,647.000,642.000,644.000
-1100.435,642.000,638.000,641.000
-1098.253,644.000,641.000,650.000
-1096.072,638.000,647.000,645.000
-1093.892,638.000,645.000,639.000
-1091.711,648.000,640.000,644.000
-1089.531,642.000,646.000,638.000
-1087.352,639.000,647.000,643.000
-1085.175,646.000,639.000,639.000
-1082.996,641.000,640.000,641.000
-1080.819,643.000,641.000,645.000
-1078.640,643.000,642.000,643.000
-1076.465,640.000,639.000,649.000
-1074.288,639.000,640.000,644.000
-1072.111,642.000,642.000,647.000
-1069.936,640.000,639.000,641.000
-1067.762,644.000,642.000,645.000
-1065.587,645.000,637.000,645.000
-1063.415,645.000,641.000,641.000
-1061.240,642.000,643.000,641.000
-1059.068,634.000,642.000,644.000
-1056.896,648.000,647.000,643.000
-1054.723,643.000,641.000,643.000
-1052.551,643.000,646.000,645.000
-1050.381,641.000,645.000,646.000
-1048.211,646.000,644.000,638.000
-1046.041,644.000,647.000,644.000
-1043.871,648.000,643.000,643.000
-1041.701,642.000,651.000,641.000
-1039.533,644.000,640.000,646.000
-1037.363,643.000,646.000,647.000
-1035.196,639.000,647.000,650.000
-1033.030,642.000,648.000,645.000
-1030.863,649.000,639.000,642.000
-1028.697,640.000,647.000,645.000
-1026.530,643.000,641.000,641.000
-1024.367,648.000,642.000,648.000
-1022.202,648.000,647.000,640.000
-1020.036,643.000,652.000,643.000
-1017.873,640.000,643.000,638.000
-1015.710,640.000,639.000,646.000
-1013.547,641.000,640.000,647.000
-1011.384,645.000,640.000,647.000
-1009.221,644.000,638.000,647.000
-1007.061,644.000,642.000,644.000
-1004.900,646.000,645.000,645.000
-1002.739,637.000,645.000,635.000
-1000.579,648.000,643.000,640.000
-998.420,647.000,645.000,639.000
-996.260,639.000,644.000,642.000
-994.101,644.000,645.000,643.000
-991.943,644.000,649.000,640.000
-989.784,650.000,648.000,639.000
-987.628,644.000,639.000,639.000
-985.470,641.000,638.000,639.000
-983.314,646.000,651.000,642.000
-981.158,642.000,646.000,639.000
-979.002,646.000,643.000,647.000
-976.848,638.000,646.000,645.000
-974.692,639.000,646.000,646.000
-972.541,639.000,653.000,647.000
-970.385,647.000,642.000,643.000
-968.234,642.000,655.000,641.000
-966.080,647.000,642.000,637.000
-963.929,645.000,640.000,643.000
-961.777,646.000,642.000,645.000
-959.626,651.000,635.000,639.000
-957.475,642.000,649.000,648.000
-955.326,643.000,640.000,646.000
-953.174,645.000,641.000,643.000
-951.025,640.000,642.000,648.000
-948.876,646.000,644.000,645.000
-946.729,645.000,639.000,642.000
-944.580,639.000,647.000,641.000
-942.431,646.000,647.000,645.000
-940.285,637.000,646.000,644.000
-938.140,648.000,645.000,645.000
-935.994,649.000,642.000,637.000
-933.847,642.000,645.000,644.000
-931.703,639.000,646.000,643.000
-929.558,640.000,647.000,642.000
-927.414,642.000,639.000,648.000
-925.269,639.000,634.000,638.000
-923.125,644.000,644.000,642.000
-920.983,648.000,646.000,643.000
-918.841,639.000,637.000,647.000
-916.699,645.000,645.000,648.000
-914.557,648.000,643.000,639.000
-912.417,644.000,639.000,650.000
-910.277,644.000,646.000,645.000
-908.135,642.000,639.000,649.000
-905.996,643.000,647.000,647.000
-903.858,650.000,643.000,646.000
-901.719,644.000,650.000,640.000
-899.581,643.000,640.000,644.000
-897.444,649.000,633.000,645.000
-895.306,646.000,643.000,646.000
-893.169,652.000,639.000,643.000
-891.034,642.000,647.000,644.000
-888.897,644.000,643.000,647.000
-886.762,644.000,643.000,645.000
-884.627,636.000,641.000,642.000
-882.494,651.000,644.000,645.000
-880.359,638.000,639.000,644.000
-878.226,646.000,648.000,650.000
-876.093,648.000,648.000,640.000
-873.961,641.000,643.000,648.000
-871.828,642.000,647.000,644.000
-869.697,648.000,640.000,644.000
-867.565,643.000,645.000,643.000
-865.434,642.000,649.000,646.000
-863.304,642.000,644.000,651.000
-861.174,643.000,647.000,642.000
-859.045,650.000,635.000,649.000
-856.915,643.000,648.000,646.000
-854.787,643.000,638.000,644.000
-852.659,639.000,648.000,649.000
-850.533,643.000,635.000,631.000
-848.405,647.000,641.000,645.000
-846.277,647.000,641.000,646.000
-844.154,642.000,646.000,645.000
-842.026,639.000,644.000,643.000
-839.902,648.000,650.000,648.000
-837.776,643.000,650.000,639.000
-835.653,646.000,640.000,650.000
-833.530,643.000,639.000,651.000
-831.406,650.000,646.000,645.000
-829.283,639.000,647.000,641.000
-827.159,642.000,648.000,646.000
-825.038,645.000,644.000,643.000
-822.917,643.000,642.000,650.000
-820.794,646.000,645.000,649.000
-818.675,641.000,647.000,641.000
-816.554,650.000,639.000,654.000
-814.435,650.000,639.000,642.000
-812.314,643.000,643.000,644.000
-810.195,646.000,653.000,645.000
-808.076,652.000,649.000,643.000
-805.962,648.000,645.000,639.000
-803.844,652.000,646.000,647.000
-801.727,649.000,648.000,643.000
-799.611,654.000,648.000,645.000
-797.494,647.000,644.000,644.000
-795.378,637.000,648.000,648.000
-793.261,647.000,643.000,650.000
-791.147,645.000,643.000,650.000
-789.036,654.000,643.000,656.000
-786.921,653.000,647.000,651.000
-784.807,654.000,651.000,660.000
-782.693,652.000,646.000,646.000
-780.582,645.000,651.000,652.000
-778.470,645.000,651.000,650.000
-776.358,652.000,658.000,650.000
-774.246,658.000,640.000,652.000
-772.137,645.000,646.000,652.000
-770.027,654.000,648.000,650.000
-767.918,646.000,645.000,643.000
-765.808,644.000,649.000,647.000
-763.699,643.000,653.000,650.000
-761.590,647.000,647.000,643.000
-759.482,652.000,639.000,651.000
-757.375,644.000,648.000,651.000
-755.270,650.000,648.000,640.000
-753.163,644.000,647.000,640.000
-751.056,645.000,643.000,647.000
-748.951,650.000,641.000,644.000
-746.844,650.000,643.000,641.000
-744.740,647.000,641.000,648.000
-742.637,650.000,647.000,650.000
-740.532,643.000,644.000,650.000
-738.430,654.000,648.000,645.000
-736.327,646.000,644.000,652.000
-734.225,640.000,637.000,637.000
-732.122,643.000,639.000,644.000
-730.021,648.000,647.000,636.000
-727.920,643.000,648.000,646.000
-725.819,645.000,643.000,648.000
-723.718,646.000,646.000,645.000
-721.621,643.000,646.000,645.000
-719.522,649.000,646.000,655.000
-717.422,641.000,645.000,646.000
-715.324,652.000,640.000,646.000
-713.225,646.000,642.000,646.000
-711.128,639.000,647.000,644.000
-709.030,649.000,650.000,641.000
-706.934,650.000,647.000,646.000
-704.839,650.000,643.000,651.000
-702.744,641.000,644.000,650.000
-700.648,653.000,642.000,646.000
-698.553,649.000,639.000,649.000
-696.459,644.000,653.000,645.000
-694.364,647.000,643.000,646.000
-692.271,642.000,652.000,649.000
-690.180,643.000,644.000,639.000
-688.087,651.000,648.000,659.000
-685.995,651.000,647.000,644.000
-683.903,650.000,646.000,653.000
-681.811,647.000,655.000,636.000
-679.720,648.000,648.000,650.000
-677.630,650.000,644.000,653.000
-675.540,651.000,650.000,642.000
-673.450,650.000,647.000,649.000
-671.364,655.000,646.000,648.000
-669.274,651.000,647.000,644.000
-667.187,645.000,654.000,650.000
-665.099,649.000,641.000,648.000
-663.011,651.000,650.000,646.000
-660.924,646.000,648.000,650.000
-658.838,643.000,648.000,644.000
-656.754,644.000,649.000,650.000
-654.669,647.000,644.000,643.000
-652.584,655.000,646.000,650.000
-650.499,648.000,645.000,649.000
-648.415,648.000,644.000,646.000
-646.331,638.000,649.000,644.000
-644.248,650.000,644.000,651.000
-642.165,647.000,644.000,645.000
-640.085,649.000,652.000,645.000
-638.002,646.000,651.000,651.000
-635.920,645.000,654.000,650.000
-633.840,642.000,643.000,641.000
-631.758,649.000,647.000,651.000
-629.679,649.000,651.000,641.000
-627.599,645.000,650.000,643.000
-625.520,648.000,651.000,638.000
-623.443,639.000,646.000,648.000
-621.365,647.000,646.000,649.000
-619.287,655.000,644.000,642.000
-617.209,645.000,652.000,652.000
-615.132,648.000,651.000,642.000
-613.055,648.000,651.000,654.000
-610.980,647.000,646.000,653.000
-608.904,646.000,658.000,654.000
-606.830,650.000,645.000,650.000
-604.756,648.000,648.000,649.000
-602.681,646.000,647.000,651.000
-600.607,648.000,643.000,644.000
-598.534,645.000,650.000,649.000
-596.460,648.000,650.000,641.000
-594.388,658.000,651.000,654.000
-592.316,645.000,649.000,641.000
-590.246,645.000,645.000,650.000
-588.175,650.000,649.000,653.000
-586.104,644.000,652.000,648.000
-584.033,649.000,647.000,640.000
-581.963,654.000,653.000,647.000
-579.893,650.000,647.000,652.000
-577.824,647.000,658.000,651.000
-575.756,647.000,646.000,650.000
-573.689,639.000,643.000,658.000
-571.622,644.000,654.000,649.000
-569.554,648.000,644.000,650.000
-567.488,657.000,651.000,650.000
-565.422,657.000,650.000,648.000
-563.355,648.000,651.000,656.000
-561.290,648.000,639.000,650.000
-559.225,649.000,650.000,650.000
-557.162,653.000,650.000,645.000
-555.098,648.000,650.000,656.000
-553.034,652.000,647.000,646.000
-550.970,642.000,656.000,653.000
-548.907,654.000,647.000,643.000
-546.845,655.000,654.000,651.000
-544.782,648.000,658.000,653.000
-542.721,645.000,652.000,642.000
-540.662,658.000,652.000,657.000
-538.602,657.000,656.000,644.000
-536.541,650.000,652.000,652.000
-534.481,649.000,647.000,654.000
-532.421,653.000,655.000,647.000
-530.363,652.000,659.000,656.000
-528.304,652.000,659.000,653.000
-526.245,656.000,651.000,652.000
-524.191,656.000,650.000,659.000
-522.134,662.000,656.000,651.000
-520.077,656.000,661.000,660.000
-518.020,659.000,658.000,656.000
-515.964,655.000,652.000,662.000
-513.909,662.000,659.000,662.000
-511.853,653.000,659.000,668.000
-509.799,670.000,657.000,665.000
-507.747,662.000,664.000,663.000
-505.693,658.000,674.000,665.000
-503.640,666.000,666.000,667.000
-501.588,660.000,660.000,666.000
-499.535,655.000,668.000,667.000
-497.483,672.000,671.000,659.000
-495.431,666.000,666.000,666.000
-493.380,674.000,659.000,661.000
-491.331,670.000,674.000,668.000
-489.281,658.000,669.000,667.000
-487.231,667.000,663.000,667.000
-485.182,668.000,658.000,679.000
-483.133,668.000,672.000,670.000
-481.084,676.000,674.000,680.000
-479.037,695.000,678.000,675.000
-476.989,692.000,675.000,680.000
-474.944,685.000,691.000,692.000
-472.897,695.000,694.000,691.000
-470.850,691.000,697.000,694.000
-468.805,714.000,717.000,703.000
-466.760,715.000,726.000,716.000
-464.714,747.000,748.000,737.000
-462.670,769.000,761.000,757.000
-460.626,787.000,774.000,802.000
-458.584,818.000,813.000,822.000
-456.541,870.000,892.000,909.000
-454.498,977.000,968.000,993.000
-452.456,1178.000,1168.000,1157.000
-450.414,1500.000,1479.000,1495.000
-448.372,1923.000,1901.000,1921.000
-446.331,2065.000,2075.000,2055.000
-444.290,1737.000,1756.000,1767.000
-442.252,1323.000,1299.000,1338.000
-440.212,1053.000,1024.000,1049.000
-438.173,895.000,887.000,886.000
-436.133,828.000,831.000,819.000
-434.095,785.000,778.000,797.000
-432.057,782.000,773.000,782.000
-430.019,739.000,746.000,741.000
-427.982,718.000,719.000,712.000
-425.948,701.000,698.000,694.000
-423.911,680.000,686.000,689.000
-421.874,668.000,679.000,668.000
-419.840,677.000,676.000,670.000
-417.805,666.000,668.000,674.000
-415.770,661.000,658.000,665.000
-413.736,660.000,654.000,672.000
-411.702,667.000,670.000,665.000
-409.671,660.000,658.000,666.000
-407.638,664.000,665.000,659.000
-405.605,662.000,663.000,656.000
-403.573,657.000,662.000,659.000
-401.541,661.000,664.000,664.000
-399.510,657.000,658.000,658.000
-397.480,659.000,655.000,662.000
-395.449,653.000,663.000,653.000
-393.421,659.000,657.000,659.000
-391.392,663.000,661.000,664.000
-389.363,658.000,673.000,659.000
-387.334,686.000,686.000,692.000
-385.306,721.000,718.000,726.000
-383.278,708.000,698.000,701.000
-381.250,675.000,673.000,683.000
-379.223,666.000,665.000,671.000
-377.200,669.000,665.000,667.000
-375.173,661.000,664.000,663.000
-373.148,655.000,651.000,661.000
-371.122,659.000,662.000,652.000
-369.098,658.000,653.000,655.000
-367.073,657.000,653.000,650.000
-365.050,655.000,664.000,656.000
-363.027,644.000,656.000,659.000
-361.006,659.000,654.000,649.000
-358.982,647.000,654.000,659.000
-356.960,658.000,652.000,655.000
-354.938,666.000,657.000,647.000
-352.917,658.000,654.000,663.000
-350.896,661.000,656.000,661.000
-348.875,661.000,651.000,663.000
-346.855,667.000,665.000,651.000
-344.838,660.000,670.000,673.000
-342.819,673.000,673.000,663.000
-340.801,686.000,688.000,698.000
-338.782,719.000,716.000,714.000
-336.763,691.000,694.000,682.000
-334.746,667.000,663.000,659.000
-332.729,655.000,652.000,660.000
-330.712,653.000,662.000,653.000
-328.698,659.000,659.000,656.000
-326.683,654.000,647.000,659.000
-324.667,645.000,657.000,652.000
-322.653,657.000,659.000,654.000
-320.637,651.000,657.000,655.000
-318.623,657.000,650.000,647.000
-316.609,659.000,658.000,658.000
-314.599,660.000,655.000,663.000
-312.586,654.000,654.000,662.000
-310.573,649.000,660.000,648.000
-308.562,654.000,655.000,659.000
-306.550,652.000,653.000,649.000
-304.538,660.000,660.000,659.000
-302.528,663.000,649.000,660.000
-300.517,662.000,657.000,652.000
-298.507,655.000,663.000,666.000
-296.500,647.000,653.000,663.000
-294.492,664.000,658.000,663.000
-292.482,662.000,651.000,653.000
-290.474,662.000,669.000,663.000
-288.466,658.000,655.000,656.000
-286.459,663.000,667.000,659.000
-284.452,662.000,658.000,662.000
-282.447,666.000,665.000,664.000
-280.441,657.000,666.000,661.000
-278.436,657.000,663.000,671.000
-276.431,660.000,666.000,665.000
-274.426,674.000,665.000,662.000
-272.422,665.000,665.000,682.000
-270.417,666.000,668.000,672.000
-268.413,676.000,669.000,677.000
-266.411,671.000,674.000,663.000
-264.410,669.000,678.000,670.000
-262.408,682.000,680.000,666.000
-260.406,676.000,683.000,681.000
-258.404,693.000,685.000,686.000
-256.404,699.000,692.000,691.000
-254.403,715.000,714.000,724.000
-252.403,754.000,747.000,758.000
-250.405,846.000,849.000,837.000
-248.406,935.000,914.000,922.000
-246.406,870.000,845.000,862.000
-244.409,778.000,767.000,781.000
-242.410,759.000,750.000,734.000
-240.412,733.000,728.000,749.000
-238.416,731.000,730.000,738.000
-236.418,738.000,736.000,741.000
-234.421,746.000,745.000,747.000
-232.428,733.000,759.000,743.000
-230.433,750.000,740.000,763.000
-228.438,764.000,757.000,754.000
-226.442,769.000,767.000,760.000
-224.448,785.000,789.000,778.000
-222.454,796.000,786.000,802.000
-220.461,807.000,796.000,805.000
-218.470,833.000,823.000,835.000
-216.477,845.000,845.000,841.000
-214.485,891.000,883.000,889.000
-212.493,898.000,942.000,896.000
-210.501,947.000,962.000,925.000
-208.511,968.000,987.000,989.000
-206.520,1065.000,1062.000,1058.000
-204.529,1142.000,1147.000,1175.000
-202.542,1246.000,1236.000,1202.000
-200.553,1338.000,1331.000,1347.000
-198.564,1416.000,1441.000,1455.000
-196.576,1531.000,1575.000,1554.000
-194.588,1671.000,1652.000,1663.000
-192.600,1751.000,1749.000,1737.000
-190.613,1794.000,1815.000,1782.000
-188.626,1707.000,1716.000,1730.000
-186.641,1640.000,1613.000,1641.000
-184.655,1550.000,1521.000,1523.000
-182.670,1428.000,1428.000,1448.000
-180.685,1330.000,1343.000,1344.000
-178.700,1210.000,1238.000,1209.000
-176.715,1141.000,1130.000,1145.000
-174.732,1035.000,1039.000,1044.000
-172.748,981.000,984.000,969.000
-170.768,933.000,948.000,964.000
-168.784,917.000,910.000,900.000
-166.803,895.000,867.000,891.000
-164.820,860.000,862.000,867.000
-162.839,828.000,825.000,836.000
-160.859,806.000,808.000,816.000
-158.877,815.000,791.000,789.000
-156.897,787.000,778.000,789.000
-154.920,780.000,779.000,780.000
-152.940,771.000,770.000,775.000
-150.961,769.000,763.000,774.000
-148.983,775.000,756.000,749.000
-147.005,751.000,760.000,741.000
-145.027,755.000,756.000,759.000
-143.049,746.000,748.000,754.000
-141.073,763.000,759.000,746.000
-139.098,771.000,773.000,780.000
-137.123,785.000,776.000,794.000
-135.147,795.000,815.000,788.000
-133.171,798.000,789.000,806.000
-131.197,817.000,818.000,811.000
-129.223,806.000,813.000,804.000
-127.248,824.000,806.000,816.000
-125.275,835.000,832.000,838.000
-123.303,831.000,866.000,848.000
-121.331,875.000,895.000,888.000
-119.359,1016.000,1029.000,1011.000
-117.387,1379.000,1407.000,1376.000
-115.415,2163.000,2167.000,2170.000
-113.444,2496.000,2582.000,2563.000
-111.473,1920.000,1861.000,1883.000
-109.503,1259.000,1267.000,1287.000
-107.534,988.000,991.000,985.000
-105.566,848.000,842.000,857.000
-103.596,820.000,795.000,809.000
-101.628,774.000,782.000,783.000
-99.659,755.000,730.000,751.000
-97.692,723.000,729.000,727.000
-95.724,722.000,720.000,722.000
-93.757,744.000,735.000,751.000
-91.793,739.000,731.000,739.000
-89.827,707.000,700.000,704.000
-87.860,699.000,699.000,693.000
-85.895,710.000,707.000,706.000
-83.930,698.000,696.000,702.000
-81.966,700.000,694.000,710.000
-80.001,717.000,713.000,719.000
-78.038,719.000,722.000,732.000
-76.077,716.000,712.000,708.000
-74.114,686.000,686.000,690.000
-72.151,691.000,685.000,681.000
-70.188,741.000,733.000,733.000
-68.227,744.000,738.000,729.000
-66.266,684.000,688.000,691.000
-64.305,690.000,696.000,697.000
-62.344,724.000,735.000,728.000
-60.386,726.000,739.000,719.000
-58.427,736.000,721.000,745.000
-56.468,710.000,715.000,728.000
-54.508,722.000,721.000,717.000
-52.550,716.000,710.000,708.000
-50.592,683.000,693.000,686.000
-48.634,704.000,717.000,703.000
-46.677,795.000,787.000,818.000
-44.723,743.000,750.000,741.000
-42.767,698.000,703.000,698.000
-40.810,695.000,693.000,694.000
-38.855,716.000,721.000,721.000
-36.899,737.000,749.000,747.000
-34.945,766.000,749.000,751.000
-32.990,709.000,709.000,723.000
-31.037,747.000,757.000,752.000
-29.085,742.000,732.000,736.000
-27.132,702.000,717.000,704.000
-25.179,736.000,728.000,736.000
-23.226,805.000,804.000,799.000
-21.274,769.000,759.000,773.000
-19.323,720.000,738.000,731.000
-17.372,728.000,729.000,716.000
-15.421,749.000,773.000,759.000
-13.473,794.000,795.000,778.000
-11.523,767.000,767.000,770.000
-9.573,769.000,774.000,765.000
-7.625,836.000,828.000,820.000
-5.676,957.000,986.000,948.000
-3.727,1169.000,1160.000,1155.000
-1.779,1426.000,1446.000,1449.000
0.168,1726.000,1749.000,1763.000
2.114,1985.000,2052.000,2086.000
4.060,2909.000,2992.000,2977.000
6.007,8423.000,8455.000,8316.000
7.952,10508.000,10486.000,10432.000
9.897,6016.000,5894.000,5731.000
11.842,3410.000,3379.000,3274.000
13.788,3025.000,3008.000,2961.000
15.732,2793.000,2852.000,2843.000
17.674,2995.000,3094.000,3015.000
19.617,5755.000,5885.000,5845.000
21.560,5947.000,5908.000,6094.000
23.503,2314.000,2297.000,2244.000
25.444,1427.000,1434.000,1442.000
27.387,1058.000,1074.000,1074.000
29.328,870.000,859.000,884.000
31.270,786.000,786.000,780.000
33.208,758.000,764.000,754.000
35.149,740.000,734.000,722.000
37.088,742.000,744.000,758.000
39.028,784.000,784.000,786.000
40.967,774.000,794.000,787.000
42.906,738.000,736.000,735.000
44.844,722.000,711.000,720.000
46.781,761.000,754.000,750.000
48.717,800.000,795.000,798.000
50.654,788.000,773.000,788.000
52.590,735.000,720.000,723.000
54.527,736.000,730.000,716.000
56.462,795.000,785.000,778.000
58.398,726.000,740.000,744.000
60.333,738.000,762.000,757.000
62.268,779.000,777.000,770.000
64.200,752.000,757.000,767.000
66.134,727.000,717.000,714.000
68.068,705.000,707.000,692.000
70.000,729.000,731.000,730.000
71.933,839.000,820.000,833.000
73.865,779.000,788.000,779.000
75.798,707.000,714.000,716.000
77.727,708.000,712.000,712.000
79.658,753.000,745.000,752.000
81.588,726.000,737.000,740.000
83.518,754.000,756.000,757.000
85.448,757.000,775.000,760.000
87.379,778.000,774.000,770.000
89.308,744.000,737.000,754.000
91.235,704.000,720.000,699.000
93.164,718.000,719.000,711.000
95.090,791.000,769.000,779.000
97.018,770.000,757.000,753.000
98.944,707.000,707.000,709.000
100.871,716.000,716.000,701.000
102.798,744.000,742.000,743.000
104.723,769.000,766.000,767.000
106.649,752.000,756.000,770.000
108.572,739.000,721.000,728.000
110.496,751.000,732.000,732.000
112.421,741.000,733.000,749.000
114.345,733.000,735.000,727.000
116.268,742.000,743.000,751.000
118.191,809.000,790.000,796.000
120.115,811.000,804.000,806.000
122.037,772.000,765.000,778.000
123.959,793.000,791.000,784.000
125.878,828.000,815.000,816.000
127.799,864.000,864.000,892.000
129.720,918.000,927.000,941.000
131.641,1046.000,1034.000,1042.000
133.560,1315.000,1310.000,1299.000
135.480,1905.000,1929.000,1931.000
137.399,3180.000,3146.000,3110.000
139.316,4040.000,4068.000,4027.000
141.235,3091.000,3080.000,3098.000
143.152,1859.000,1831.000,1833.000
145.069,1288.000,1301.000,1305.000
146.987,1095.000,1094.000,1095.000
148.904,999.000,1015.000,1006.000
150.820,974.000,1011.000,998.000
152.736,965.000,972.000,963.000
154.651,950.000,960.000,956.000
156.565,963.000,954.000,937.000
158.480,966.000,943.000,970.000
160.394,913.000,925.000,960.000
162.308,899.000,911.000,902.000
164.222,887.000,893.000,893.000
166.136,887.000,883.000,898.000
168.049,883.000,869.000,875.000
169.959,857.000,879.000,869.000
171.870,877.000,861.000,872.000
173.782,883.000,877.000,871.000
175.694,888.000,885.000,874.000
177.605,904.000,910.000,886.000
179.515,914.000,930.000,908.000
181.426,969.000,934.000,953.000
183.335,980.000,967.000,961.000
185.244,999.000,1000.000,1011.000
187.151,1029.000,1026.000,1020.000
189.060,1085.000,1070.000,1069.000
190.968,1150.000,1142.000,1126.000
192.875,1221.000,1207.000,1199.000
194.783,1268.000,1269.000,1313.000
196.690,1363.000,1402.000,1355.000
198.597,1471.000,1483.000,1461.000
200.500,1601.000,1603.000,1614.000
202.406,1795.000,1799.000,1804.000
204.312,2027.000,2080.000,1994.000
206.218,2317.000,2296.000,2276.000
208.122,2582.000,2575.000,2561.000
210.027,2897.000,2816.000,2801.000
211.930,3148.000,3097.000,3053.000
213.834,3360.000,3407.000,3368.000
215.737,3520.000,3487.000,3536.000
217.637,3487.000,3493.000,3536.000
219.540,3311.000,3378.000,3381.000
221.441,3098.000,3168.000,3158.000
223.343,2928.000,2943.000,2962.000
225.245,2669.000,2650.000,2648.000
227.144,2411.000,2351.000,2387.000
229.046,2180.000,2133.000,2133.000
230.943,1901.000,1939.000,1949.000
232.843,1735.000,1713.000,1747.000
234.742,1594.000,1609.000,1602.000
236.640,1485.000,1477.000,1490.000
238.539,1412.000,1408.000,1388.000
240.438,1331.000,1306.000,1306.000
242.335,1215.000,1223.000,1257.000
244.232,1187.000,1171.000,1177.000
246.127,1102.000,1150.000,1111.000
248.024,1094.000,1039.000,1066.000
249.920,1034.000,1019.000,1033.000
251.815,1009.000,1033.000,1014.000
253.710,1015.000,1010.000,987.000
255.606,970.000,1006.000,956.000
257.500,967.000,970.000,964.000
259.395,951.000,939.000,940.000
261.286,937.000,956.000,956.000
263.180,959.000,931.000,944.000
265.073,940.000,932.000,949.000
266.965,946.000,944.000,965.000
268.857,1031.000,1009.000,1023.000
270.749,1140.000,1123.000,1152.000
272.641,1455.000,1432.000,1454.000
274.531,1576.000,1565.000,1574.000
276.421,1334.000,1311.000,1321.000
278.310,1026.000,1020.000,1007.000
280.201,893.000,896.000,887.000
282.090,834.000,832.000,836.000
283.980,801.000,811.000,792.000
285.868,771.000,767.000,775.000
287.756,772.000,763.000,759.000
289.644,751.000,748.000,753.000
291.530,749.000,754.000,756.000
293.417,738.000,739.000,747.000
295.304,738.000,733.000,735.000
297.190,719.000,733.000,730.000
299.076,721.000,730.000,715.000
300.962,715.000,721.000,723.000
302.847,709.000,720.000,722.000
304.733,718.000,709.000,712.000
306.615,708.000,709.000,713.000
308.499,714.000,711.000,709.000
310.383,705.000,703.000,708.000
312.266,706.000,695.000,711.000
314.149,703.000,689.000,707.000
316.032,711.000,699.000,698.000
317.913,710.000,704.000,705.000
319.796,699.000,704.000,696.000
321.675,701.000,706.000,705.000
323.556,705.000,700.000,703.000
325.437,705.000,713.000,709.000
327.318,701.000,691.000,699.000
329.198,701.000,699.000,714.000
331.077,689.000,695.000,706.000
332.955,702.000,688.000,685.000
334.834,691.000,697.000,699.000
336.711,702.000,694.000,691.000
338.589,691.000,699.000,703.000
340.467,689.000,684.000,700.000
342.344,691.000,696.000,697.000
344.221,693.000,686.000,701.000
346.098,682.000,693.000,681.000
347.973,700.000,694.000,683.000
349.850,697.000,689.000,686.000
351.723,678.000,693.000,685.000
353.597,690.000,690.000,700.000
355.473,683.000,699.000,704.000
357.346,703.000,693.000,706.000
359.220,714.000,710.000,707.000
361.093,757.000,743.000,750.000
362.966,903.000,873.000,907.000
364.839,1052.000,1039.000,1034.000
366.709,963.000,924.000,951.000
368.581,793.000,827.000,800.000
370.453,768.000,763.000,756.000
372.324,742.000,744.000,740.000
374.194,725.000,732.000,724.000
376.065,722.000,722.000,716.000
377.935,718.000,720.000,708.000
379.805,712.000,717.000,711.000
381.672,709.000,704.000,717.000
383.541,714.000,703.000,709.000
385.410,702.000,705.000,708.000
387.277,713.000,709.000,704.000
389.146,709.000,710.000,705.000
391.013,703.000,705.000,712.000
392.880,702.000,707.000,702.000
394.746,714.000,702.000,705.000
396.610,711.000,725.000,719.000
398.476,721.000,727.000,728.000
400.341,748.000,746.000,751.000
402.207,776.000,787.000,778.000
404.071,775.000,787.000,786.000
405.936,788.000,807.000,788.000
407.800,878.000,861.000,852.000
409.664,1042.000,1054.000,1043.000
411.524,1148.000,1151.000,1135.000
413.388,972.000,960.000,953.000
415.249,817.000,808.000,812.000
417.112,759.000,769.000,752.000
418.974,751.000,748.000,747.000
420.835,733.000,743.000,735.000
422.697,748.000,733.000,727.000
424.555,745.000,748.000,733.000
426.415,739.000,738.000,738.000
428.274,743.000,742.000,745.000
430.134,744.000,747.000,751.000
431.994,751.000,755.000,740.000
433.851,770.000,768.000,761.000
435.709,771.000,745.000,770.000
437.567,776.000,766.000,769.000
439.425,792.000,773.000,771.000
441.281,790.000,788.000,770.000
443.138,805.000,800.000,816.000
444.994,826.000,825.000,840.000
446.850,869.000,855.000,859.000
448.706,888.000,887.000,894.000
450.561,931.000,921.000,941.000
452.416,999.000,994.000,1005.000
454.268,1123.000,1117.000,1158.000
456.123,1347.000,1319.000,1334.000
457.976,1642.000,1626.000,1661.000
459.830,1757.000,1768.000,1790.000
461.683,1874.000,1891.000,1891.000
463.535,2227.000,2221.000,2255.000
465.387,2949.000,2923.000,2970.000
467.239,4293.000,4298.000,4283.000
469.092,6615.000,6600.000,6703.000
470.940,10149.000,10075.000,10071.000
472.791,12692.000,12757.000,12692.000
474.641,11890.000,11860.000,11947.000
476.492,8753.000,8704.000,8858.000
478.342,5986.000,5932.000,6025.000
480.191,4232.000,4228.000,4256.000
482.039,3197.000,3228.000,3181.000
483.886,2547.000,2539.000,2544.000
485.734,2181.000,2151.000,2195.000
487.582,1905.000,1867.000,1873.000
489.429,1658.000,1650.000,1706.000
491.277,1523.000,1532.000,1510.000
493.123,1397.000,1354.000,1371.000
494.970,1282.000,1283.000,1276.000
496.816,1209.000,1203.000,1203.000
498.661,1168.000,1151.000,1159.000
500.505,1097.000,1123.000,1130.000
502.349,1066.000,1058.000,1064.000
504.194,1009.000,1008.000,985.000
506.038,1001.000,994.000,994.000
507.881,966.000,981.000,978.000
509.725,935.000,927.000,942.000
511.568,903.000,911.000,910.000
513.409,905.000,898.000,896.000
515.250,872.000,888.000,883.000
517.093,871.000,872.000,884.000
518.934,868.000,849.000,847.000
520.775,844.000,841.000,843.000
522.616,831.000,856.000,858.000
524.456,839.000,854.000,835.000
526.297,847.000,843.000,848.000
528.136,831.000,841.000,861.000
529.973,844.000,853.000,854.000
531.813,857.000,859.000,852.000
533.651,860.000,866.000,864.000
535.489,849.000,827.000,836.000
537.327,817.000,836.000,835.000
539.164,815.000,826.000,821.000
541.001,798.000,811.000,787.000
542.836,801.000,792.000,801.000
544.672,784.000,785.000,785.000
546.508,790.000,787.000,763.000
548.344,764.000,773.000,776.000
550.180,770.000,772.000,766.000
552.014,759.000,772.000,766.000
553.848,755.000,747.000,759.000
555.682,759.000,747.000,748.000
557.516,758.000,747.000,756.000
559.347,760.000,745.000,754.000
561.181,729.000,748.000,739.000
563.013,742.000,737.000,744.000
564.846,739.000,730.000,724.000
566.677,736.000,735.000,741.000
568.509,734.000,728.000,737.000
570.340,729.000,724.000,739.000
572.169,715.000,732.000,719.000
573.999,733.000,714.000,737.000
575.829,731.000,717.000,734.000
577.659,727.000,741.000,723.000
579.488,717.000,722.000,724.000
581.317,721.000,717.000,725.000
583.146,731.000,721.000,720.000
584.974,726.000,723.000,725.000
586.801,724.000,713.000,724.000
588.627,724.000,727.000,716.000
590.455,726.000,723.000,726.000
592.281,719.000,728.000,733.000
594.108,721.000,722.000,723.000
595.933,731.000,741.000,722.000
597.760,718.000,717.000,729.000
599.584,716.000,719.000,722.000
601.407,720.000,731.000,737.000
603.232,725.000,723.000,726.000
605.057,726.000,725.000,715.000
606.880,724.000,725.000,715.000
608.704,708.000,715.000,729.000
610.527,717.000,718.000,709.000
612.349,714.000,716.000,718.000
614.172,718.000,717.000,711.000
615.991,708.000,710.000,712.000
617.813,705.000,723.000,711.000
619.634,711.000,711.000,719.000
621.455,711.000,703.000,708.000
623.276,710.000,706.000,707.000
625.096,724.000,711.000,720.000
626.916,703.000,711.000,701.000
628.735,716.000,707.000,712.000
630.553,705.000,702.000,706.000
632.371,696.000,709.000,720.000
634.189,709.000,709.000,709.000
636.007,701.000,704.000,700.000
637.825,708.000,704.000,709.000
639.642,705.000,707.000,706.000
641.460,717.000,711.000,700.000
643.276,703.000,705.000,698.000
645.089,711.000,699.000,698.000
646.906,709.000,700.000,710.000
648.720,699.000,701.000,711.000
650.536,705.000,715.000,704.000
652.350,705.000,689.000,710.000
654.165,702.000,707.000,699.000
655.979,702.000,710.000,705.000
657.793,703.000,705.000,713.000
659.604,712.000,706.000,708.000
661.417,697.000,694.000,694.000
663.229,698.000,700.000,700.000
665.042,682.000,698.000,694.000
666.853,694.000,699.000,691.000
668.665,691.000,694.000,692.000
670.476,700.000,696.000,696.000
672.286,693.000,694.000,702.000
674.095,685.000,694.000,700.000
675.905,701.000,698.000,694.000
677.715,701.000,687.000,698.000
679.524,706.000,696.000,695.000
681.333,691.000,695.000,692.000
683.141,697.000,689.000,701.000
684.950,706.000,700.000,697.000
686.758,704.000,703.000,700.000
688.562,713.000,699.000,708.000
690.370,706.000,712.000,709.000
692.177,708.000,711.000,712.000
693.983,715.000,718.000,721.000
695.789,727.000,734.000,734.000
697.595,744.000,745.000,738.000
699.401,771.000,769.000,757.000
701.205,809.000,797.000,796.000
703.008,838.000,843.000,840.000
704.812,830.000,849.000,840.000
706.616,796.000,792.000,795.000
708.419,775.000,761.000,772.000
710.223,748.000,750.000,742.000
712.026,732.000,726.000,718.000
713.828,712.000,716.000,710.000
715.630,712.000,712.000,701.000
717.430,694.000,706.000,699.000
719.231,701.000,706.000,714.000
721.032,709.000,703.000,695.000
722.833,710.000,703.000,698.000
724.633,688.000,691.000,711.000
726.432,702.000,693.000,700.000
728.232,700.000,697.000,707.000
730.032,695.000,707.000,695.000
731.828,698.000,698.000,699.000
733.627,689.000,693.000,702.000
735.425,694.000,697.000,702.000
737.223,703.000,695.000,697.000
739.020,693.000,694.000,688.000
740.818,701.000,691.000,691.000
742.614,691.000,694.000,700.000
744.410,708.000,691.000,704.000
746.204,697.000,695.000,700.000
748.001,700.000,701.000,699.000
749.796,704.000,696.000,694.000
751.590,704.000,698.000,681.000
753.385,696.000,700.000,705.000
755.179,699.000,705.000,697.000
756.973,705.000,691.000,710.000
758.767,688.000,690.000,694.000
760.557,698.000,695.000,698.000
762.350,702.000,697.000,700.000
764.143,695.000,698.000,706.000
765.934,699.000,691.000,700.000
767.726,690.000,692.000,697.000
769.518,694.000,702.000,689.000
771.309,705.000,698.000,702.000
773.100,703.000,699.000,690.000
774.888,695.000,693.000,701.000
776.677,711.000,700.000,711.000
778.468,704.000,708.000,700.000
780.257,714.000,713.000,711.000
782.045,710.000,713.000,716.000
783.833,705.000,722.000,717.000
785.623,721.000,721.000,720.000
787.409,728.000,729.000,738.000
789.195,709.000,731.000,733.000
790.982,741.000,747.000,734.000
792.769,755.000,757.000,756.000
794.555,774.000,774.000,790.000
796.341,813.000,795.000,791.000
798.127,860.000,853.000,859.000
799.912,917.000,916.000,921.000
801.697,989.000,972.000,985.000
803.479,956.000,974.000,962.000
805.264,928.000,934.000,924.000
807.048,885.000,882.000,883.000
808.832,895.000,879.000,874.000
810.615,943.000,934.000,934.000
812.398,997.000,984.000,986.000
814.180,990.000,980.000,983.000
815.960,940.000,926.000,912.000
817.743,850.000,848.000,845.000
819.524,794.000,803.000,791.000
821.305,758.000,777.000,769.000
823.085,760.000,757.000,763.000
824.866,763.000,741.000,764.000
826.646,732.000,730.000,739.000
828.425,733.000,730.000,743.000
830.205,733.000,718.000,724.000
831.981,732.000,730.000,722.000
833.760,726.000,726.000,718.000
835.539,735.000,727.000,730.000
837.317,719.000,725.000,721.000
839.094,712.000,721.000,724.000
840.871,719.000,722.000,719.000
842.649,725.000,710.000,726.000
844.423,724.000,724.000,707.000
846.199,735.000,711.000,701.000
847.975,725.000,705.000,720.000
849.750,730.000,730.000,721.000
851.525,718.000,721.000,724.000
853.299,722.000,722.000,716.000
855.075,722.000,717.000,719.000
856.848,731.000,713.000,714.000
858.622,720.000,716.000,720.000
860.394,730.000,718.000,720.000
862.167,714.000,713.000,714.000
863.939,707.000,718.000,707.000
865.712,719.000,711.000,711.000
867.483,726.000,708.000,718.000
869.255,711.000,708.000,720.000
871.026,705.000,713.000,721.000
872.794,721.000,704.000,703.000
874.565,709.000,709.000,717.000
876.336,712.000,717.000,710.000
878.105,729.000,700.000,712.000
879.875,716.000,703.000,712.000