File: Raman/Silica/2025_09_12_12pct_Hydrated_SiO2_Glass_on_DAC_Culet_50X_532nm_74mW_Andor750_600gv_1030wn_6accum_30s_DePol_Loc2.csv
23.130,2783.000,2754.000,2782.000,2767.000,2747.000,2845.000
27.007,2411.000,2425.000,2436.000,2412.000,2423.000,2431.000
30.879,2361.000,2395.000,2375.000,2348.000,2403.000,2359.000
34.751,2465.000,2452.000,2439.000,2489.000,2471.000,2437.000
38.619,2341.000,2332.000,2339.000,2333.000,2327.000,2357.000
42.489,2347.000,2382.000,2391.000,2355.000,2329.000,2312.000
46.355,2523.000,2534.000,2495.000,2511.000,2525.000,2483.000
50.221,2309.000,2303.000,2305.000,2265.000,2266.000,2296.000
54.083,2360.000,2427.000,2383.000,2411.000,2406.000,2392.000
57.946,2378.000,2371.000,2356.000,2402.000,2382.000,2379.000
61.807,2202.000,2200.000,2204.000,2182.000,2212.000,2194.000
65.665,2205.000,2167.000,2144.000,2153.000,2160.000,2172.000
69.523,2301.000,2362.000,2376.000,2387.000,2350.000,2363.000
73.377,2028.000,2039.000,2032.000,2091.000,2016.000,2017.000
77.233,2072.000,2069.000,2092.000,2062.000,2075.000,2098.000
81.084,2104.000,2001.000,2066.000,2040.000,2069.000,2064.000
84.936,2028.000,2051.000,2007.000,2027.000,2051.000,2029.000
88.784,1870.000,1873.000,1898.000,1840.000,1877.000,1889.000
92.632,1934.000,1973.000,1978.000,1961.000,1974.000,1922.000
96.480,1770.000,1776.000,1799.000,1773.000,1765.000,1797.000
100.323,1933.000,1975.000,1906.000,1968.000,1922.000,1958.000
104.167,1755.000,1745.000,1751.000,1727.000,1773.000,1712.000
108.007,1741.000,1741.000,1729.000,1771.000,1721.000,1730.000
111.848,1660.000,1674.000,1696.000,1661.000,1672.000,1660.000
115.685,1795.000,1787.000,1763.000,1745.000,1738.000,1734.000
119.522,1579.000,1580.000,1583.000,1551.000,1590.000,1552.000
123.359,1655.000,1643.000,1634.000,1605.000,1615.000,1641.000
127.190,1532.000,1520.000,1513.000,1505.000,1550.000,1504.000
131.024,1609.000,1666.000,1593.000,1628.000,1627.000,1583.000
134.853,1489.000,1489.000,1481.000,1455.000,1506.000,1496.000
138.683,1486.000,1492.000,1496.000,1481.000,1464.000,1489.000
142.508,1446.000,1437.000,1389.000,1433.000,1394.000,1413.000
146.335,1477.000,1440.000,1481.000,1433.000,1482.000,1473.000
150.158,1350.000,1362.000,1366.000,1333.000,1372.000,1360.000
153.982,1403.000,1386.000,1381.000,1390.000,1388.000,1410.000
157.804,1358.000,1350.000,1362.000,1350.000,1329.000,1348.000
161.621,1330.000,1383.000,1371.000,1329.000,1290.000,1352.000
165.441,1332.000,1290.000,1321.000,1321.000,1337.000,1309.000
169.256,1274.000,1330.000,1286.000,1312.000,1285.000,1294.000
173.071,1278.000,1253.000,1274.000,1263.000,1260.000,1240.000
176.883,1311.000,1251.000,1307.000,1308.000,1255.000,1307.000
180.696,1254.000,1260.000,1247.000,1265.000,1252.000,1255.000
184.504,1221.000,1221.000,1233.000,1234.000,1242.000,1226.000
188.314,1251.000,1183.000,1221.000,1215.000,1208.000,1235.000
192.122,1220.000,1224.000,1189.000,1222.000,1215.000,1227.000
195.925,1172.000,1202.000,1192.000,1213.000,1204.000,1179.000
199.731,1198.000,1202.000,1248.000,1197.000,1182.000,1174.000
203.532,1211.000,1181.000,1163.000,1186.000,1185.000,1172.000
207.333,1169.000,1164.000,1190.000,1158.000,1159.000,1159.000
211.132,1165.000,1151.000,1195.000,1119.000,1160.000,1178.000
214.929,1159.000,1154.000,1142.000,1151.000,1148.000,1141.000
218.724,1169.000,1138.000,1128.000,1101.000,1123.000,1126.000
222.519,1163.000,1123.000,1131.000,1145.000,1140.000,1123.000
226.313,1141.000,1140.000,1133.000,1130.000,1136.000,1142.000
230.104,1133.000,1130.000,1112.000,1120.000,1110.000,1121.000
233.894,1138.000,1116.000,1098.000,1118.000,1112.000,1094.000
237.681,1132.000,1141.000,1112.000,1107.000,1113.000,1104.000
241.469,1102.000,1094.000,1092.000,1105.000,1101.000,1083.000
245.253,1101.000,1117.000,1087.000,1078.000,1097.000,1087.000
249.038,1091.000,1081.000,1081.000,1101.000,1067.000,1072.000
252.819,1081.000,1070.000,1096.000,1085.000,1082.000,1070.000
256.600,1085.000,1091.000,1104.000,1103.000,1121.000,1089.000
260.380,1098.000,1081.000,1054.000,1069.000,1034.000,1064.000
264.156,1067.000,1068.000,1054.000,1063.000,1077.000,1085.000
267.933,1083.000,1087.000,1067.000,1087.000,1060.000,1053.000
271.707,1062.000,1066.000,1062.000,1059.000,1070.000,1058.000
275.480,1051.000,1057.000,1059.000,1034.000,1054.000,1051.000
279.251,1065.000,1049.000,1058.000,1061.000,1069.000,1043.000
283.021,1059.000,1061.000,1011.000,1048.000,1027.000,1028.000
286.790,1071.000,1065.000,1032.000,1050.000,1030.000,1030.000
290.556,1030.000,1053.000,1051.000,1038.000,1049.000,1068.000
294.322,1040.000,1046.000,1040.000,1047.000,1045.000,1049.000
298.084,1033.000,1030.000,1027.000,1041.000,1019.000,1026.000
301.847,1039.000,1053.000,1062.000,1045.000,1077.000,1045.000
305.607,1067.000,1047.000,1050.000,1035.000,1031.000,1036.000
309.367,1040.000,1056.000,1051.000,1051.000,1046.000,1032.000
313.123,1039.000,1052.000,1043.000,1034.000,1039.000,1044.000
316.880,1031.000,1053.000,1009.000,1021.000,1048.000,1046.000
320.635,1031.000,1034.000,1037.000,1019.000,1019.000,1016.000
324.387,1019.000,1021.000,1036.000,1026.000,1074.000,1049.000
328.139,1023.000,1021.000,1026.000,1022.000,1003.000,1033.000
331.888,1023.000,1029.000,1009.000,996.000,1035.000,1015.000
335.638,1055.000,1019.000,1046.000,1019.000,1001.000,1050.000
339.384,1038.000,1019.000,1023.000,1007.000,1028.000,997.000
343.130,1028.000,1016.000,1008.000,1029.000,1014.000,1024.000
346.873,1030.000,1021.000,1021.000,1030.000,1011.000,1031.000
350.616,1033.000,1049.000,1024.000,1005.000,1041.000,1015.000
354.357,1026.000,1022.000,1013.000,1011.000,1030.000,998.000
358.095,1017.000,1040.000,1018.000,1037.000,1026.000,1021.000
361.835,1045.000,1016.000,1016.000,1023.000,1025.000,1016.000
365.569,1028.000,1027.000,1027.000,1025.000,1022.000,1006.000
369.305,1030.000,1039.000,1036.000,1034.000,1017.000,1034.000
373.037,1046.000,1030.000,1034.000,1016.000,999.000,996.000
376.770,1047.000,1027.000,1020.000,1025.000,1026.000,1011.000
380.498,1015.000,1048.000,1025.000,1016.000,1011.000,1014.000
384.228,1020.000,1030.000,1043.000,1007.000,1017.000,1002.000
387.956,1019.000,1048.000,1021.000,1043.000,1000.000,1013.000
391.681,1010.000,1011.000,1022.000,1020.000,1030.000,1024.000
395.405,1022.000,1009.000,1007.000,999.000,997.000,1004.000
399.127,1034.000,1020.000,1034.000,998.000,1011.000,1020.000
402.849,1032.000,1010.000,1025.000,1025.000,1008.000,991.000
406.567,1004.000,1025.000,1024.000,1010.000,992.000,996.000
410.287,1004.000,1008.000,993.000,1006.000,1004.000,992.000
414.003,1022.000,1019.000,1027.000,1003.000,1023.000,1003.000
417.719,1038.000,1021.000,1011.000,1019.000,987.000,1002.000
421.432,1034.000,1025.000,1012.000,1026.000,1017.000,1000.000
425.144,1026.000,1022.000,1023.000,1007.000,994.000,979.000
428.855,1015.000,1008.000,1030.000,997.000,1008.000,1014.000
432.563,1012.000,1030.000,1017.000,1016.000,1013.000,1014.000
436.272,1011.000,1022.000,1031.000,1016.000,995.000,1006.000
439.977,993.000,1022.000,1005.000,1021.000,1028.000,1030.000
443.683,1020.000,1024.000,997.000,1021.000,994.000,1007.000
447.386,1005.000,1027.000,1037.000,1034.000,1019.000,1030.000
451.087,1038.000,1006.000,1028.000,1003.000,1020.000,999.000
454.788,1025.000,1026.000,1029.000,1023.000,1009.000,1016.000
458.485,1034.000,1029.000,1021.000,1023.000,1019.000,1020.000
462.183,1025.000,1014.000,1011.000,1022.000,999.000,1023.000
465.879,1041.000,1022.000,983.000,1014.000,1024.000,1019.000
469.574,1030.000,1034.000,1006.000,1008.000,1017.000,1008.000
473.265,1033.000,1036.000,1009.000,1009.000,1005.000,1009.000
476.957,1029.000,1003.000,1027.000,997.000,997.000,1008.000
480.647,1016.000,1034.000,1005.000,1031.000,1035.000,1011.000
484.335,1013.000,1000.000,1015.000,969.000,997.000,973.000
488.022,987.000,999.000,1000.000,1002.000,979.000,969.000
491.706,999.000,978.000,1018.000,974.000,992.000,942.000
495.391,965.000,981.000,990.000,969.000,963.000,965.000
499.072,952.000,954.000,966.000,954.000,948.000,940.000
502.754,935.000,945.000,925.000,913.000,941.000,903.000
506.432,902.000,915.000,911.000,903.000,895.000,900.000
510.111,900.000,901.000,893.000,894.000,901.000,904.000
513.788,895.000,905.000,885.000,871.000,887.000,871.000
517.462,884.000,867.000,863.000,893.000,860.000,871.000
521.136,860.000,860.000,845.000,863.000,854.000,861.000
524.807,859.000,852.000,843.000,852.000,859.000,846.000
528.479,875.000,855.000,871.000,848.000,826.000,847.000
532.147,842.000,858.000,857.000,847.000,844.000,833.000
535.815,843.000,1360.000,844.000,1278.000,833.000,817.000
539.480,845.000,864.000,829.000,828.000,827.000,834.000
543.145,840.000,839.000,827.000,826.000,853.000,836.000
546.809,834.000,813.000,829.000,832.000,826.000,831.000
550.469,846.000,842.000,829.000,826.000,818.000,818.000
554.131,833.000,824.000,828.000,824.000,822.000,829.000
557.788,824.000,830.000,826.000,831.000,806.000,821.000
561.446,831.000,825.000,813.000,829.000,813.000,811.000
565.100,816.000,815.000,807.000,824.000,824.000,804.000
568.756,814.000,820.000,817.000,810.000,803.000,809.000
572.408,809.000,822.000,809.000,807.000,813.000,797.000
576.060,800.000,816.000,803.000,808.000,786.000,803.000
579.711,832.000,811.000,809.000,806.000,801.000,816.000
583.358,808.000,790.000,810.000,811.000,809.000,804.000
587.006,819.000,825.000,824.000,791.000,807.000,808.000
590.650,803.000,823.000,811.000,782.000,800.000,809.000
594.295,810.000,785.000,791.000,805.000,793.000,788.000
597.937,795.000,795.000,795.000,807.000,804.000,799.000
601.579,809.000,792.000,799.000,815.000,812.000,796.000
605.217,795.000,803.000,820.000,791.000,795.000,808.000
608.856,790.000,811.000,786.000,802.000,793.000,793.000
612.494,808.000,796.000,786.000,781.000,791.000,785.000
616.129,811.000,806.000,799.000,794.000,790.000,782.000
619.763,795.000,775.000,789.000,796.000,781.000,765.000
623.394,797.000,795.000,810.000,798.000,782.000,781.000
627.026,808.000,788.000,770.000,795.000,786.000,785.000
630.655,802.000,800.000,790.000,789.000,790.000,787.000
634.284,806.000,796.000,794.000,795.000,794.000,799.000
637.911,795.000,793.000,797.000,780.000,790.000,785.000
641.535,788.000,808.000,785.000,802.000,788.000,783.000
645.160,797.000,793.000,781.000,788.000,774.000,797.000
648.781,790.000,787.000,780.000,784.000,790.000,788.000
652.403,786.000,798.000,774.000,780.000,799.000,777.000
656.021,790.000,766.000,786.000,783.000,787.000,776.000
659.640,793.000,799.000,788.000,788.000,793.000,776.000
663.256,799.000,799.000,799.000,795.000,774.000,779.000
666.872,812.000,780.000,788.000,791.000,792.000,778.000
670.485,792.000,800.000,785.000,804.000,793.000,798.000
674.097,791.000,794.000,791.000,790.000,793.000,789.000
677.709,798.000,797.000,785.000,803.000,798.000,777.000
681.317,799.000,803.000,798.000,795.000,779.000,777.000
684.926,791.000,802.000,789.000,799.000,782.000,795.000
688.531,819.000,795.000,796.000,779.000,801.000,795.000
692.136,803.000,800.000,794.000,787.000,786.000,794.000
695.739,806.000,794.000,783.000,791.000,799.000,788.000
699.342,804.000,790.000,792.000,794.000,797.000,791.000
702.944,797.000,795.000,795.000,797.000,802.000,792.000
706.542,795.000,890.000,812.000,787.000,782.000,800.000
710.141,798.000,815.000,796.000,784.000,789.000,791.000
713.736,799.000,792.000,790.000,795.000,793.000,795.000
717.332,802.000,791.000,810.000,789.000,809.000,804.000
720.925,782.000,795.000,793.000,802.000,810.000,781.000
724.517,801.000,811.000,793.000,778.000,814.000,808.000
728.106,810.000,797.000,804.000,789.000,789.000,799.000
731.697,804.000,796.000,787.000,796.000,800.000,807.000
735.286,807.000,812.000,776.000,790.000,796.000,800.000
738.871,824.000,802.000,791.000,806.000,806.000,795.000
742.457,822.000,815.000,780.000,799.000,799.000,801.000
746.039,802.000,797.000,797.000,818.000,792.000,792.000
749.622,816.000,830.000,790.000,809.000,793.000,804.000
753.202,815.000,807.000,820.000,818.000,819.000,802.000
756.782,816.000,803.000,815.000,806.000,821.000,810.000
760.360,825.000,825.000,829.000,830.000,807.000,828.000
763.937,831.000,811.000,837.000,810.000,825.000,814.000
767.512,828.000,834.000,849.000,829.000,839.000,821.000
771.085,861.000,856.000,853.000,856.000,872.000,850.000
774.657,895.000,879.000,871.000,859.000,864.000,866.000
778.228,902.000,887.000,892.000,891.000,883.000,890.000
781.797,895.000,884.000,907.000,893.000,903.000,910.000
785.364,930.000,905.000,897.000,908.000,913.000,915.000
788.932,927.000,909.000,911.000,919.000,883.000,911.000
792.498,913.000,930.000,900.000,915.000,913.000,930.000
796.060,920.000,933.000,912.000,904.000,899.000,902.000
799.624,911.000,921.000,887.000,900.000,915.000,903.000
803.184,891.000,892.000,886.000,907.000,906.000,882.000
806.744,930.000,896.000,901.000,896.000,882.000,899.000
810.301,905.000,895.000,894.000,897.000,887.000,889.000
813.859,889.000,879.000,878.000,867.000,880.000,878.000
817.413,884.000,877.000,889.000,884.000,884.000,871.000
820.967,883.000,873.000,880.000,876.000,884.000,865.000
824.520,863.000,873.000,856.000,870.000,854.000,853.000
828.071,875.000,865.000,850.000,857.000,851.000,845.000
831.622,839.000,859.000,849.000,856.000,835.000,834.000
835.169,863.000,844.000,845.000,839.000,840.000,825.000
838.716,837.000,831.000,828.000,824.000,819.000,820.000
842.261,837.000,827.000,828.000,816.000,829.000,824.000
845.806,812.000,817.000,826.000,812.000,809.000,797.000
849.347,826.000,811.000,814.000,803.000,806.000,797.000
852.890,805.000,800.000,809.000,790.000,804.000,783.000
856.430,801.000,807.000,814.000,800.000,799.000,799.000
859.968,817.000,802.000,807.000,803.000,804.000,791.000
863.506,818.000,806.000,815.000,802.000,799.000,790.000
867.040,808.000,798.000,796.000,796.000,794.000,805.000
870.574,799.000,792.000,796.000,797.000,785.000,797.000
874.106,813.000,776.000,811.000,803.000,792.000,802.000
877.640,807.000,805.000,809.000,808.000,795.000,786.000
881.168,802.000,807.000,805.000,794.000,795.000,782.000
884.698,815.000,815.000,806.000,807.000,808.000,793.000
888.226,801.000,798.000,804.000,792.000,811.000,788.000
891.750,813.000,795.000,810.000,805.000,805.000,784.000
895.276,809.000,819.000,803.000,800.000,799.000,790.000
898.798,819.000,799.000,796.000,806.000,798.000,792.000
902.321,814.000,808.000,804.000,801.000,797.000,785.000
905.840,823.000,809.000,812.000,826.000,809.000,801.000
909.360,813.000,796.000,800.000,818.000,797.000,797.000
912.876,812.000,1036.000,823.000,796.000,824.000,810.000
916.393,827.000,1314.000,799.000,816.000,807.000,813.000
919.909,832.000,813.000,802.000,815.000,811.000,812.000
923.422,827.000,820.000,814.000,827.000,819.000,803.000
926.934,834.000,830.000,810.000,829.000,812.000,799.000
930.444,824.000,831.000,831.000,826.000,822.000,816.000
933.954,827.000,843.000,847.000,835.000,830.000,823.000
937.461,828.000,820.000,828.000,825.000,824.000,827.000
940.968,825.000,2341.000,851.000,844.000,827.000,836.000
944.475,867.000,845.000,828.000,854.000,827.000,848.000
947.978,851.000,849.000,852.000,854.000,839.000,842.000
951.481,858.000,835.000,846.000,857.000,847.000,837.000
954.981,870.000,865.000,875.000,861.000,841.000,839.000
958.482,855.000,872.000,877.000,845.000,840.000,860.000
961.979,878.000,876.000,864.000,862.000,863.000,845.000
965.476,882.000,894.000,871.000,855.000,863.000,853.000
968.971,870.000,872.000,852.000,879.000,874.000,855.000
972.466,875.000,870.000,878.000,860.000,860.000,858.000
975.959,887.000,931.000,874.000,867.000,876.000,866.000
979.451,870.000,871.000,858.000,860.000,850.000,864.000
982.941,856.000,875.000,836.000,859.000,865.000,855.000
986.428,856.000,873.000,860.000,843.000,828.000,835.000
989.917,847.000,853.000,833.000,838.000,848.000,839.000
993.402,851.000,854.000,845.000,823.000,840.000,827.000
996.887,847.000,833.000,848.000,833.000,821.000,813.000
1000.369,837.000,830.000,840.000,839.000,837.000,813.000
1003.852,843.000,835.000,819.000,840.000,810.000,827.000
1007.333,839.000,848.000,814.000,817.000,807.000,821.000
1010.812,845.000,838.000,834.000,815.000,822.000,828.000
1014.290,832.000,832.000,835.000,834.000,819.000,810.000
1017.766,815.000,821.000,813.000,822.000,823.000,812.000
1021.241,834.000,831.000,820.000,818.000,825.000,825.000
1024.714,829.000,825.000,827.000,826.000,827.000,826.000
1028.188,843.000,823.000,833.000,826.000,820.000,833.000
1031.658,841.000,832.000,827.000,827.000,842.000,832.000
1035.128,843.000,836.000,829.000,835.000,832.000,815.000
1038.598,854.000,834.000,847.000,832.000,841.000,820.000
1042.063,856.000,849.000,834.000,834.000,827.000,815.000
1045.530,875.000,851.000,843.000,833.000,856.000,839.000
1048.994,853.000,869.000,841.000,862.000,836.000,841.000
1052.457,851.000,847.000,850.000,843.000,843.000,842.000
1055.917,876.000,860.000,861.000,859.000,842.000,840.000
1059.379,882.000,851.000,851.000,856.000,836.000,844.000
1062.838,842.000,826.000,847.000,846.000,843.000,825.000
1066.294,839.000,845.000,853.000,869.000,838.000,849.000
1069.752,873.000,851.000,833.000,842.000,841.000,841.000
1073.206,839.000,851.000,831.000,838.000,825.000,836.000
1076.660,831.000,840.000,831.000,825.000,845.000,827.000
1080.110,861.000,840.000,850.000,827.000,827.000,821.000
1083.562,840.000,842.000,811.000,826.000,826.000,810.000
1087.011,822.000,828.000,823.000,817.000,810.000,821.000
1090.460,831.000,822.000,799.000,815.000,802.000,815.000
1093.908,805.000,831.000,799.000,801.000,813.000,801.000
1097.351,812.000,798.000,808.000,803.000,809.000,792.000
1100.796,817.000,810.000,804.000,800.000,811.000,798.000
1104.238,809.000,817.000,816.000,819.000,799.000,807.000
1107.681,812.000,807.000,809.000,809.000,791.000,792.000
1111.120,803.000,789.000,795.000,807.000,794.000,793.000
1114.559,824.000,790.000,792.000,803.000,804.000,800.000
1117.995,827.000,809.000,797.000,803.000,799.000,809.000
1121.432,793.000,802.000,795.000,805.000,786.000,789.000
1124.867,829.000,814.000,812.000,804.000,794.000,797.000
1128.300,822.000,818.000,820.000,786.000,798.000,812.000
1131.733,823.000,825.000,806.000,799.000,808.000,803.000
1135.163,830.000,824.000,820.000,816.000,791.000,808.000
1138.593,816.000,813.000,825.000,824.000,817.000,808.000
1142.020,823.000,824.000,808.000,812.000,798.000,814.000
1145.447,816.000,821.000,798.000,799.000,821.000,805.000
1148.872,838.000,813.000,819.000,823.000,811.000,800.000
1152.297,824.000,830.000,808.000,821.000,827.000,811.000
1155.720,848.000,820.000,811.000,818.000,828.000,820.000
1159.141,823.000,840.000,825.000,825.000,839.000,811.000
1162.561,820.000,835.000,840.000,832.000,830.000,816.000
1165.979,832.000,836.000,818.000,833.000,812.000,802.000
1169.397,837.000,844.000,822.000,813.000,811.000,824.000
1172.813,835.000,815.000,810.000,823.000,812.000,824.000
1176.229,849.000,827.000,831.000,820.000,817.000,810.000
1179.641,829.000,841.000,808.000,845.000,820.000,825.000
1183.054,854.000,826.000,831.000,830.000,828.000,826.000
1186.465,842.000,815.000,844.000,819.000,800.000,820.000
1189.874,845.000,829.000,835.000,815.000,836.000,833.000
1193.282,842.000,836.000,839.000,824.000,831.000,827.000
1196.688,818.000,827.000,839.000,831.000,829.000,833.000
1200.095,846.000,817.000,826.000,822.000,813.000,823.000
1203.498,823.000,825.000,835.000,823.000,814.000,815.000
1206.902,826.000,825.000,828.000,808.000,798.000,818.000
1210.302,825.000,831.000,816.000,821.000,819.000,806.000
1213.703,839.000,836.000,826.000,823.000,833.000,803.000
1217.103,825.000,826.000,825.000,827.000,820.000,827.000
1220.499,824.000,831.000,823.000,808.000,803.000,808.000
1223.897,831.000,835.000,831.000,834.000,805.000,818.000
1227.291,835.000,819.000,824.000,822.000,820.000,790.000
1230.685,832.000,830.000,821.000,817.000,823.000,792.000
1234.076,823.000,824.000,820.000,807.000,816.000,805.000
1237.469,805.000,807.000,815.000,803.000,805.000,818.000
1240.858,835.000,819.000,811.000,806.000,808.000,813.000
1244.246,834.000,805.000,809.000,801.000,809.000,798.000
1247.634,822.000,791.000,810.000,794.000,807.000,796.000
1251.020,828.000,814.000,814.000,815.000,799.000,789.000
1254.405,813.000,826.000,817.000,805.000,806.000,811.000
1257.787,802.000,785.000,802.000,789.000,793.000,801.000
1261.170,818.000,817.000,820.000,801.000,807.000,807.000
1264.549,819.000,810.000,814.000,796.000,801.000,802.000
1267.929,813.000,811.000,809.000,799.000,802.000,794.000
1271.308,824.000,833.000,801.000,812.000,812.000,805.000
1274.683,823.000,819.000,822.000,798.000,808.000,801.000
1278.060,819.000,803.000,817.000,807.000,802.000,805.000
1281.433,818.000,811.000,804.000,807.000,793.000,798.000
1284.807,830.000,820.000,808.000,823.000,802.000,802.000
1288.177,804.000,806.000,815.000,822.000,803.000,795.000
1291.548,820.000,819.000,804.000,796.000,800.000,811.000
1294.916,827.000,827.000,828.000,823.000,815.000,805.000
1298.284,833.000,825.000,825.000,834.000,804.000,805.000
1301.652,837.000,834.000,845.000,846.000,828.000,842.000
1305.015,869.000,861.000,853.000,827.000,840.000,856.000
1308.380,883.000,877.000,869.000,861.000,869.000,879.000
1311.742,901.000,899.000,915.000,916.000,895.000,912.000
1315.104,999.000,960.000,977.000,977.000,966.000,971.000
1318.462,1154.000,1151.000,1171.000,1177.000,1159.000,1134.000
1321.822,1732.000,1728.000,1740.000,1727.000,1753.000,1742.000
1325.180,5392.000,5385.000,5443.000,5456.000,5532.000,5435.000
1328.535,19057.000,19134.000,19238.000,19182.000,19379.000,19370.000
1331.891,4552.000,4585.000,4514.000,4618.000,4518.000,4624.000
1335.243,1563.000,1588.000,1577.000,1585.000,1572.000,1585.000
1338.595,1079.000,1088.000,1073.000,1094.000,1066.000,1086.000
1341.946,928.000,919.000,956.000,922.000,950.000,930.000
1345.296,887.000,873.000,863.000,861.000,857.000,883.000
1348.643,860.000,849.000,842.000,847.000,856.000,838.000
1351.991,850.000,836.000,834.000,844.000,836.000,819.000
1355.337,833.000,814.000,828.000,820.000,828.000,805.000
1358.680,825.000,836.000,836.000,814.000,834.000,808.000
1362.025,807.000,824.000,830.000,814.000,808.000,818.000
1365.366,830.000,826.000,813.000,816.000,795.000,813.000
1368.707,831.000,804.000,822.000,800.000,807.000,804.000
1372.045,810.000,819.000,799.000,807.000,802.000,791.000
1375.384,829.000,818.000,813.000,822.000,828.000,803.000
1378.720,815.000,832.000,804.000,820.000,806.000,801.000
1382.057,802.000,821.000,809.000,796.000,797.000,791.000
1385.391,831.000,813.000,813.000,795.000,789.000,786.000
1388.723,825.000,797.000,803.000,806.000,797.000,784.000
1392.056,804.000,811.000,789.000,810.000,793.000,791.000
1395.385,808.000,802.000,802.000,786.000,799.000,795.000
1398.714,816.000,805.000,801.000,791.000,816.000,800.000
1402.042,811.000,805.000,803.000,791.000,788.000,808.000
1405.369,818.000,800.000,805.000,797.000,803.000,807.000
1408.692,810.000,803.000,810.000,809.000,804.000,786.000
1412.017,810.000,805.000,805.000,795.000,820.000,788.000
1415.341,802.000,797.000,791.000,796.000,780.000,792.000
1418.662,825.000,812.000,798.000,795.000,807.000,779.000
1421.982,809.000,801.000,804.000,795.000,796.000,790.000
1425.300,814.000,801.000,809.000,800.000,796.000,802.000
1428.619,813.000,801.000,804.000,792.000,796.000,799.000
1431.935,835.000,803.000,798.000,791.000,806.000,806.000
1435.250,803.000,805.000,811.000,810.000,787.000,788.000
1438.563,817.000,793.000,803.000,799.000,796.000,799.000
1441.877,813.000,817.000,815.000,796.000,796.000,793.000
1445.189,814.000,802.000,806.000,802.000,792.000,806.000
1448.497,811.000,809.000,807.000,785.000,783.000,777.000
1451.807,819.000,814.000,801.000,800.000,791.000,782.000
1455.114,806.000,810.000,796.000,800.000,802.000,798.000
1458.420,809.000,791.000,802.000,796.000,814.000,798.000
1461.725,803.000,802.000,803.000,788.000,792.000,790.000
1465.029,815.000,798.000,801.000,811.000,806.000,783.000
1468.331,813.000,810.000,813.000,807.000,810.000,803.000
1471.632,799.000,806.000,805.000,780.000,796.000,788.000
1474.934,810.000,806.000,806.000,790.000,797.000,791.000
1478.232,829.000,805.000,814.000,785.000,803.000,796.000
1481.530,820.000,814.000,789.000,809.000,793.000,788.000
1484.825,823.000,796.000,806.000,812.000,791.000,811.000
1488.120,810.000,827.000,819.000,795.000,800.000,794.000
1491.414,825.000,803.000,802.000,808.000,793.000,799.000
1494.707,808.000,789.000,793.000,799.000,804.000,802.000
1497.997,808.000,819.000,796.000,802.000,788.000,794.000
1501.287,823.000,807.000,805.000,811.000,805.000,799.000
1504.577,799.000,816.000,802.000,803.000,796.000,791.000
1507.863,814.000,796.000,805.000,794.000,802.000,795.000
1511.151,802.000,808.000,805.000,796.000,794.000,801.000
1514.435,812.000,810.000,817.000,814.000,794.000,788.000
1517.719,811.000,816.000,789.000,801.000,803.000,817.000
1521.001,806.000,816.000,808.000,814.000,811.000,802.000
1524.282,814.000,806.000,822.000,798.000,788.000,793.000
1527.561,809.000,804.000,805.000,790.000,791.000,797.000
1530.840,820.000,802.000,787.000,794.000,798.000,811.000
1534.118,813.000,803.000,820.000,802.000,805.000,804.000
1537.394,816.000,787.000,808.000,784.000,815.000,789.000
1540.670,806.000,803.000,814.000,802.000,807.000,783.000
1543.943,804.000,809.000,795.000,805.000,805.000,797.000
1547.216,820.000,818.000,817.000,802.000,802.000,787.000
1550.486,822.000,815.000,804.000,815.000,810.000,805.000
1553.756,810.000,823.000,797.000,803.000,790.000,802.000
1557.027,804.000,799.000,805.000,808.000,794.000,798.000
1560.293,815.000,821.000,801.000,819.000,808.000,803.000
1563.560,823.000,808.000,807.000,815.000,789.000,814.000
1566.824,828.000,828.000,817.000,820.000,807.000,803.000
1570.088,822.000,810.000,823.000,816.000,806.000,807.000
1573.350,804.000,818.000,809.000,819.000,790.000,815.000
1576.612,823.000,834.000,826.000,808.000,789.000,807.000
1579.872,836.000,808.000,801.000,806.000,797.000,794.000
1583.131,826.000,825.000,818.000,805.000,819.000,797.000
1586.390,823.000,824.000,813.000,809.000,822.000,804.000
1589.645,845.000,836.000,813.000,803.000,816.000,805.000
1592.901,819.000,824.000,808.000,817.000,808.000,791.000
1596.154,816.000,812.000,809.000,809.000,827.000,823.000
1599.408,837.000,834.000,835.000,804.000,831.000,831.000
1602.658,833.000,840.000,819.000,813.000,800.000,825.000
1605.909,818.000,841.000,810.000,804.000,806.000,824.000
1609.158,829.000,823.000,846.000,827.000,819.000,802.000
1612.405,850.000,827.000,823.000,806.000,807.000,810.000
1615.653,839.000,814.000,840.000,840.000,817.000,807.000
1618.898,839.000,835.000,824.000,819.000,819.000,813.000
1622.142,834.000,834.000,810.000,818.000,812.000,811.000
1625.384,835.000,816.000,833.000,829.000,826.000,807.000
1628.627,832.000,824.000,826.000,805.000,816.000,803.000
1631.866,836.000,829.000,830.000,810.000,839.000,817.000
1635.106,819.000,829.000,813.000,814.000,819.000,815.000
1638.345,818.000,815.000,819.000,824.000,807.000,819.000
1641.580,824.000,815.000,836.000,839.000,812.000,802.000
1644.816,828.000,812.000,824.000,812.000,821.000,833.000
1648.050,832.000,814.000,822.000,820.000,806.000,808.000
1651.285,827.000,811.000,832.000,829.000,814.000,804.000
1654.515,824.000,809.000,819.000,805.000,831.000,804.000
1657.747,817.000,807.000,804.000,813.000,831.000,808.000
1660.975,823.000,816.000,818.000,814.000,801.000,819.000
1664.204,807.000,811.000,808.000,817.000,818.000,809.000
1667.431,816.000,813.000,811.000,818.000,817.000,803.000
1670.656,808.000,818.000,819.000,810.000,809.000,787.000
1673.882,829.000,832.000,810.000,803.000,812.000,813.000
1677.104,824.000,813.000,820.000,807.000,806.000,807.000
1680.328,821.000,822.000,816.000,807.000,807.000,804.000
1683.548,825.000,831.000,815.000,803.000,829.000,808.000
1686.768,821.000,811.000,805.000,822.000,808.000,794.000
1689.986,828.000,820.000,822.000,812.000,798.000,807.000
1693.203,813.000,827.000,812.000,813.000,794.000,804.000
1696.420,801.000,832.000,819.000,803.000,808.000,830.000
1699.634,833.000,816.000,826.000,804.000,797.000,805.000
1702.848,814.000,812.000,810.000,819.000,818.000,794.000
1706.060,809.000,809.000,823.000,808.000,801.000,792.000
1709.272,811.000,826.000,806.000,811.000,809.000,802.000
1712.482,826.000,799.000,816.000,795.000,818.000,793.000
1715.691,819.000,807.000,815.000,830.000,806.000,787.000
1718.897,829.000,806.000,794.000,803.000,816.000,807.000
1722.105,802.000,795.000,819.000,816.000,796.000,792.000
1725.311,826.000,816.000,772.000,802.000,798.000,799.000
1728.514,798.000,826.000,815.000,807.000,813.000,794.000
1731.718,828.000,810.000,800.000,817.000,787.000,803.000
1734.918,820.000,807.000,805.000,821.000,810.000,808.000
1738.120,819.000,798.000,794.000,809.000,807.000,802.000
1741.318,825.000,817.000,814.000,798.000,812.000,816.000
1744.517,805.000,818.000,815.000,782.000,813.000,813.000
1747.712,804.000,826.000,826.000,808.000,813.000,807.000
1750.909,816.000,816.000,802.000,816.000,800.000,796.000
1754.104,813.000,804.000,815.000,801.000,809.000,816.000
1757.297,1073.000,803.000,798.000,799.000,812.000,796.000
1760.489,904.000,824.000,801.000,816.000,802.000,810.000
1763.679,843.000,820.000,810.000,815.000,810.000,800.000
1766.870,845.000,811.000,818.000,808.000,802.000,804.000
1770.057,827.000,823.000,810.000,824.000,810.000,805.000
1773.245,836.000,816.000,816.000,819.000,804.000,806.000
1776.430,823.000,811.000,817.000,820.000,809.000,803.000
1779.616,813.000,825.000,812.000,807.000,801.000,802.000
1782.800,830.000,814.000,814.000,808.000,821.000,822.000
1785.982,833.000,821.000,827.000,805.000,812.000,813.000
1789.164,824.000,812.000,824.000,806.000,813.000,828.000
1792.343,819.000,821.000,821.000,815.000,810.000,815.000
1795.523,846.000,827.000,806.000,811.000,807.000,806.000
1798.700,834.000,816.000,818.000,810.000,822.000,805.000
1801.877,823.000,827.000,826.000,822.000,1159.000,829.000
1805.052,846.000,821.000,816.000,830.000,842.000,799.000
1808.226,826.000,837.000,823.000,834.000,821.000,820.000
1811.400,854.000,819.000,831.000,816.000,827.000,812.000
1814.571,833.000,828.000,838.000,835.000,802.000,837.000
1816.157,834.000,839.000,832.000,836.000,829.000,839.000