File: Raman/Silica/2025_09_12_12pct_Hydrated_SiO2_Glass_on_DAC_Culet_50X_532nm_74mW_Andor750_600gv_3400wn_6accum_30s_DePol_Loc4.csv
2654.492,839.000,865.000,834.000,834.000,851.000,837.000
2657.338,868.000,848.000,851.000,849.000,855.000,833.000
2660.180,862.000,860.000,834.000,852.000,853.000,846.000
2663.023,852.000,863.000,866.000,860.000,853.000,860.000
2665.866,866.000,857.000,848.000,861.000,852.000,862.000
2668.704,854.000,855.000,846.000,857.000,872.000,832.000
2671.545,862.000,855.000,866.000,842.000,835.000,829.000
2674.383,868.000,851.000,848.000,853.000,855.000,854.000
2677.221,858.000,852.000,871.000,852.000,860.000,839.000
2680.058,869.000,863.000,859.000,862.000,861.000,851.000
2682.894,852.000,857.000,851.000,863.000,852.000,843.000
2685.729,870.000,866.000,864.000,855.000,858.000,840.000
2688.562,867.000,875.000,845.000,846.000,855.000,846.000
2691.395,868.000,868.000,856.000,852.000,842.000,851.000
2694.227,880.000,855.000,853.000,848.000,838.000,852.000
2697.056,862.000,867.000,869.000,852.000,848.000,839.000
2699.886,873.000,850.000,850.000,849.000,844.000,852.000
2702.715,864.000,855.000,844.000,832.000,869.000,855.000
2705.543,878.000,854.000,864.000,848.000,852.000,853.000
2708.369,867.000,855.000,859.000,846.000,855.000,834.000
2711.196,867.000,860.000,855.000,846.000,846.000,838.000
2714.020,843.000,843.000,856.000,872.000,862.000,837.000
2716.844,864.000,851.000,850.000,861.000,853.000,873.000
2719.668,877.000,851.000,858.000,860.000,855.000,852.000
2722.488,866.000,865.000,857.000,855.000,841.000,852.000
2725.309,866.000,850.000,871.000,847.000,859.000,839.000
2728.129,881.000,853.000,860.000,864.000,862.000,848.000
2730.947,853.000,867.000,867.000,860.000,846.000,852.000
2733.765,859.000,856.000,871.000,849.000,861.000,842.000
2736.583,850.000,840.000,865.000,877.000,859.000,860.000
2739.399,860.000,855.000,876.000,858.000,838.000,866.000
2742.214,852.000,844.000,888.000,864.000,849.000,849.000
2745.027,869.000,856.000,851.000,848.000,867.000,846.000
2747.840,871.000,848.000,854.000,860.000,843.000,851.000
2750.650,867.000,866.000,874.000,844.000,849.000,867.000
2753.462,863.000,861.000,847.000,861.000,855.000,846.000
2756.272,870.000,869.000,864.000,868.000,864.000,861.000
2759.081,865.000,855.000,861.000,869.000,845.000,848.000
2761.889,860.000,869.000,854.000,841.000,872.000,851.000
2764.696,870.000,868.000,872.000,874.000,867.000,830.000
2767.503,884.000,864.000,852.000,864.000,838.000,865.000
2770.307,872.000,873.000,861.000,833.000,867.000,862.000
2773.111,863.000,856.000,862.000,867.000,852.000,852.000
2775.915,875.000,852.000,856.000,876.000,859.000,856.000
2778.716,872.000,856.000,856.000,862.000,845.000,855.000
2781.517,862.000,871.000,896.000,877.000,857.000,861.000
2784.316,862.000,863.000,844.000,863.000,863.000,845.000
2787.116,867.000,877.000,860.000,869.000,859.000,851.000
2789.915,878.000,878.000,865.000,854.000,853.000,847.000
2792.711,856.000,877.000,863.000,853.000,854.000,845.000
2795.507,861.000,854.000,870.000,862.000,852.000,859.000
2798.304,878.000,858.000,846.000,871.000,858.000,859.000
2801.098,860.000,866.000,868.000,862.000,853.000,849.000
2803.889,874.000,854.000,872.000,869.000,859.000,836.000
2806.682,872.000,865.000,850.000,859.000,848.000,859.000
2809.474,874.000,863.000,867.000,862.000,862.000,855.000
2812.264,872.000,856.000,859.000,857.000,854.000,844.000
2815.054,863.000,870.000,855.000,848.000,842.000,851.000
2817.842,868.000,870.000,856.000,857.000,848.000,851.000
2820.630,857.000,890.000,865.000,862.000,858.000,860.000
2823.416,870.000,880.000,847.000,870.000,871.000,860.000
2826.201,868.000,859.000,849.000,860.000,845.000,875.000
2828.986,857.000,870.000,860.000,844.000,873.000,848.000
2831.768,884.000,869.000,865.000,860.000,860.000,841.000
2834.551,879.000,863.000,871.000,880.000,862.000,871.000
2837.333,880.000,869.000,872.000,857.000,856.000,862.000
2840.113,877.000,885.000,866.000,872.000,850.000,856.000
2842.893,871.000,882.000,879.000,874.000,871.000,853.000
2845.672,876.000,875.000,876.000,882.000,865.000,859.000
2848.450,887.000,889.000,868.000,871.000,866.000,876.000
2851.227,869.000,884.000,873.000,853.000,851.000,856.000
2854.003,889.000,862.000,878.000,873.000,880.000,859.000
2856.776,904.000,878.000,874.000,879.000,869.000,888.000
2859.550,889.000,875.000,889.000,881.000,883.000,869.000
2862.323,893.000,893.000,883.000,875.000,878.000,888.000
2865.095,899.000,883.000,875.000,869.000,881.000,870.000
2867.867,907.000,906.000,888.000,884.000,881.000,881.000
2870.636,907.000,883.000,894.000,902.000,865.000,883.000
2873.406,905.000,901.000,880.000,879.000,869.000,901.000
2876.174,901.000,895.000,896.000,887.000,880.000,891.000
2878.941,894.000,899.000,877.000,905.000,899.000,889.000
2881.707,904.000,913.000,909.000,906.000,894.000,911.000
2884.471,931.000,932.000,910.000,906.000,926.000,911.000
2887.236,953.000,954.000,934.000,949.000,930.000,917.000
2889.998,973.000,952.000,946.000,983.000,965.000,943.000
2892.761,995.000,973.000,961.000,963.000,946.000,961.000
2895.522,955.000,963.000,953.000,950.000,940.000,931.000
2898.284,947.000,939.000,968.000,921.000,922.000,931.000
2901.043,921.000,906.000,959.000,928.000,920.000,924.000
2903.802,917.000,917.000,923.000,915.000,916.000,920.000
2906.558,943.000,924.000,950.000,930.000,923.000,919.000
2909.314,932.000,947.000,937.000,932.000,916.000,924.000
2912.069,975.000,957.000,949.000,928.000,945.000,938.000
2914.825,964.000,965.000,935.000,942.000,949.000,940.000
2917.578,974.000,978.000,948.000,959.000,960.000,937.000
2920.331,952.000,959.000,954.000,959.000,946.000,950.000
2923.083,945.000,966.000,942.000,953.000,944.000,944.000
2925.834,928.000,960.000,947.000,926.000,936.000,957.000
2928.584,941.000,960.000,921.000,926.000,930.000,911.000
2931.333,941.000,926.000,927.000,927.000,915.000,934.000
2934.081,924.000,934.000,923.000,925.000,916.000,927.000
2936.826,940.000,947.000,922.000,912.000,912.000,921.000
2939.573,918.000,918.000,911.000,930.000,911.000,928.000
2942.319,917.000,905.000,910.000,912.000,914.000,895.000
2945.063,918.000,915.000,911.000,910.000,939.000,904.000
2947.805,919.000,926.000,929.000,895.000,917.000,901.000
2950.548,939.000,912.000,928.000,902.000,907.000,904.000
2953.290,931.000,943.000,939.000,932.000,910.000,916.000
2956.030,926.000,918.000,923.000,931.000,924.000,914.000
2958.769,943.000,908.000,918.000,913.000,908.000,910.000
2961.509,924.000,930.000,924.000,930.000,915.000,912.000
2964.244,943.000,931.000,936.000,928.000,917.000,912.000
2966.981,941.000,929.000,941.000,927.000,935.000,940.000
2969.717,943.000,919.000,922.000,940.000,914.000,945.000
2972.452,968.000,946.000,934.000,934.000,943.000,920.000
2975.185,958.000,940.000,939.000,934.000,926.000,939.000
2977.919,947.000,944.000,944.000,943.000,932.000,915.000
2980.651,928.000,949.000,932.000,942.000,911.000,923.000
2983.382,923.000,920.000,917.000,938.000,923.000,927.000
2986.112,923.000,931.000,926.000,916.000,939.000,914.000
2988.840,933.000,932.000,906.000,916.000,922.000,930.000
2991.567,922.000,925.000,931.000,925.000,916.000,898.000
2994.295,910.000,923.000,909.000,900.000,910.000,911.000
2997.021,922.000,917.000,907.000,931.000,921.000,903.000
2999.746,911.000,915.000,917.000,896.000,907.000,922.000
3002.471,913.000,929.000,905.000,929.000,910.000,916.000
3005.195,924.000,912.000,914.000,933.000,898.000,901.000
3007.916,948.000,929.000,915.000,914.000,908.000,921.000
3010.638,932.000,926.000,918.000,901.000,919.000,893.000
3013.358,922.000,907.000,915.000,898.000,912.000,908.000
3016.077,933.000,905.000,932.000,918.000,905.000,903.000
3018.797,924.000,914.000,890.000,926.000,915.000,911.000
3021.514,928.000,923.000,927.000,918.000,925.000,912.000
3024.231,919.000,916.000,914.000,918.000,910.000,896.000
3026.947,916.000,911.000,936.000,927.000,923.000,919.000
3029.662,905.000,922.000,901.000,945.000,912.000,916.000
3032.377,923.000,911.000,911.000,919.000,933.000,914.000
3035.089,921.000,939.000,940.000,911.000,928.000,904.000
3037.801,924.000,908.000,937.000,927.000,925.000,901.000
3040.512,935.000,928.000,938.000,906.000,929.000,917.000
3043.222,927.000,921.000,917.000,916.000,914.000,915.000
3045.932,915.000,924.000,908.000,919.000,904.000,889.000
3048.640,930.000,923.000,916.000,921.000,899.000,927.000
3051.348,920.000,927.000,912.000,919.000,918.000,896.000
3054.054,919.000,915.000,920.000,893.000,908.000,899.000
3056.760,933.000,914.000,917.000,925.000,899.000,913.000
3059.465,934.000,950.000,927.000,914.000,908.000,917.000
3062.168,931.000,924.000,925.000,937.000,912.000,923.000
3064.872,940.000,928.000,941.000,922.000,933.000,927.000
3067.572,939.000,937.000,935.000,929.000,917.000,928.000
3070.273,927.000,925.000,921.000,914.000,946.000,914.000
3072.974,951.000,926.000,932.000,932.000,938.000,913.000
3075.673,917.000,905.000,925.000,927.000,909.000,916.000
3078.371,951.000,941.000,913.000,934.000,923.000,922.000
3081.068,944.000,943.000,920.000,934.000,916.000,940.000
3083.765,946.000,935.000,929.000,911.000,931.000,920.000
3086.461,926.000,949.000,920.000,927.000,948.000,910.000
3089.156,940.000,931.000,937.000,911.000,931.000,936.000
3091.847,921.000,936.000,948.000,952.000,941.000,915.000
3094.540,940.000,923.000,932.000,931.000,928.000,913.000
3097.231,939.000,917.000,940.000,923.000,930.000,932.000
3099.923,957.000,928.000,946.000,939.000,937.000,921.000
3102.613,962.000,941.000,938.000,926.000,949.000,921.000
3105.303,946.000,971.000,942.000,924.000,925.000,946.000
3107.991,946.000,963.000,959.000,931.000,951.000,897.000
3110.677,961.000,955.000,948.000,916.000,953.000,919.000
3113.363,947.000,941.000,932.000,967.000,922.000,955.000
3116.049,938.000,959.000,932.000,952.000,938.000,926.000
3118.732,956.000,942.000,976.000,950.000,947.000,930.000
3121.416,970.000,949.000,965.000,934.000,953.000,922.000
3124.098,966.000,946.000,951.000,945.000,953.000,939.000
3126.780,948.000,977.000,946.000,962.000,955.000,939.000
3129.461,978.000,968.000,951.000,935.000,950.000,923.000
3132.141,973.000,957.000,955.000,960.000,953.000,963.000
3134.820,967.000,988.000,967.000,943.000,970.000,967.000
3137.497,990.000,961.000,963.000,931.000,952.000,951.000
3140.175,963.000,969.000,972.000,971.000,952.000,948.000
3142.850,960.000,967.000,973.000,970.000,961.000,953.000
3145.525,972.000,999.000,959.000,959.000,969.000,980.000
3148.199,975.000,969.000,960.000,963.000,978.000,950.000
3150.873,992.000,972.000,969.000,972.000,966.000,960.000
3153.545,1008.000,975.000,973.000,970.000,987.000,976.000
3156.217,966.000,993.000,989.000,971.000,985.000,951.000
3158.887,989.000,979.000,979.000,967.000,981.000,961.000
3161.558,966.000,994.000,979.000,990.000,976.000,963.000
3164.226,993.000,1018.000,1004.000,960.000,977.000,981.000
3166.894,983.000,974.000,1000.000,991.000,977.000,967.000
3169.560,1003.000,987.000,967.000,991.000,980.000,972.000
3172.226,999.000,991.000,999.000,998.000,1001.000,971.000
3174.892,1003.000,998.000,984.000,1002.000,978.000,980.000
3177.556,994.000,1012.000,983.000,987.000,990.000,961.000
3180.219,1008.000,1015.000,998.000,1012.000,983.000,994.000
3182.882,1032.000,1004.000,971.000,1013.000,1001.000,994.000
3185.544,992.000,999.000,1000.000,1001.000,980.000,992.000
3188.204,1026.000,1017.000,1007.000,1022.000,1002.000,1011.000
3190.864,1009.000,1012.000,1017.000,1004.000,1001.000,1030.000
3193.522,1009.000,1033.000,1014.000,1001.000,999.000,1009.000
3196.180,1046.000,1029.000,1023.000,1036.000,1018.000,1017.000
3198.836,1022.000,1028.000,1013.000,1043.000,1016.000,1037.000
3201.493,1036.000,1037.000,1034.000,1023.000,1018.000,993.000
3204.148,1036.000,1030.000,1047.000,1029.000,1029.000,1032.000
3206.803,1023.000,1046.000,1027.000,1010.000,1037.000,1010.000
3209.456,1030.000,1038.000,1041.000,1034.000,1022.000,1027.000
3212.109,1034.000,1055.000,1021.000,1039.000,1006.000,1002.000
3214.761,1059.000,1067.000,1038.000,1025.000,1029.000,1001.000
3217.412,1040.000,1058.000,1047.000,1049.000,1053.000,1026.000
3220.060,1062.000,1054.000,1033.000,1048.000,1037.000,1039.000
3222.709,1052.000,1025.000,1041.000,1061.000,1041.000,1023.000
3225.357,1057.000,1058.000,1044.000,1040.000,1029.000,1025.000
3228.004,1047.000,1055.000,1046.000,1032.000,1046.000,1041.000
3230.650,1059.000,1049.000,1057.000,1055.000,1062.000,1041.000
3233.295,1044.000,1051.000,1046.000,1068.000,1059.000,1049.000
3235.940,1077.000,1053.000,1062.000,1055.000,1058.000,1020.000
3238.584,1085.000,1067.000,1042.000,1037.000,1061.000,1035.000
3241.227,1079.000,1072.000,1062.000,1052.000,1063.000,1038.000
3243.868,1086.000,1056.000,1056.000,1048.000,1061.000,1051.000
3246.507,1080.000,1073.000,1086.000,1060.000,1050.000,1042.000
3249.148,1060.000,1054.000,1050.000,1058.000,1060.000,1028.000
3251.787,1068.000,1069.000,1076.000,1035.000,1093.000,1059.000
3254.425,1072.000,1086.000,1061.000,1071.000,1077.000,1083.000
3257.063,1073.000,1055.000,1054.000,1067.000,1061.000,1066.000
3259.698,1092.000,1089.000,1060.000,1076.000,1072.000,1060.000
3262.334,1083.000,1084.000,1077.000,1075.000,1083.000,1076.000
3264.969,1079.000,1063.000,1075.000,1076.000,1059.000,1063.000
3267.603,1112.000,1080.000,1102.000,1066.000,1067.000,1041.000
3270.234,1103.000,1079.000,1090.000,1083.000,1067.000,1054.000
3272.866,1084.000,1099.000,1074.000,1098.000,1056.000,1072.000
3275.497,1102.000,1116.000,1085.000,1076.000,1075.000,1090.000
3278.127,1103.000,1109.000,1091.000,1069.000,1091.000,1087.000
3280.757,1096.000,1082.000,1098.000,1074.000,1069.000,1082.000
3283.385,1089.000,1107.000,1103.000,1087.000,1117.000,1081.000
3286.013,1093.000,1105.000,1091.000,1066.000,1090.000,1082.000
3288.639,1092.000,1113.000,1091.000,1096.000,1074.000,1070.000
3291.264,1075.000,1122.000,1109.000,1124.000,1074.000,1091.000
3293.890,1110.000,1116.000,1079.000,1079.000,1076.000,1097.000
3296.512,1138.000,1099.000,1091.000,1083.000,1090.000,1079.000
3299.135,1114.000,1136.000,1116.000,1105.000,1102.000,1092.000
3301.757,1120.000,1089.000,1088.000,1110.000,1089.000,1084.000
3304.379,1110.000,1140.000,1116.000,1078.000,1116.000,1099.000
3306.999,1108.000,1116.000,1127.000,1120.000,1105.000,1114.000
3309.618,1112.000,1139.000,1136.000,1111.000,1110.000,1111.000
3312.237,1125.000,1136.000,1127.000,1144.000,1123.000,1091.000
3314.855,1139.000,1101.000,1134.000,1115.000,1114.000,1109.000
3317.472,1146.000,1113.000,1110.000,1113.000,1123.000,1120.000
3320.087,1134.000,1126.000,1130.000,1129.000,1117.000,1136.000
3322.701,1123.000,1121.000,1125.000,1125.000,1127.000,1129.000
3325.316,1132.000,1150.000,1142.000,1140.000,1137.000,1133.000
3327.928,1109.000,1121.000,1137.000,1112.000,1155.000,1133.000
3330.542,1138.000,1137.000,1142.000,1099.000,1141.000,1110.000
3333.153,1147.000,1141.000,1137.000,1132.000,1143.000,1125.000
3335.763,1151.000,1138.000,1157.000,1150.000,1139.000,1151.000
3338.373,1154.000,1138.000,1182.000,1126.000,1154.000,1124.000
3340.982,1160.000,1169.000,1133.000,1137.000,1162.000,1103.000
3343.591,1176.000,1148.000,1141.000,1146.000,1163.000,1150.000
3346.196,1158.000,1175.000,1148.000,1153.000,1143.000,1140.000
3348.803,1174.000,1183.000,1162.000,1148.000,1151.000,1151.000
3351.408,1156.000,1173.000,1176.000,1154.000,1160.000,1161.000
3354.012,1179.000,1143.000,1161.000,1140.000,1172.000,1162.000
3356.615,1175.000,1185.000,1151.000,1162.000,1146.000,1151.000
3359.218,1195.000,1187.000,1173.000,1174.000,1165.000,1159.000
3361.820,1153.000,1141.000,1170.000,1169.000,1179.000,1159.000
3364.421,1161.000,1189.000,1186.000,1157.000,1160.000,1173.000
3367.022,1182.000,1191.000,1182.000,1162.000,1172.000,1178.000
3369.619,1200.000,1202.000,1201.000,1198.000,1203.000,1178.000
3372.217,1205.000,1183.000,1200.000,1181.000,1171.000,1177.000
3374.815,1169.000,1207.000,1215.000,1175.000,1207.000,1172.000
3377.412,1192.000,1218.000,1186.000,1194.000,1215.000,1188.000
3380.008,1223.000,1195.000,1191.000,1184.000,1158.000,1179.000
3382.603,1191.000,1211.000,1201.000,1186.000,1192.000,1202.000
3385.196,1212.000,1203.000,1183.000,1173.000,1178.000,1195.000
3387.789,1230.000,1204.000,1212.000,1211.000,1190.000,1194.000
3390.382,1225.000,1209.000,1200.000,1219.000,1211.000,1214.000
3392.973,1208.000,1203.000,1207.000,1205.000,1211.000,1194.000
3395.562,1215.000,1212.000,1207.000,1207.000,1201.000,1199.000
3398.152,1203.000,1218.000,1216.000,1239.000,1196.000,1204.000
3400.740,1228.000,1219.000,1205.000,1202.000,1201.000,1203.000
3403.328,1226.000,1238.000,1229.000,1193.000,1235.000,1213.000
3405.916,1225.000,1241.000,1223.000,1246.000,1225.000,1195.000
3408.502,1229.000,1226.000,1258.000,1208.000,1232.000,1235.000
3411.087,1242.000,1233.000,1263.000,1215.000,1236.000,1210.000
3413.672,1221.000,1233.000,1255.000,1273.000,1232.000,1223.000
3416.255,1243.000,1249.000,1284.000,1252.000,1265.000,1219.000
3418.838,1274.000,1241.000,1233.000,1247.000,1251.000,1237.000
3421.418,1226.000,1279.000,1258.000,1248.000,1230.000,1230.000
3423.999,1245.000,1262.000,1238.000,1238.000,1265.000,1247.000
3426.579,1259.000,1260.000,1238.000,1245.000,1226.000,1219.000
3429.158,1261.000,1274.000,1238.000,1253.000,1256.000,1251.000
3431.737,1261.000,1269.000,1252.000,1246.000,1254.000,1276.000
3434.314,1270.000,1297.000,1234.000,1244.000,1247.000,1257.000
3436.891,1267.000,1246.000,1271.000,1246.000,1257.000,1215.000
3439.467,1256.000,1253.000,1267.000,1270.000,1253.000,1276.000
3442.041,1252.000,1290.000,1276.000,1236.000,1259.000,1266.000
3444.614,1257.000,1303.000,1275.000,1288.000,1257.000,1260.000
3447.188,1272.000,1282.000,1268.000,1285.000,1266.000,1287.000
3449.759,1240.000,1239.000,1264.000,1289.000,1251.000,1262.000
3452.331,1291.000,1269.000,1268.000,1287.000,1279.000,1251.000
3454.901,1266.000,1274.000,1275.000,1287.000,1265.000,1251.000
3457.472,1284.000,1287.000,1279.000,1291.000,1285.000,1270.000
3460.040,1257.000,1289.000,1269.000,1276.000,1259.000,1238.000
3462.608,1273.000,1294.000,1264.000,1262.000,1267.000,1281.000
3465.175,1301.000,1318.000,1277.000,1246.000,1310.000,1288.000
3467.740,1279.000,1275.000,1272.000,1251.000,1282.000,1246.000
3470.305,1276.000,1275.000,1253.000,1291.000,1267.000,1279.000
3472.870,1274.000,1262.000,1277.000,1291.000,1279.000,1268.000
3475.433,1259.000,1271.000,1279.000,1264.000,1275.000,1273.000
3477.997,1301.000,1295.000,1288.000,1273.000,1287.000,1248.000
3480.559,1261.000,1278.000,1274.000,1286.000,1278.000,1245.000
3483.120,1278.000,1262.000,1256.000,1260.000,1309.000,1258.000
3485.680,1264.000,1240.000,1266.000,1274.000,1263.000,1247.000
3488.239,1235.000,1295.000,1262.000,1232.000,1249.000,1275.000
3490.798,1275.000,1253.000,1258.000,1223.000,1243.000,1260.000
3493.354,1258.000,1277.000,1269.000,1246.000,1266.000,1245.000
3495.911,1254.000,1251.000,1286.000,1266.000,1239.000,1257.000
3498.467,1258.000,1293.000,1264.000,1256.000,1243.000,1255.000
3501.023,1284.000,1275.000,1242.000,1273.000,1231.000,1252.000
3503.577,1239.000,1245.000,1285.000,1267.000,1277.000,1253.000
3506.130,1253.000,1258.000,1277.000,1267.000,1266.000,1256.000
3508.683,1279.000,1282.000,1249.000,1273.000,1255.000,1245.000
3511.235,1229.000,1256.000,1245.000,1251.000,1234.000,1252.000
3513.785,1274.000,1261.000,1259.000,1243.000,1261.000,1237.000
3516.336,1229.000,1279.000,1216.000,1242.000,1229.000,1232.000
3518.883,1262.000,1259.000,1258.000,1218.000,1235.000,1226.000
3521.431,1250.000,1234.000,1246.000,1247.000,1257.000,1232.000
3523.979,1257.000,1253.000,1230.000,1222.000,1234.000,1220.000
3526.526,1269.000,1244.000,1245.000,1231.000,1209.000,1225.000
3529.072,1272.000,1243.000,1222.000,1230.000,1223.000,1255.000
3531.617,1231.000,1234.000,1230.000,1205.000,1224.000,1228.000
3534.160,1245.000,1269.000,1210.000,1205.000,1238.000,1230.000
3536.704,1246.000,1219.000,1242.000,1237.000,1248.000,1238.000
3539.246,1240.000,1234.000,1232.000,1244.000,1230.000,1227.000
3541.787,1235.000,1238.000,1219.000,1228.000,1209.000,1238.000
3544.327,1263.000,1217.000,1228.000,1207.000,1219.000,1215.000
3546.867,1229.000,1228.000,1230.000,1236.000,1251.000,1222.000
3549.406,1228.000,1217.000,1215.000,1234.000,1228.000,1209.000
3551.944,1222.000,1221.000,1208.000,1213.000,1203.000,1192.000
3554.482,1217.000,1224.000,1217.000,1200.000,1229.000,1215.000
3557.017,1240.000,1208.000,1202.000,1201.000,1214.000,1201.000
3559.553,1213.000,1215.000,1228.000,1205.000,1199.000,1218.000
3562.088,1238.000,1240.000,1211.000,1222.000,1191.000,1225.000
3564.623,1209.000,1223.000,1214.000,1201.000,1210.000,1200.000
3567.154,1229.000,1209.000,1210.000,1218.000,1213.000,1215.000
3569.686,1233.000,1231.000,1211.000,1209.000,1209.000,1193.000
3572.218,1227.000,1197.000,1220.000,1215.000,1232.000,1228.000
3574.749,1214.000,1216.000,1216.000,1210.000,1211.000,1180.000
3577.278,1219.000,1195.000,1254.000,1199.000,1206.000,1219.000
3579.807,1233.000,1201.000,1205.000,1183.000,1203.000,1220.000
3582.335,1209.000,1225.000,1195.000,1200.000,1190.000,1219.000
3584.862,1195.000,1232.000,1193.000,1209.000,1201.000,1194.000
3587.389,1220.000,1215.000,1230.000,1233.000,1206.000,1198.000
3589.914,1225.000,1209.000,1221.000,1207.000,1213.000,1188.000
3592.437,1238.000,1212.000,1262.000,1212.000,1207.000,1191.000
3594.961,1223.000,1238.000,1209.000,1218.000,1187.000,1200.000
3597.484,1243.000,1198.000,1215.000,1211.000,1222.000,1202.000
3600.006,1210.000,1219.000,1229.000,1225.000,1190.000,1188.000
3602.528,1203.000,1209.000,1173.000,1203.000,1212.000,1198.000
3605.048,1192.000,1214.000,1183.000,1204.000,1193.000,1204.000
3607.568,1212.000,1227.000,1193.000,1197.000,1182.000,1184.000
3610.086,1188.000,1187.000,1168.000,1186.000,1196.000,1187.000
3612.604,1183.000,1147.000,1184.000,1174.000,1175.000,1176.000
3615.120,1169.000,1160.000,1171.000,1211.000,1168.000,1144.000
3617.637,1176.000,1186.000,1175.000,1196.000,1199.000,1175.000
3620.153,1161.000,1151.000,1173.000,1167.000,1165.000,1186.000
3622.667,1223.000,1169.000,1173.000,1155.000,1150.000,1175.000
3625.181,1180.000,1182.000,1180.000,1167.000,1143.000,1179.000
3627.694,1189.000,1155.000,1170.000,1155.000,1123.000,1156.000
3630.206,1172.000,1154.000,1170.000,1143.000,1152.000,1132.000
3632.718,1158.000,1157.000,1157.000,1166.000,1131.000,1168.000
3635.227,1167.000,1182.000,1158.000,1146.000,1146.000,1148.000
3637.736,1159.000,1156.000,1148.000,1171.000,1145.000,1137.000
3640.245,1143.000,1151.000,1148.000,1157.000,1163.000,1171.000
3642.753,1154.000,1184.000,1159.000,1154.000,1155.000,1133.000
3645.260,1130.000,1144.000,1137.000,1131.000,1144.000,1151.000
3647.767,1151.000,1148.000,1129.000,1135.000,1119.000,1122.000
3650.272,1147.000,1166.000,1131.000,1138.000,1126.000,1116.000
3652.777,1141.000,1129.000,1124.000,1144.000,1132.000,1133.000
3655.281,1129.000,1094.000,1148.000,1141.000,1132.000,1123.000
3657.784,1118.000,1139.000,1136.000,1120.000,1118.000,1102.000
3660.286,1122.000,1133.000,1146.000,1136.000,1102.000,1080.000
3662.786,1133.000,1126.000,1102.000,1098.000,1093.000,1081.000
3665.286,1114.000,1108.000,1093.000,1088.000,1079.000,1099.000
3667.786,1099.000,1088.000,1107.000,1101.000,1096.000,1069.000
3670.285,1107.000,1098.000,1080.000,1082.000,1068.000,1088.000
3672.783,1077.000,1066.000,1081.000,1056.000,1069.000,1051.000
3675.280,1060.000,1046.000,1023.000,1027.000,1033.000,1044.000
3677.777,1052.000,1010.000,1042.000,1015.000,1031.000,1030.000
3680.272,1036.000,1036.000,1042.000,1019.000,1006.000,1012.000
3682.767,1012.000,996.000,1006.000,1001.000,1020.000,986.000
3685.262,1007.000,1019.000,974.000,1000.000,974.000,976.000
3687.753,1006.000,978.000,986.000,974.000,978.000,968.000
3690.245,966.000,982.000,938.000,954.000,983.000,968.000
3692.737,961.000,987.000,948.000,954.000,932.000,939.000
3695.228,943.000,949.000,941.000,934.000,931.000,947.000
3697.717,922.000,938.000,930.000,923.000,924.000,915.000
3700.206,947.000,917.000,915.000,909.000,908.000,910.000
3702.695,912.000,899.000,918.000,900.000,916.000,895.000
3705.181,908.000,883.000,916.000,897.000,898.000,891.000
3707.668,913.000,896.000,894.000,900.000,907.000,875.000
3710.152,894.000,919.000,890.000,897.000,883.000,890.000
3712.638,882.000,905.000,866.000,898.000,875.000,887.000
3715.122,878.000,889.000,896.000,875.000,895.000,872.000
3717.605,864.000,907.000,892.000,878.000,882.000,875.000
3720.087,870.000,864.000,894.000,879.000,874.000,873.000
3722.569,867.000,852.000,874.000,893.000,861.000,871.000
3725.050,868.000,875.000,851.000,857.000,877.000,849.000
3727.531,861.000,868.000,869.000,859.000,853.000,862.000
3730.009,1366.000,857.000,860.000,862.000,846.000,853.000
3732.487,862.000,875.000,858.000,853.000,851.000,836.000
3734.964,866.000,877.000,864.000,846.000,869.000,851.000
3737.441,851.000,857.000,867.000,855.000,840.000,859.000
3739.917,859.000,872.000,856.000,857.000,863.000,829.000
3742.392,849.000,859.000,847.000,850.000,849.000,846.000
3744.866,860.000,859.000,845.000,863.000,842.000,843.000
3747.340,854.000,841.000,858.000,843.000,850.000,830.000
3749.813,859.000,846.000,853.000,859.000,850.000,848.000
3752.284,862.000,857.000,857.000,849.000,843.000,840.000
3754.756,864.000,849.000,849.000,845.000,844.000,839.000
3757.226,855.000,848.000,846.000,835.000,831.000,828.000
3759.694,848.000,842.000,841.000,852.000,836.000,819.000
3762.162,858.000,844.000,830.000,840.000,824.000,846.000
3764.630,841.000,859.000,846.000,841.000,832.000,846.000
3767.097,869.000,846.000,843.000,860.000,819.000,821.000
3769.564,838.000,845.000,846.000,829.000,850.000,838.000
3772.029,842.000,844.000,844.000,833.000,842.000,827.000
3774.494,843.000,844.000,841.000,839.000,827.000,820.000
3776.957,854.000,844.000,856.000,831.000,824.000,830.000
3779.421,837.000,835.000,841.000,846.000,839.000,831.000
3781.882,846.000,830.000,830.000,848.000,825.000,837.000
3784.343,846.000,845.000,856.000,843.000,838.000,835.000
3786.803,842.000,839.000,841.000,819.000,840.000,829.000
3789.262,846.000,835.000,836.000,839.000,835.000,842.000
3791.722,848.000,843.000,829.000,834.000,839.000,828.000
3794.180,845.000,827.000,833.000,832.000,807.000,822.000
3796.637,848.000,846.000,831.000,826.000,841.000,818.000
3799.094,833.000,834.000,840.000,829.000,827.000,832.000
3801.550,843.000,833.000,826.000,831.000,821.000,812.000
3804.003,845.000,833.000,841.000,831.000,828.000,836.000
3806.457,844.000,845.000,827.000,818.000,810.000,819.000
3808.911,829.000,835.000,828.000,821.000,818.000,837.000
3811.363,832.000,843.000,842.000,822.000,824.000,829.000
3813.814,837.000,849.000,851.000,835.000,820.000,830.000
3816.266,861.000,843.000,837.000,832.000,814.000,830.000
3818.715,827.000,839.000,847.000,831.000,819.000,816.000
3821.165,852.000,838.000,838.000,820.000,837.000,828.000
3823.613,836.000,847.000,850.000,836.000,840.000,827.000
3826.061,855.000,837.000,831.000,845.000,831.000,828.000
3828.507,844.000,832.000,820.000,826.000,830.000,824.000
3830.953,834.000,847.000,820.000,815.000,824.000,828.000
3833.398,846.000,852.000,843.000,825.000,836.000,827.000
3835.842,855.000,839.000,838.000,836.000,812.000,836.000
3838.286,839.000,826.000,840.000,823.000,830.000,819.000
3840.730,832.000,846.000,846.000,822.000,5986.000,833.000
3843.172,835.000,820.000,839.000,835.000,832.000,822.000
3845.613,840.000,853.000,826.000,831.000,816.000,824.000
3848.053,849.000,832.000,830.000,821.000,816.000,836.000
3850.493,832.000,829.000,824.000,823.000,814.000,832.000
3852.931,844.000,825.000,833.000,832.000,835.000,819.000
3855.369,852.000,839.000,837.000,834.000,823.000,815.000
3857.807,844.000,859.000,844.000,817.000,827.000,816.000
3860.243,844.000,841.000,838.000,825.000,831.000,824.000
3862.679,856.000,836.000,845.000,825.000,833.000,822.000
3865.113,826.000,839.000,829.000,852.000,827.000,821.000
3867.547,835.000,855.000,845.000,830.000,828.000,835.000
3869.981,832.000,843.000,824.000,828.000,830.000,834.000
3872.413,849.000,843.000,825.000,830.000,825.000,828.000
3874.844,832.000,836.000,828.000,854.000,843.000,831.000
3877.275,847.000,856.000,826.000,823.000,831.000,836.000
3879.705,840.000,848.000,818.000,834.000,829.000,814.000
3882.134,839.000,840.000,827.000,824.000,817.000,831.000
3884.563,846.000,842.000,833.000,827.000,844.000,829.000
3886.991,841.000,841.000,835.000,824.000,832.000,840.000
3889.418,834.000,834.000,824.000,822.000,830.000,820.000
3891.844,863.000,836.000,821.000,823.000,826.000,821.000
3894.269,841.000,847.000,854.000,829.000,832.000,819.000
3896.693,838.000,830.000,827.000,847.000,831.000,824.000
3899.117,852.000,839.000,800.000,821.000,825.000,811.000
3901.540,835.000,838.000,842.000,838.000,816.000,834.000
3903.962,845.000,844.000,822.000,842.000,831.000,825.000
3906.383,852.000,827.000,843.000,831.000,827.000,829.000
3908.805,841.000,844.000,818.000,822.000,826.000,822.000
3911.224,842.000,843.000,831.000,837.000,811.000,816.000
3913.643,847.000,841.000,821.000,843.000,823.000,830.000
3916.062,828.000,835.000,819.000,839.000,840.000,832.000
3918.479,832.000,854.000,831.000,821.000,819.000,846.000
3920.897,839.000,827.000,839.000,834.000,807.000,815.000
3923.311,827.000,830.000,827.000,830.000,819.000,820.000
3925.726,831.000,836.000,830.000,811.000,827.000,820.000
3928.140,837.000,842.000,840.000,822.000,834.000,819.000
3930.554,832.000,801.000,830.000,834.000,818.000,818.000
3932.967,839.000,854.000,837.000,832.000,837.000,830.000
3935.379,832.000,831.000,850.000,820.000,814.000,810.000
3937.791,839.000,829.000,827.000,838.000,828.000,840.000
3940.201,838.000,851.000,823.000,842.000,813.000,822.000
3942.610,841.000,828.000,835.000,838.000,815.000,835.000
3945.018,845.000,821.000,835.000,836.000,823.000,822.000
3947.427,837.000,826.000,850.000,821.000,835.000,822.000
3949.834,842.000,823.000,825.000,815.000,836.000,831.000
3952.240,842.000,834.000,816.000,836.000,806.000,841.000
3954.647,834.000,830.000,819.000,818.000,838.000,829.000
3957.052,855.000,839.000,835.000,828.000,825.000,816.000
3959.456,842.000,840.000,819.000,829.000,823.000,827.000
3961.859,831.000,844.000,833.000,831.000,827.000,835.000
3964.261,834.000,827.000,841.000,831.000,831.000,811.000
3966.662,834.000,836.000,829.000,827.000,814.000,830.000
3969.064,854.000,843.000,827.000,850.000,836.000,816.000
3971.464,866.000,844.000,838.000,824.000,839.000,824.000
3973.863,843.000,826.000,821.000,831.000,831.000,831.000
3976.263,832.000,846.000,838.000,817.000,828.000,839.000
3978.661,859.000,839.000,832.000,840.000,814.000,837.000
3981.058,848.000,830.000,858.000,839.000,838.000,833.000
3983.454,863.000,857.000,852.000,827.000,828.000,822.000
3985.849,842.000,861.000,835.000,840.000,848.000,836.000
3988.245,842.000,844.000,847.000,844.000,846.000,831.000
3989.441,853.000,844.000,863.000,829.000,841.000,858.000