File: Raman/Silica/2025_08_22_AbNTS_MA10_S21_10GPa_Glass_50X_532nm_12mW_Andor750_600gv_26000wn_3accum_30s_UnPol_Pos1.csv
1770.807,2123.000,2091.000,2080.000
1772.395,2157.000,2122.000,2053.000
1773.980,2145.000,2073.000,2106.000
1775.567,2176.000,2159.000,2102.000
1777.152,2183.000,2146.000,2074.000
1778.737,2183.000,2087.000,2070.000
1780.323,2165.000,2142.000,2074.000
1781.908,2162.000,2112.000,2120.000
1783.493,2170.000,2116.000,2073.000
1785.077,2163.000,2145.000,2129.000
1786.662,2115.000,2122.000,2084.000
1788.246,2141.000,2117.000,2075.000
1789.828,2132.000,2099.000,2088.000
1791.411,2152.000,2110.000,2151.000
1792.995,2145.000,2106.000,2135.000
1794.578,2191.000,2124.000,2091.000
1796.160,2180.000,2109.000,2075.000
1797.742,2180.000,2108.000,2120.000
1799.324,2158.000,2104.000,2132.000
1800.906,2175.000,2160.000,2108.000
1802.485,2175.000,2114.000,2102.000
1804.067,2196.000,2102.000,2126.000
1805.647,2149.000,2094.000,2095.000
1807.227,2189.000,2103.000,2112.000
1808.807,2185.000,2093.000,2103.000
1810.387,2166.000,2127.000,2100.000
1811.967,2168.000,2113.000,2131.000
1813.544,2211.000,2075.000,2117.000
1815.124,2177.000,2083.000,2112.000
1816.703,2218.000,2156.000,2108.000
1818.281,2199.000,2121.000,2091.000
1819.859,2134.000,2100.000,2120.000
1821.437,2150.000,2128.000,2078.000
1823.015,2205.000,2127.000,2082.000
1824.592,2140.000,2107.000,2105.000
1826.167,2170.000,2128.000,2087.000
1827.743,2148.000,2074.000,2096.000
1829.320,2188.000,2115.000,2079.000
1830.896,2175.000,2170.000,2080.000
1832.472,2146.000,2182.000,2089.000
1834.047,2152.000,2154.000,2137.000
1835.622,2210.000,2177.000,2125.000
1837.197,2150.000,2102.000,2094.000
1838.770,2163.000,2114.000,2112.000
1840.344,2132.000,2171.000,2112.000
1841.918,2162.000,2114.000,2087.000
1843.492,2155.000,2142.000,2107.000
1845.066,2196.000,2110.000,2123.000
1846.639,2194.000,2115.000,2108.000
1848.212,2208.000,2136.000,2124.000
1849.782,2199.000,2132.000,2139.000
1851.355,2201.000,2087.000,2101.000
1852.926,2164.000,2093.000,2125.000
1854.498,2207.000,2147.000,2114.000
1856.070,2158.000,2083.000,2148.000
1857.641,2202.000,2134.000,2152.000
1859.212,2179.000,2133.000,2103.000
1860.782,2205.000,2156.000,2136.000
1862.351,2172.000,2157.000,2142.000
1863.921,2191.000,2170.000,2167.000
1865.490,2220.000,2155.000,2161.000
1867.059,2241.000,2182.000,2110.000
1868.628,2180.000,2169.000,2111.000
1870.198,2214.000,2106.000,2115.000
1871.766,2202.000,2126.000,2157.000
1873.333,2244.000,2137.000,2108.000
1874.901,2218.000,2115.000,2146.000
1876.468,2185.000,2167.000,2155.000
1878.035,2215.000,2165.000,2129.000
1879.603,2183.000,2154.000,2112.000
1881.169,2179.000,2180.000,2139.000
1882.736,2193.000,2155.000,2119.000
1884.301,2169.000,2138.000,2155.000
1885.866,2214.000,2168.000,2108.000
1887.432,2216.000,2131.000,2151.000
1888.996,2199.000,2169.000,2107.000
1890.562,2220.000,2195.000,2099.000
1892.127,2187.000,2198.000,2136.000
1893.691,2232.000,2136.000,2171.000
1895.255,2223.000,2178.000,2137.000
1896.818,2279.000,2166.000,2169.000
1898.381,2211.000,2164.000,2125.000
1899.944,2225.000,2172.000,2161.000
1901.506,2251.000,2145.000,2169.000
1903.070,2210.000,2134.000,2192.000
1904.632,2184.000,2194.000,2162.000
1906.194,2229.000,2176.000,2135.000
1907.756,2213.000,2171.000,2130.000
1909.316,2225.000,2180.000,2142.000
1910.877,2208.000,2196.000,2195.000
1912.438,2222.000,2175.000,2165.000
1913.999,2224.000,2159.000,2132.000
1915.559,2193.000,2183.000,2118.000
1917.119,2240.000,2163.000,2127.000
1918.679,2245.000,2147.000,2146.000
1920.239,2255.000,2154.000,2171.000
1921.796,2197.000,2199.000,2139.000
1923.355,2237.000,2222.000,2172.000
1924.914,2221.000,2148.000,2146.000
1926.472,2221.000,2205.000,2150.000
1928.031,2206.000,2172.000,2183.000
1929.588,2263.000,2230.000,2179.000
1931.146,2247.000,2180.000,2165.000
1932.702,2277.000,2151.000,2132.000
1934.258,2272.000,2196.000,2179.000
1935.814,2235.000,2174.000,2146.000
1937.371,2243.000,2161.000,2177.000
1938.927,2288.000,2205.000,2149.000
1940.482,2214.000,2150.000,2190.000
1942.038,2234.000,2226.000,2160.000
1943.593,2251.000,2190.000,2137.000
1945.147,2233.000,2167.000,2179.000
1946.701,2232.000,2139.000,2158.000
1948.255,2228.000,2139.000,2170.000
1949.809,2234.000,2187.000,2179.000
1951.364,2262.000,2215.000,2158.000
1952.917,2227.000,2183.000,2150.000
1954.470,2298.000,2138.000,2183.000
1956.023,2264.000,2204.000,2162.000
1957.573,2275.000,2232.000,2131.000
1959.126,2264.000,2193.000,2148.000
1960.678,2237.000,2175.000,2156.000
1962.230,2224.000,2220.000,2205.000
1963.782,2240.000,2176.000,2159.000
1965.332,2253.000,2192.000,2173.000
1966.883,2258.000,2208.000,2169.000
1968.432,2196.000,2222.000,2175.000
1969.983,2256.000,2251.000,2202.000
1971.533,2249.000,2195.000,2180.000
1973.082,2295.000,2144.000,2165.000
1974.632,2258.000,2231.000,2152.000
1976.181,2265.000,2236.000,2206.000
1977.731,2246.000,2203.000,2173.000
1979.279,2319.000,2189.000,2161.000
1980.825,2252.000,2191.000,2175.000
1982.373,2257.000,2201.000,2196.000
1983.922,2260.000,2235.000,2147.000
1985.469,2258.000,2222.000,2176.000
1987.016,2280.000,2197.000,2188.000
1988.563,2314.000,2179.000,2133.000
1990.109,2300.000,2189.000,2221.000
1991.656,2246.000,2237.000,2173.000
1993.200,2293.000,2205.000,2175.000
1994.746,2260.000,2254.000,2161.000
1996.292,2244.000,2222.000,2162.000
1997.837,2266.000,2223.000,2220.000
1999.381,2257.000,2219.000,2216.000
2000.926,2246.000,2192.000,2189.000
2002.471,2206.000,2242.000,2190.000
2004.012,2250.000,2233.000,2208.000
2005.556,2278.000,2207.000,2183.000
2007.100,2261.000,2217.000,2203.000
2008.643,2275.000,2213.000,2189.000
2010.186,2317.000,2220.000,2202.000
2011.728,2272.000,2227.000,2198.000
2013.271,2255.000,2216.000,2174.000
2014.813,2320.000,2195.000,2189.000
2016.354,2264.000,2212.000,2201.000
2017.895,2265.000,2199.000,2155.000
2019.436,2324.000,2217.000,2185.000
2020.978,2288.000,2214.000,2198.000
2022.518,2324.000,2220.000,2166.000
2024.058,2261.000,2231.000,2231.000
2025.598,2312.000,2197.000,2205.000
2027.138,2338.000,2234.000,2208.000
2028.676,2285.000,2251.000,2193.000
2030.215,2296.000,2231.000,2239.000
2031.754,2301.000,2184.000,2186.000
2033.293,2278.000,2228.000,2197.000
2034.831,2271.000,2259.000,2196.000
2036.370,2322.000,2247.000,2216.000
2037.908,2290.000,2227.000,2186.000
2039.443,2319.000,2216.000,2213.000
2040.980,2285.000,2202.000,2216.000
2042.518,2295.000,2232.000,2201.000
2044.055,2311.000,2214.000,2253.000
2045.590,2247.000,2244.000,2214.000
2047.127,2281.000,2224.000,2172.000
2048.662,2265.000,2200.000,2229.000
2050.198,2324.000,2257.000,2205.000
2051.732,2315.000,2206.000,2207.000
2053.267,2295.000,2251.000,2224.000
2054.802,2280.000,2239.000,2222.000
2056.336,2284.000,2254.000,2235.000
2057.871,2329.000,2248.000,2213.000
2059.404,2315.000,2249.000,2187.000
2060.938,2288.000,2253.000,2247.000
2062.472,2290.000,2302.000,2280.000
2064.002,2323.000,2265.000,2223.000
2065.536,2293.000,2251.000,2231.000
2067.068,2307.000,2231.000,2233.000
2068.600,2311.000,2288.000,2243.000
2070.132,2301.000,2274.000,2180.000
2071.664,2278.000,2294.000,2263.000
2073.195,2308.000,2249.000,2212.000
2074.724,2325.000,2231.000,2208.000
2076.255,2291.000,2229.000,2240.000
2077.786,2299.000,2226.000,2254.000
2079.316,2311.000,2232.000,2169.000
2080.847,2340.000,2261.000,2241.000
2082.376,2322.000,2235.000,2220.000
2083.905,2371.000,2232.000,2223.000
2085.434,2398.000,2273.000,2281.000
2086.962,2312.000,2298.000,2231.000
2088.490,2290.000,2245.000,2242.000
2090.018,2303.000,2259.000,2265.000
2091.546,2386.000,2274.000,2202.000
2093.074,2349.000,2269.000,2239.000
2094.601,2299.000,2272.000,2238.000
2096.128,2331.000,2286.000,2292.000
2097.656,2307.000,2280.000,2237.000
2099.181,2299.000,2255.000,2214.000
2100.707,2370.000,2235.000,2251.000
2102.233,2321.000,2294.000,2231.000
2103.758,2399.000,2265.000,2262.000
2105.284,2343.000,2250.000,2230.000
2106.810,2326.000,2321.000,2229.000
2108.335,2343.000,2226.000,2205.000
2109.857,2333.000,2247.000,2293.000
2111.381,2343.000,2259.000,2211.000
2112.906,2315.000,2306.000,2221.000
2114.430,2325.000,2265.000,2272.000
2115.953,2343.000,2280.000,2279.000
2117.477,2336.000,2263.000,2275.000
2118.999,2343.000,2294.000,2203.000
2120.522,2346.000,2269.000,2236.000
2122.042,2303.000,2276.000,2257.000
2123.565,2371.000,2276.000,2304.000
2125.087,2407.000,2298.000,2284.000
2126.608,2352.000,2282.000,2249.000
2128.130,2338.000,2275.000,2253.000
2129.651,2318.000,2262.000,2299.000
2131.172,2325.000,2271.000,2241.000
2132.691,2376.000,2257.000,2250.000
2134.211,2358.000,2253.000,2234.000
2135.731,2337.000,2292.000,2247.000
2137.251,2339.000,2271.000,2244.000
2138.770,2390.000,2291.000,2214.000
2140.289,2317.000,2263.000,2307.000
2141.807,2335.000,2260.000,2272.000
2143.327,2356.000,2303.000,2253.000
2144.842,2356.000,2270.000,2290.000
2146.360,2391.000,2285.000,2218.000
2147.879,2352.000,2285.000,2235.000
2149.397,2343.000,2263.000,2261.000
2150.913,2385.000,2263.000,2210.000
2152.430,2308.000,2316.000,2246.000
2153.947,2335.000,2299.000,2239.000
2155.463,2317.000,2235.000,2213.000
2156.978,2363.000,2254.000,2252.000
2158.493,2304.000,2270.000,2271.000
2160.009,2361.000,2295.000,2269.000
2161.524,2314.000,2269.000,2270.000
2163.039,2356.000,2300.000,2282.000
2164.554,2371.000,2258.000,2207.000
2166.068,2349.000,2342.000,2295.000
2167.581,2398.000,2258.000,2244.000
2169.094,2311.000,2279.000,2273.000
2170.609,2343.000,2283.000,2277.000
2172.121,2355.000,2261.000,2274.000
2173.634,2315.000,2288.000,2258.000
2175.148,2307.000,2289.000,2216.000
2176.660,2320.000,2287.000,2283.000
2178.172,2330.000,2304.000,2269.000
2179.682,2310.000,2311.000,2245.000
2181.194,2312.000,2296.000,2272.000
2182.705,2351.000,2283.000,2269.000
2184.216,2339.000,2252.000,2282.000
2185.727,2337.000,2246.000,2310.000
2187.237,2314.000,2245.000,2240.000
2188.748,2323.000,2242.000,2278.000
2190.256,2351.000,2306.000,2280.000
2191.766,2380.000,2303.000,2284.000
2193.276,2298.000,2266.000,2229.000
2194.785,2363.000,2278.000,2227.000
2196.293,2353.000,2263.000,2252.000
2197.802,2331.000,2285.000,2205.000
2199.311,2426.000,2319.000,2210.000
2200.818,2339.000,2290.000,2213.000
2202.325,2308.000,2290.000,2267.000
2203.832,2394.000,2301.000,2292.000
2205.340,2358.000,2289.000,2259.000
2206.846,2364.000,2304.000,2291.000
2208.354,2354.000,2310.000,2247.000
2209.860,2337.000,2277.000,2290.000
2211.366,2385.000,2288.000,2267.000
2212.872,2371.000,2262.000,2283.000
2214.376,2339.000,2304.000,2238.000
2215.881,2353.000,2274.000,2238.000
2217.387,2379.000,2289.000,2270.000
2218.891,2389.000,2321.000,2285.000
2220.396,2379.000,2275.000,2279.000
2221.900,2373.000,2293.000,2241.000
2223.404,2407.000,2313.000,2248.000
2224.906,2363.000,2335.000,2257.000
2226.409,2341.000,2292.000,2245.000
2227.913,2301.000,2305.000,2298.000
2229.416,2395.000,2307.000,2357.000
2230.918,2371.000,2275.000,2287.000
2232.420,2323.000,2260.000,2313.000
2233.922,2329.000,2280.000,2280.000
2235.424,2377.000,2269.000,2262.000
2236.925,2383.000,2295.000,2248.000
2238.425,2354.000,2275.000,2271.000
2239.927,2384.000,2289.000,2343.000
2241.428,2387.000,2336.000,2267.000
2242.928,2379.000,2292.000,2305.000
2244.428,2381.000,2314.000,2306.000
2245.928,2391.000,2282.000,2294.000
2247.428,2357.000,2271.000,2260.000
2248.925,2377.000,2310.000,2275.000
2250.424,2367.000,2283.000,2313.000
2251.922,2400.000,2303.000,2320.000
2253.422,2342.000,2315.000,2283.000
2254.920,2410.000,2316.000,2298.000
2256.417,2408.000,2316.000,2305.000
2257.915,2405.000,2319.000,2228.000
2259.411,2455.000,2308.000,2245.000
2260.908,2354.000,2321.000,2287.000
2262.406,2476.000,2299.000,2313.000
2263.902,2352.000,2349.000,2324.000
2265.399,2384.000,2350.000,2318.000
2266.895,2409.000,2293.000,2311.000
2268.390,2417.000,2303.000,2264.000
2269.886,2371.000,2283.000,2318.000
2271.380,2379.000,2335.000,2299.000
2272.875,2374.000,2297.000,2255.000
2274.370,2379.000,2332.000,2317.000
2275.864,2399.000,2317.000,2334.000
2277.358,2350.000,2296.000,2310.000
2278.852,2400.000,2295.000,2326.000
2280.345,2358.000,2333.000,2262.000
2281.839,2384.000,2327.000,2266.000
2283.330,2400.000,2369.000,2308.000
2284.824,2391.000,2329.000,2268.000
2286.316,2409.000,2354.000,2321.000
2287.809,2359.000,2358.000,2278.000
2289.300,2388.000,2298.000,2302.000
2290.792,2376.000,2273.000,2329.000
2292.284,2466.000,2320.000,2295.000
2293.774,2391.000,2321.000,2333.000
2295.264,2379.000,2359.000,2345.000
2296.755,2435.000,2390.000,2321.000
2298.245,2422.000,2356.000,2315.000
2299.735,2395.000,2335.000,2310.000
2301.225,2451.000,2374.000,2328.000
2302.716,2412.000,2359.000,2321.000
2304.204,2404.000,2369.000,2324.000
2305.692,2439.000,2338.000,2298.000
2307.180,2450.000,2339.000,2327.000
2308.669,2446.000,2295.000,2342.000
2310.158,2390.000,2363.000,2329.000
2311.646,2430.000,2332.000,2339.000
2313.134,2382.000,2312.000,2271.000
2314.620,2410.000,2355.000,2361.000
2316.108,2409.000,2324.000,2303.000
2317.593,2445.000,2322.000,2336.000
2319.080,2416.000,2360.000,2360.000
2320.567,2457.000,2412.000,2343.000
2322.052,2408.000,2358.000,2258.000
2323.539,2424.000,2354.000,2308.000
2325.024,2487.000,2383.000,2343.000
2326.510,2446.000,2397.000,2351.000
2327.993,2408.000,2357.000,2339.000
2329.477,2452.000,2336.000,2347.000
2330.963,2426.000,2354.000,2340.000
2332.446,2475.000,2365.000,2337.000
2333.930,2483.000,2395.000,2311.000
2335.414,2425.000,2277.000,2327.000
2336.897,2474.000,2367.000,2343.000
2338.381,2443.000,2361.000,2370.000
2339.861,2477.000,2386.000,2392.000
2341.344,2451.000,2388.000,2336.000
2342.826,2457.000,2357.000,2340.000
2344.310,2457.000,2385.000,2370.000
2345.792,2503.000,2391.000,2368.000
2347.272,2493.000,2453.000,2428.000
2348.754,2472.000,2401.000,2381.000
2350.235,2455.000,2416.000,2345.000
2351.714,2515.000,2379.000,2338.000
2353.194,2445.000,2339.000,2370.000
2354.675,2415.000,2356.000,2290.000
2356.155,2431.000,2386.000,2344.000
2357.634,2403.000,2339.000,2368.000
2359.114,2453.000,2298.000,2371.000
2360.594,2482.000,2364.000,2333.000
2362.071,2443.000,2407.000,2360.000
2363.550,2436.000,2335.000,2338.000
2365.028,2459.000,2363.000,2357.000
2366.505,2520.000,2380.000,2395.000
2367.984,2448.000,2338.000,2387.000
2369.461,2471.000,2379.000,2378.000
2370.938,2462.000,2343.000,2389.000
2372.416,2482.000,2357.000,2379.000
2373.891,2445.000,2345.000,2327.000
2375.367,2414.000,2439.000,2333.000
2376.843,2438.000,2389.000,2345.000
2378.319,2412.000,2395.000,2388.000
2379.795,2456.000,2394.000,2357.000
2381.270,2458.000,2383.000,2357.000
2382.746,2437.000,2371.000,2364.000
2384.219,2430.000,2386.000,2392.000
2385.694,2476.000,2365.000,2344.000
2387.168,2415.000,2410.000,2392.000
2388.643,2442.000,2361.000,2342.000
2390.117,2468.000,2396.000,2412.000
2391.590,2459.000,2397.000,2340.000
2393.063,2473.000,2354.000,2358.000
2394.537,2483.000,2413.000,2381.000
2396.007,2461.000,2337.000,2402.000
2397.480,2457.000,2347.000,2384.000
2398.953,2457.000,2390.000,2423.000
2400.424,2463.000,2393.000,2370.000
2401.897,2435.000,2431.000,2417.000
2403.368,2486.000,2367.000,2350.000
2404.839,2440.000,2416.000,2329.000
2406.309,2450.000,2380.000,2312.000
2407.779,2455.000,2431.000,2409.000
2409.250,2479.000,2365.000,2388.000
2410.720,2471.000,2370.000,2377.000
2412.190,2503.000,2377.000,2385.000
2413.659,2494.000,2369.000,2353.000
2415.129,2458.000,2386.000,2359.000
2416.598,2410.000,2353.000,2341.000
2418.065,2493.000,2439.000,2339.000
2419.534,2442.000,2395.000,2359.000
2421.002,2483.000,2374.000,2351.000
2422.470,2501.000,2387.000,2396.000
2423.938,2493.000,2370.000,2367.000
2425.406,2423.000,2409.000,2369.000
2426.872,2445.000,2358.000,2385.000
2428.339,2497.000,2389.000,2364.000
2429.805,2467.000,2375.000,2345.000
2431.272,2474.000,2424.000,2330.000
2432.737,2453.000,2387.000,2382.000
2434.203,2442.000,2369.000,2344.000
2435.669,2451.000,2382.000,2369.000
2437.134,2443.000,2397.000,2340.000
2438.600,2429.000,2341.000,2336.000
2440.064,2463.000,2379.000,2324.000
2441.528,2466.000,2396.000,2349.000
2442.993,2430.000,2391.000,2409.000
2444.456,2476.000,2409.000,2366.000
2445.920,2494.000,2370.000,2322.000
2447.384,2457.000,2346.000,2308.000
2448.847,2472.000,2364.000,2357.000
2450.310,2445.000,2376.000,2336.000
2451.771,2421.000,2403.000,2382.000
2453.234,2482.000,2362.000,2372.000
2454.697,2485.000,2311.000,2328.000
2456.158,2447.000,2383.000,2381.000
2457.620,2453.000,2366.000,2332.000
2459.082,2471.000,2417.000,2364.000
2460.543,2465.000,2384.000,2347.000
2462.004,2464.000,2364.000,2352.000
2463.463,2459.000,2393.000,2392.000
2464.924,2495.000,2382.000,2424.000
2466.384,2476.000,2362.000,2378.000
2467.844,2465.000,2345.000,2373.000
2469.304,2472.000,2431.000,2359.000
2470.763,2442.000,2438.000,2354.000
2472.222,2478.000,2397.000,2339.000
2473.680,2481.000,2403.000,2325.000
2475.138,2489.000,2380.000,2372.000
2476.596,2457.000,2381.000,2367.000
2478.054,2501.000,2442.000,2307.000
2479.512,2461.000,2409.000,2379.000
2480.970,2477.000,2407.000,2398.000
2482.427,2448.000,2396.000,2371.000
2483.885,2492.000,2399.000,2342.000
2485.340,2505.000,2360.000,2397.000
2486.796,2513.000,2409.000,2377.000
2488.252,2464.000,2403.000,2461.000
2489.709,2521.000,2406.000,2386.000
2491.164,2497.000,2372.000,2379.000
2492.619,2519.000,2391.000,2384.000
2494.076,2461.000,2433.000,2342.000
2495.530,2506.000,2433.000,2390.000
2496.984,2489.000,2440.000,2365.000
2498.438,2487.000,2451.000,2397.000
2499.892,2426.000,2426.000,2420.000
2501.346,2460.000,2440.000,2385.000
2502.800,2477.000,2404.000,2337.000
2504.253,2498.000,2446.000,2416.000
2505.707,2476.000,2431.000,2368.000
2507.157,2543.000,2453.000,2435.000
2508.610,2478.000,2420.000,2412.000
2510.063,2525.000,2402.000,2412.000
2511.515,2461.000,2407.000,2411.000
2512.966,2476.000,2371.000,2424.000
2514.418,2510.000,2407.000,2372.000
2515.870,2509.000,2428.000,2363.000
2517.320,2515.000,2358.000,2363.000
2518.770,2498.000,2435.000,2388.000
2520.220,2498.000,2432.000,2403.000
2521.671,2469.000,2420.000,2371.000
2523.121,2524.000,2463.000,2410.000
2524.571,2597.000,2380.000,2409.000
2526.020,2488.000,2494.000,2376.000
2527.469,2516.000,2478.000,2436.000
2528.919,2515.000,2400.000,2414.000
2530.366,2511.000,2431.000,2383.000
2531.814,2455.000,2420.000,2438.000
2533.263,2556.000,2414.000,2432.000
2534.710,2582.000,2473.000,2423.000
2536.159,2486.000,2456.000,2409.000
2537.606,2488.000,2457.000,2425.000
2539.054,2561.000,2440.000,2437.000
2540.498,2466.000,2451.000,2421.000
2541.946,2500.000,2407.000,2444.000
2543.391,2517.000,2391.000,2434.000
2544.838,2529.000,2419.000,2475.000
2546.284,2527.000,2406.000,2472.000
2547.730,2563.000,2427.000,2434.000
2549.175,2503.000,2443.000,2423.000
2550.621,2537.000,2493.000,2406.000
2552.063,2532.000,2471.000,2426.000
2553.508,2547.000,2439.000,2431.000
2554.953,2538.000,2470.000,2442.000
2556.397,2533.000,2449.000,2450.000
2557.841,2508.000,2449.000,2476.000
2559.284,2510.000,2453.000,2433.000
2560.728,2567.000,2430.000,2448.000
2562.172,2552.000,2452.000,2448.000
2563.613,2508.000,2488.000,2416.000
2565.055,2524.000,2494.000,2431.000
2566.498,2539.000,2479.000,2484.000
2567.940,2574.000,2430.000,2440.000
2569.381,2524.000,2525.000,2425.000
2570.822,2566.000,2444.000,2438.000
2572.264,2517.000,2452.000,2408.000
2573.704,2544.000,2496.000,2444.000
2575.145,2572.000,2451.000,2443.000
2576.585,2554.000,2434.000,2418.000
2578.025,2560.000,2471.000,2433.000
2579.465,2521.000,2445.000,2498.000
2580.905,2577.000,2504.000,2444.000
2582.345,2535.000,2471.000,2490.000
2583.784,2563.000,2488.000,2416.000
2585.222,2583.000,2505.000,2492.000
2586.661,2587.000,2493.000,2447.000
2588.098,2625.000,2472.000,2466.000
2589.537,2518.000,2461.000,2472.000
2590.975,2614.000,2490.000,2488.000
2592.413,2531.000,2545.000,2465.000
2593.850,2587.000,2477.000,2459.000
2595.286,2551.000,2494.000,2455.000
2596.722,2597.000,2506.000,2477.000
2598.160,2528.000,2499.000,2411.000
2599.597,2573.000,2501.000,2475.000
2601.032,2552.000,2535.000,2476.000
2602.469,2643.000,2500.000,2498.000
2603.904,2580.000,2460.000,2465.000
2605.340,2543.000,2459.000,2499.000
2606.774,2535.000,2516.000,2509.000
2608.208,2597.000,2546.000,2483.000
2609.643,2589.000,2523.000,2484.000
2611.078,2547.000,2512.000,2487.000
2612.512,2584.000,2515.000,2475.000
2613.945,2588.000,2543.000,2520.000
2615.379,2591.000,2498.000,2464.000
2616.812,2628.000,2535.000,2435.000
2618.244,2583.000,2484.000,2488.000
2619.677,2622.000,2486.000,2507.000
2621.110,2562.000,2495.000,2443.000
2622.542,2586.000,2515.000,2465.000
2623.974,2580.000,2579.000,2480.000
2625.406,2561.000,2528.000,2462.000
2626.838,2617.000,2491.000,2525.000
2628.268,2647.000,2535.000,2523.000
2629.699,2606.000,2521.000,2452.000
2631.130,2657.000,2509.000,2521.000
2632.561,2576.000,2475.000,2489.000
2633.990,2601.000,2494.000,2499.000
2635.421,2572.000,2507.000,2483.000
2636.851,2623.000,2519.000,2474.000
2638.280,2689.000,2553.000,2570.000
2639.709,2579.000,2516.000,2495.000
2641.137,2630.000,2500.000,2480.000
2642.567,2567.000,2536.000,2550.000
2643.995,2658.000,2562.000,2479.000
2645.424,2604.000,2533.000,2562.000
2646.851,2576.000,2557.000,2515.000
2648.279,2613.000,2563.000,2519.000
2649.705,2600.000,2545.000,2518.000
2651.133,2653.000,2560.000,2478.000
2652.560,2600.000,2534.000,2503.000
2653.987,2570.000,2563.000,2529.000
2655.413,2593.000,2574.000,2489.000
2656.839,2627.000,2516.000,2474.000
2658.265,2638.000,2551.000,2539.000
2659.691,2617.000,2581.000,2514.000
2661.115,2660.000,2552.000,2531.000
2662.541,2575.000,2540.000,2550.000
2663.966,2615.000,2555.000,2507.000
2665.391,2669.000,2541.000,2575.000
2666.815,2586.000,2511.000,2536.000
2668.240,2624.000,2560.000,2563.000
2669.664,2618.000,2568.000,2511.000
2671.087,2613.000,2537.000,2514.000
2672.510,2664.000,2558.000,2537.000
2673.933,2650.000,2594.000,2497.000
2675.356,2577.000,2607.000,2539.000
2676.779,2634.000,2555.000,2547.000
2678.202,2672.000,2577.000,2555.000
2679.624,2635.000,2604.000,2537.000
2681.046,2671.000,2592.000,2542.000
2682.466,2645.000,2547.000,2565.000
2683.887,2669.000,2550.000,2550.000
2685.309,2676.000,2581.000,2557.000
2686.730,2642.000,2570.000,2507.000
2688.150,2701.000,2590.000,2528.000
2689.572,2615.000,2594.000,2560.000
2690.992,2651.000,2575.000,2611.000
2692.412,2595.000,2548.000,2580.000
2693.830,2653.000,2632.000,2563.000
2695.249,2654.000,2624.000,2508.000
2696.668,2639.000,2560.000,2542.000
2698.088,2658.000,2590.000,2561.000
2699.507,2622.000,2544.000,2585.000
2700.926,2675.000,2573.000,2557.000
2702.344,2661.000,2536.000,2540.000
2703.762,2646.000,2546.000,2476.000
2705.178,2687.000,2608.000,2608.000
2706.595,2633.000,2617.000,2586.000
2708.013,2760.000,2590.000,2573.000
2709.430,2688.000,2565.000,2537.000
2710.847,2663.000,2545.000,2570.000
2712.263,2647.000,2622.000,2530.000
2713.679,2640.000,2604.000,2589.000
2715.095,2664.000,2617.000,2563.000
2716.510,2608.000,2522.000,2574.000
2717.926,2680.000,2583.000,2572.000
2719.340,2639.000,2612.000,2519.000
2720.756,2645.000,2594.000,2502.000
2722.170,2671.000,2590.000,2529.000
2723.585,2670.000,2555.000,2579.000
2724.999,2631.000,2590.000,2553.000
2726.413,2728.000,2577.000,2575.000
2727.826,2641.000,2612.000,2548.000
2729.239,2656.000,2592.000,2533.000
2730.652,2623.000,2570.000,2555.000
2732.066,2626.000,2553.000,2557.000
2733.479,2683.000,2613.000,2508.000
2734.891,2678.000,2555.000,2586.000
2736.303,2677.000,2600.000,2599.000
2737.714,2709.000,2602.000,2561.000
2739.126,2682.000,2638.000,2530.000
2740.537,2637.000,2568.000,2550.000
2741.949,2670.000,2612.000,2524.000
2743.360,2675.000,2602.000,2581.000
2744.771,2611.000,2575.000,2590.000
2746.181,2670.000,2584.000,2618.000
2747.591,2623.000,2577.000,2573.000
2749.001,2691.000,2626.000,2456.000
2750.410,2657.000,2584.000,2591.000
2751.820,2684.000,2578.000,2560.000
2753.229,2661.000,2563.000,2542.000
2754.639,2691.000,2574.000,2545.000
2756.047,2623.000,2586.000,2535.000
2757.456,2671.000,2527.000,2548.000
2758.862,2664.000,2566.000,2531.000
2760.271,2673.000,2570.000,2576.000
2761.678,2640.000,2578.000,2519.000
2763.087,2670.000,2608.000,2563.000
2764.493,2636.000,2562.000,2549.000
2765.901,2591.000,2579.000,2538.000
2767.308,2675.000,2600.000,2603.000
2768.714,2613.000,2582.000,2531.000
2770.120,2590.000,2629.000,2565.000
2771.526,2625.000,2597.000,2547.000
2772.931,2649.000,2563.000,2512.000
2774.337,2654.000,2574.000,2535.000
2775.742,2684.000,2535.000,2560.000
2777.148,2656.000,2622.000,2546.000
2778.553,2649.000,2630.000,2563.000
2779.956,2675.000,2604.000,2579.000
2781.359,2635.000,2588.000,2503.000
2782.765,2663.000,2574.000,2583.000
2784.169,2630.000,2618.000,2530.000
2785.571,2693.000,2579.000,2537.000
2786.975,2624.000,2546.000,2524.000
2788.378,2598.000,2571.000,2572.000
2789.781,2724.000,2589.000,2555.000
2791.183,2615.000,2639.000,2602.000
2792.585,2648.000,2577.000,2551.000
2793.987,2683.000,2620.000,2548.000
2795.389,2630.000,2586.000,2592.000
2796.791,2638.000,2586.000,2595.000
2798.192,2634.000,2622.000,2519.000
2799.594,2635.000,2578.000,2580.000
2800.994,2697.000,2635.000,2582.000
2802.393,2699.000,2594.000,2611.000
2803.794,2612.000,2546.000,2574.000
2805.194,2704.000,2574.000,2591.000
2806.595,2661.000,2613.000,2620.000
2807.994,2666.000,2592.000,2601.000
2809.393,2698.000,2602.000,2615.000
2810.793,2654.000,2550.000,2524.000
2812.191,2600.000,2592.000,2561.000
2813.589,2697.000,2591.000,2578.000
2814.988,2673.000,2603.000,2593.000
2816.387,2656.000,2629.000,2568.000
2817.785,2727.000,2577.000,2542.000
2819.182,2713.000,2576.000,2593.000
2820.580,2650.000,2584.000,2577.000
2821.976,2706.000,2587.000,2600.000
2823.373,2682.000,2577.000,2575.000
2824.770,2711.000,2574.000,2563.000
2826.165,2679.000,2621.000,2555.000
2827.562,2698.000,2596.000,2572.000
2828.958,2642.000,2646.000,2574.000
2830.354,2674.000,2608.000,2583.000
2831.750,2655.000,2576.000,2576.000
2833.144,2696.000,2593.000,2566.000
2834.538,2659.000,2592.000,2584.000
2835.934,2676.000,2601.000,2622.000
2837.328,2690.000,2590.000,2609.000
2838.722,2588.000,2598.000,2564.000
2840.117,2698.000,2621.000,2593.000
2841.510,2714.000,2635.000,2586.000
2842.904,2687.000,2637.000,2611.000
2844.296,2660.000,2631.000,2556.000
2845.689,2644.000,2614.000,2578.000
2847.082,2720.000,2657.000,2614.000
2848.475,2698.000,2555.000,2563.000
2849.868,2698.000,2621.000,2577.000
2851.260,2674.000,2643.000,2598.000
2852.651,2671.000,2621.000,2675.000
2854.041,2735.000,2653.000,2601.000
2855.433,2719.000,2679.000,2602.000
2856.825,2754.000,2679.000,2651.000
2858.216,2732.000,2654.000,2661.000
2859.606,2714.000,2618.000,2591.000
2860.997,2769.000,2645.000,2590.000
2862.387,2675.000,2657.000,2655.000
2863.777,2696.000,2672.000,2683.000
2865.165,2748.000,2671.000,2645.000
2866.555,2737.000,2719.000,2644.000
2867.943,2790.000,2691.000,2650.000
2869.332,2726.000,2648.000,2667.000
2870.721,2715.000,2715.000,2690.000
2872.110,2739.000,2657.000,2635.000
2873.499,2720.000,2682.000,2645.000
2874.886,2765.000,2691.000,2598.000
2876.273,2752.000,2680.000,2667.000
2877.661,2714.000,2656.000,2623.000
2879.047,2724.000,2693.000,2669.000
2880.435,2733.000,2612.000,2637.000
2881.821,2758.000,2636.000,2660.000
2883.208,2746.000,2674.000,2649.000
2884.594,2760.000,2703.000,2638.000
2885.980,2764.000,2717.000,2687.000
2887.365,2761.000,2667.000,2658.000
2888.750,2688.000,2690.000,2662.000
2890.136,2749.000,2692.000,2627.000
2891.521,2754.000,2717.000,2671.000
2892.906,2794.000,2701.000,2688.000
2894.290,2752.000,2712.000,2737.000
2895.676,2747.000,2759.000,2683.000
2897.058,2772.000,2734.000,2699.000
2898.442,2800.000,2673.000,2718.000
2899.826,2779.000,2732.000,2642.000
2901.209,2795.000,2674.000,2664.000
2902.592,2784.000,2678.000,2602.000
2903.975,2782.000,2657.000,2665.000
2905.358,2788.000,2707.000,2703.000
2906.741,2740.000,2690.000,2676.000
2908.122,2846.000,2692.000,2708.000
2909.504,2790.000,2697.000,2639.000
2910.885,2739.000,2683.000,2697.000
2912.267,2809.000,2673.000,2662.000
2913.648,2756.000,2711.000,2664.000
2915.029,2798.000,2672.000,2695.000
2916.411,2780.000,2705.000,2690.000
2917.789,2744.000,2724.000,2670.000
2919.170,2753.000,2744.000,2668.000
2920.549,2799.000,2712.000,2632.000
2921.930,2745.000,2661.000,2620.000
2923.309,2807.000,2738.000,2657.000
2924.689,2753.000,2720.000,2677.000
2926.067,2711.000,2719.000,2659.000
2927.447,2750.000,2671.000,2638.000
2928.824,2741.000,2728.000,2676.000
2930.202,2762.000,2720.000,2697.000
2931.581,2765.000,2739.000,2704.000
2932.958,2820.000,2664.000,2663.000
2934.336,2747.000,2679.000,2693.000
2935.713,2732.000,2709.000,2674.000
2937.091,2796.000,2706.000,2625.000
2938.468,2733.000,2695.000,2679.000
2939.843,2751.000,2666.000,2683.000
2941.220,2747.000,2703.000,2658.000
2942.596,2736.000,2705.000,2696.000
2943.972,2694.000,2685.000,2677.000
2945.348,2742.000,2690.000,2664.000
2946.723,2723.000,2727.000,2656.000
2948.099,2802.000,2697.000,2681.000
2949.473,2805.000,2683.000,2621.000
2950.847,2759.000,2723.000,2671.000
2952.222,2756.000,2743.000,2708.000
2953.596,2753.000,2644.000,2641.000
2954.971,2696.000,2651.000,2603.000
2956.345,2735.000,2675.000,2602.000
2957.718,2695.000,2663.000,2650.000
2959.091,2721.000,2667.000,2647.000
2960.463,2751.000,2657.000,2648.000
2961.836,2748.000,2644.000,2644.000
2963.208,2783.000,2635.000,2646.000
2964.581,2743.000,2697.000,2665.000
2965.953,2672.000,2668.000,2666.000
2967.325,2787.000,2707.000,2628.000
2968.697,2728.000,2684.000,2644.000
2970.069,2757.000,2638.000,2645.000
2971.438,2724.000,2713.000,2651.000
2972.809,2775.000,2699.000,2673.000
2974.180,2692.000,2691.000,2666.000
2975.551,2724.000,2690.000,2655.000
2976.921,2769.000,2691.000,2652.000
2978.291,2733.000,2685.000,2674.000
2979.661,2766.000,2643.000,2643.000
2981.029,2784.000,2731.000,2671.000
2982.398,2775.000,2638.000,2690.000
2983.767,2743.000,2672.000,2645.000
2985.136,2743.000,2656.000,2626.000
2986.505,2728.000,2675.000,2631.000
2987.873,2783.000,2630.000,2648.000
2989.242,2760.000,2653.000,2698.000
2990.610,2742.000,2685.000,2672.000
2991.976,2741.000,2702.000,2611.000
2993.344,2751.000,2722.000,2652.000
2994.710,2730.000,2713.000,2691.000
2996.078,2691.000,2668.000,2647.000
2997.445,2742.000,2675.000,2661.000
2998.812,2753.000,2677.000,2636.000
3000.177,2769.000,2628.000,2691.000
3001.544,2764.000,2700.000,2644.000
3002.908,2757.000,2601.000,2620.000
3004.274,2713.000,2673.000,2617.000
3005.638,2735.000,2655.000,2682.000
3007.004,2727.000,2721.000,2686.000
3008.369,2740.000,2664.000,2617.000
3009.734,2737.000,2684.000,2666.000
3011.098,2782.000,2702.000,2645.000
3012.460,2756.000,2702.000,2670.000
3013.825,2766.000,2662.000,2617.000
3015.188,2763.000,2678.000,2632.000
3016.552,2702.000,2670.000,2698.000
3017.915,2749.000,2648.000,2659.000
3019.277,2708.000,2683.000,2641.000
3020.641,2718.000,2642.000,2676.000
3022.003,2786.000,2678.000,2716.000
3023.364,2733.000,2665.000,2683.000
3024.726,2753.000,2645.000,2659.000
3026.088,2716.000,2667.000,2668.000
3027.450,2789.000,2738.000,2690.000
3028.811,2734.000,2652.000,2702.000
3030.172,2703.000,2666.000,2702.000
3031.533,2738.000,2688.000,2630.000
3032.893,2763.000,2688.000,2683.000
3034.252,2712.000,2741.000,2697.000
3035.613,2747.000,2703.000,2656.000
3036.973,2747.000,2790.000,2679.000
3038.332,2744.000,2718.000,2667.000
3039.692,2741.000,2664.000,2664.000
3041.051,2773.000,2739.000,2636.000
3042.410,2752.000,2682.000,2631.000
3043.768,2781.000,2743.000,2683.000
3045.126,2756.000,2725.000,2670.000
3046.484,2793.000,2748.000,2713.000
3047.842,2738.000,2741.000,2688.000
3049.200,2792.000,2710.000,2674.000
3050.558,2770.000,2727.000,2694.000
3051.916,2773.000,2754.000,2669.000
3053.271,2742.000,2734.000,2696.000
3054.628,2856.000,2730.000,2717.000
3055.984,2808.000,2690.000,2707.000
3057.341,2747.000,2666.000,2700.000
3058.697,2763.000,2733.000,2694.000
3060.053,2778.000,2695.000,2691.000
3061.408,2789.000,2736.000,2706.000
3062.764,2806.000,2772.000,2721.000
3064.119,2829.000,2714.000,2656.000
3065.473,2740.000,2701.000,2704.000
3066.827,2794.000,2711.000,2724.000
3068.182,2789.000,2711.000,2748.000
3069.536,2807.000,2707.000,2735.000
3070.891,2754.000,2696.000,2693.000
3072.244,2796.000,2736.000,2641.000
3073.598,2764.000,2746.000,2713.000
3074.951,2744.000,2662.000,2744.000
3076.304,2788.000,2716.000,2697.000
3077.656,2783.000,2716.000,2664.000
3079.009,2792.000,2717.000,2727.000
3080.362,2782.000,2713.000,2675.000
3081.713,2798.000,2716.000,2686.000
3083.066,2765.000,2676.000,2684.000
3084.416,2749.000,2697.000,2663.000
3085.768,2815.000,2696.000,2694.000
3087.118,2812.000,2716.000,2715.000
3088.470,2821.000,2691.000,2715.000
3089.820,3331.000,2691.000,2713.000
3091.171,3334.000,2684.000,2720.000
3092.521,2776.000,2721.000,2661.000
3093.872,2787.000,2706.000,2681.000
3095.220,2823.000,2720.000,2660.000
3096.570,2815.000,2733.000,2709.000
3097.920,2751.000,2719.000,2644.000
3099.269,2765.000,2696.000,2744.000
3100.618,2771.000,2721.000,2708.000
3101.966,2780.000,2722.000,2663.000
3103.315,2855.000,2735.000,2718.000
3104.663,2808.000,2706.000,2624.000
3106.010,2769.000,2769.000,2679.000
3107.357,2768.000,2720.000,2717.000
3108.705,2782.000,2726.000,2647.000
3110.052,2779.000,2742.000,2704.000
3111.399,2769.000,2673.000,2691.000
3112.746,2797.000,2728.000,2719.000
3114.093,2718.000,2658.000,2627.000
3115.439,2785.000,2709.000,2688.000
3116.785,2788.000,2723.000,2652.000
3118.130,2771.000,2743.000,2682.000
3119.476,2720.000,2732.000,2646.000
3120.822,2750.000,2726.000,2689.000
3122.166,2767.000,2699.000,2720.000
3123.512,2787.000,2706.000,2630.000
3124.857,2753.000,2724.000,2709.000
3126.200,2796.000,2743.000,2713.000
3127.545,2834.000,2713.000,2663.000
3128.888,2799.000,2676.000,2658.000
3130.233,2766.000,2677.000,2729.000
3131.576,2811.000,2763.000,2685.000
3132.920,2746.000,2640.000,2693.000
3134.263,2792.000,2702.000,2657.000
3135.605,2743.000,2668.000,2711.000
3136.947,2770.000,2721.000,2686.000
3138.290,2727.000,2676.000,2687.000
3139.632,2741.000,2736.000,2643.000
3140.973,2783.000,2676.000,2664.000
3142.316,2756.000,2706.000,2685.000
3143.657,2782.000,2681.000,2677.000
3144.999,2757.000,2672.000,2689.000
3146.338,2743.000,2660.000,2701.000
3147.679,2755.000,2671.000,2710.000
3149.020,2758.000,2719.000,2669.000
3150.360,2749.000,2706.000,2655.000
3151.701,2764.000,2728.000,2636.000
3153.041,2732.000,2664.000,2661.000
3154.380,2714.000,2650.000,2729.000
3155.720,2750.000,2686.000,2609.000
3157.057,2769.000,2635.000,2634.000
3158.397,2745.000,2728.000,2691.000
3159.736,2715.000,2694.000,2726.000
3161.074,2745.000,2752.000,2716.000
3162.412,2698.000,2663.000,2601.000
3163.751,2708.000,2708.000,2648.000
3165.089,2746.000,2710.000,2666.000
3166.426,2774.000,2673.000,2657.000
3167.763,2705.000,2714.000,2676.000
3169.099,2751.000,2658.000,2669.000
3170.437,2703.000,2692.000,2630.000
3171.773,2782.000,2723.000,2621.000
3173.110,2756.000,2704.000,2615.000
3174.446,2748.000,2734.000,2640.000
3175.783,2709.000,2712.000,2681.000
3177.117,2739.000,2673.000,2635.000
3178.452,2718.000,2687.000,2657.000
3179.787,2782.000,2705.000,2682.000
3181.123,2726.000,2705.000,2631.000
3182.458,2775.000,2663.000,2641.000
3183.793,2745.000,2673.000,2640.000
3185.127,2765.000,2732.000,2679.000
3186.462,2760.000,2672.000,2690.000
3187.794,2765.000,2659.000,2627.000
3189.127,2728.000,2691.000,2650.000
3190.462,2733.000,2683.000,2624.000
3191.794,2732.000,2707.000,2653.000
3193.127,2700.000,2675.000,2716.000
3194.460,2764.000,2649.000,2620.000
3195.793,2741.000,2634.000,2647.000
3197.126,2726.000,2719.000,2627.000
3198.457,2770.000,2706.000,2704.000
3199.789,2789.000,2690.000,2679.000
3201.121,2815.000,2666.000,2663.000
3202.452,2814.000,2710.000,2698.000
3203.783,2808.000,2687.000,2685.000
3205.115,2773.000,2680.000,2687.000
3206.445,2752.000,2684.000,2680.000
3207.775,2805.000,2732.000,2698.000
3209.105,2728.000,2677.000,2639.000
3210.435,2759.000,2704.000,2712.000
3211.766,2781.000,2740.000,2694.000
3213.095,2724.000,2730.000,2690.000
3214.424,2718.000,2721.000,2707.000
3215.754,2755.000,2695.000,2710.000
3217.082,2783.000,2699.000,2700.000
3218.409,2763.000,2703.000,2679.000
3219.739,2736.000,2718.000,2701.000
3221.067,2833.000,2691.000,2641.000
3222.395,2793.000,2645.000,2682.000
3223.723,2762.000,2672.000,2728.000
3225.051,2842.000,2717.000,2700.000
3226.378,2845.000,2711.000,2707.000
3227.705,2755.000,2787.000,2722.000
3229.031,2761.000,2774.000,2702.000
3230.357,2764.000,2742.000,2700.000
3231.684,2771.000,2688.000,2691.000
3233.010,2810.000,2728.000,2700.000
3234.336,2827.000,2667.000,2785.000
3235.662,2770.000,2760.000,2746.000
3236.988,2784.000,2724.000,2682.000
3238.312,2776.000,2742.000,2682.000
3239.638,2699.000,2735.000,2732.000
3240.963,2828.000,2712.000,2735.000
3242.287,2761.000,2705.000,2709.000
3243.611,2767.000,2715.000,2777.000
3244.936,2829.000,2718.000,2710.000
3246.259,2802.000,2663.000,2709.000
3247.582,2808.000,2739.000,2704.000
3248.906,2824.000,2756.000,2737.000
3250.229,2812.000,2753.000,2737.000
3251.553,2804.000,2715.000,2730.000
3252.875,2759.000,2709.000,2728.000