File: Raman/Silica/2025_09_12_12pct_Hydrated_SiO2_Glass_on_DAC_Culet_50X_532nm_74mW_Andor750_600gv_1030wn_3accum_30s_UnPol_Loc5_DAC2.csv
23.130,6443.000,6447.000,6520.000
25.068,5953.000,5847.000,5848.000
27.007,5547.000,5569.000,5605.000
28.942,5508.000,5549.000,5468.000
30.879,5579.000,5582.000,5578.000
32.815,5597.000,5577.000,5532.000
34.751,5698.000,5733.000,5759.000
36.684,5770.000,5821.000,5824.000
38.619,5749.000,5780.000,5816.000
40.554,5817.000,5866.000,5791.000
42.489,6094.000,6056.000,6013.000
44.422,6251.000,6380.000,6211.000
46.355,6338.000,6264.000,6268.000
48.287,6056.000,6011.000,6008.000
50.221,6003.000,5931.000,6024.000
52.154,6302.000,6209.000,6238.000
54.083,6348.000,6340.000,6251.000
56.015,6079.000,6154.000,6177.000
57.946,6189.000,6204.000,6200.000
59.877,5981.000,6082.000,6019.000
61.807,5888.000,5951.000,5908.000
63.736,5848.000,5897.000,5898.000
65.665,5891.000,5870.000,5933.000
67.594,6018.000,6125.000,6095.000
69.523,6042.000,6139.000,6129.000
71.449,5601.000,5696.000,5703.000
73.377,5553.000,5495.000,5545.000
75.305,5655.000,5669.000,5598.000
77.233,5700.000,5706.000,5742.000
79.160,5533.000,5599.000,5509.000
81.084,5532.000,5555.000,5637.000
83.009,5435.000,5404.000,5377.000
84.936,5413.000,5397.000,5415.000
86.860,5298.000,5281.000,5358.000
88.784,5293.000,5361.000,5253.000
90.708,5246.000,5276.000,5239.000
92.632,5235.000,5293.000,5199.000
94.557,4999.000,4987.000,4999.000
96.480,4971.000,4900.000,4927.000
98.401,5087.000,5012.000,5099.000
100.323,5170.000,5117.000,5162.000
102.245,4963.000,4943.000,4944.000
104.167,4792.000,4800.000,4765.000
106.086,4759.000,4651.000,4680.000
108.007,4766.000,4700.000,4728.000
109.927,4647.000,4700.000,4665.000
111.848,4645.000,4662.000,4612.000
113.768,4627.000,4562.000,4712.000
115.685,4572.000,4638.000,4681.000
117.603,4464.000,4395.000,4441.000
119.522,4428.000,4367.000,4301.000
121.440,4410.000,4414.000,4428.000
123.359,4416.000,4357.000,4436.000
125.274,4305.000,4360.000,4307.000
127.190,4167.000,4178.000,4225.000
129.108,4162.000,4261.000,4168.000
131.024,4212.000,4208.000,4214.000
132.938,4161.000,4197.000,4200.000
134.853,4104.000,4142.000,4123.000
136.768,4018.000,4062.000,4044.000
138.683,4033.000,3989.000,3989.000
140.597,3878.000,3899.000,3927.000
142.508,3869.000,3916.000,3835.000
144.422,3914.000,4000.000,3946.000
146.335,3919.000,4003.000,3907.000
148.247,3787.000,3860.000,3855.000
150.158,3766.000,3835.000,3778.000
152.071,3638.000,3762.000,3685.000
153.982,3816.000,3757.000,3855.000
155.892,3776.000,3691.000,3747.000
157.804,3646.000,3714.000,3704.000
159.712,3655.000,3587.000,3668.000
161.621,3582.000,3615.000,3600.000
163.532,3576.000,3652.000,3631.000
165.441,3577.000,3640.000,3598.000
167.347,3603.000,3615.000,3655.000
169.256,3631.000,3598.000,3547.000
171.164,3507.000,3469.000,3598.000
173.071,3475.000,3456.000,3415.000
174.979,3490.000,3424.000,3465.000
176.883,3523.000,3451.000,3398.000
178.789,3509.000,3481.000,3515.000
180.696,3466.000,3479.000,3438.000
182.602,3431.000,3435.000,3369.000
184.504,3349.000,3266.000,3357.000
186.410,3368.000,3303.000,3395.000
188.314,3305.000,3371.000,3430.000
190.218,3407.000,3439.000,3439.000
192.122,3357.000,3364.000,3371.000
194.023,3320.000,3362.000,3355.000
195.925,3314.000,3318.000,3243.000
197.829,3340.000,3292.000,3274.000
199.731,3299.000,3297.000,3328.000
201.630,3323.000,3291.000,3341.000
203.532,3265.000,3287.000,3284.000
205.433,3281.000,3281.000,3225.000
207.333,3257.000,3233.000,3263.000
209.233,3261.000,3237.000,3283.000
211.132,3215.000,3263.000,3236.000
213.030,3303.000,3291.000,3174.000
214.929,3241.000,3243.000,3282.000
216.828,3218.000,3134.000,3219.000
218.724,3250.000,3147.000,3159.000
220.622,3247.000,3262.000,3220.000
222.519,3210.000,3200.000,3233.000
224.417,3220.000,3246.000,3246.000
226.313,3224.000,3159.000,3174.000
228.207,3173.000,3194.000,3227.000
230.104,3197.000,3158.000,3229.000
231.999,3203.000,3122.000,3193.000
233.894,3187.000,3185.000,3199.000
235.787,3223.000,3220.000,3206.000
237.681,3163.000,3217.000,3211.000
239.575,3180.000,3202.000,3153.000
241.469,3123.000,3164.000,3168.000
243.362,3143.000,3191.000,3120.000
245.253,3158.000,3208.000,3177.000
247.146,3190.000,3187.000,3150.000
249.038,3159.000,3244.000,3196.000
250.929,3165.000,3123.000,3201.000
252.819,3153.000,3191.000,3178.000
254.709,3170.000,3204.000,3244.000
256.600,3162.000,3199.000,3263.000
258.490,3197.000,3158.000,3255.000
260.380,3199.000,3212.000,3214.000
262.267,3137.000,3208.000,3186.000
264.156,3188.000,3175.000,3161.000
266.045,3189.000,3248.000,3201.000
267.933,3238.000,3305.000,3240.000
269.821,3199.000,3222.000,3221.000
271.707,3223.000,3237.000,3258.000
273.594,3293.000,3204.000,3202.000
275.480,3280.000,3221.000,3182.000
277.367,3223.000,3201.000,3315.000
279.251,3254.000,3286.000,3294.000
281.136,3305.000,3287.000,3279.000
283.021,3304.000,3277.000,3218.000
284.906,3265.000,3272.000,3235.000
286.790,3185.000,3300.000,3271.000
288.672,3283.000,3333.000,3278.000
290.556,3303.000,3343.000,3345.000
292.439,3307.000,3351.000,3335.000
294.322,3339.000,3402.000,3372.000
296.202,3305.000,3306.000,3336.000
298.084,3322.000,3308.000,3352.000
299.966,3340.000,3355.000,3304.000
301.847,3461.000,3375.000,3417.000
303.728,3417.000,3425.000,3404.000
305.607,3354.000,3401.000,3466.000
307.487,3379.000,3422.000,3428.000
309.367,3473.000,3385.000,3419.000
311.246,3428.000,3476.000,3494.000
313.123,3478.000,3430.000,3464.000
315.002,3490.000,3467.000,3465.000
316.880,3473.000,3571.000,3501.000
318.759,3531.000,3493.000,3573.000
320.635,3479.000,3503.000,3494.000
322.511,3501.000,3568.000,3570.000
324.387,3523.000,3505.000,3589.000
326.264,3558.000,3555.000,3581.000
328.139,3553.000,3514.000,3584.000
330.014,3557.000,3539.000,3561.000
331.888,3586.000,3600.000,3579.000
333.763,3682.000,3599.000,3638.000
335.638,3719.000,3672.000,3691.000
337.512,3699.000,3724.000,3710.000
339.384,3714.000,3666.000,3748.000
341.257,3708.000,3761.000,3714.000
343.130,3696.000,3743.000,3710.000
345.002,3746.000,3812.000,3751.000
346.873,3818.000,3771.000,3807.000
348.744,3879.000,3823.000,3872.000
350.616,3916.000,3832.000,3820.000
352.486,3818.000,3919.000,3867.000
354.357,3875.000,3867.000,3848.000
356.226,3892.000,3847.000,3878.000
358.095,3859.000,3949.000,3979.000
359.965,4026.000,3976.000,3955.000
361.835,3939.000,3994.000,3989.000
363.701,4003.000,3967.000,3991.000
365.569,3997.000,3957.000,4059.000
367.438,4058.000,4066.000,4095.000
369.305,4121.000,4060.000,4126.000
371.172,4130.000,4091.000,4131.000
373.037,4190.000,4134.000,4178.000
374.903,4155.000,4121.000,4130.000
376.770,4128.000,4148.000,4104.000
378.636,4191.000,4121.000,4156.000
380.498,4171.000,4214.000,4166.000
382.363,4255.000,4261.000,4286.000
384.228,4247.000,4301.000,4251.000
386.092,4257.000,4249.000,4247.000
387.956,4221.000,4235.000,4260.000
389.817,4373.000,4261.000,4237.000
391.681,4374.000,4348.000,4351.000
393.544,4334.000,4385.000,4342.000
395.405,4396.000,4357.000,4297.000
397.266,4291.000,4316.000,4382.000
399.127,4395.000,4385.000,4382.000
400.989,4345.000,4289.000,4371.000
402.849,4346.000,4350.000,4382.000
404.709,4440.000,4541.000,4444.000
406.567,4412.000,4488.000,4457.000
408.428,4403.000,4424.000,4541.000
410.287,4371.000,4407.000,4521.000
412.146,4451.000,4425.000,4399.000
414.003,4513.000,4501.000,4526.000
415.861,4537.000,4516.000,4540.000
417.719,4535.000,4541.000,4534.000
419.575,4539.000,4609.000,4609.000
421.432,4558.000,4581.000,4539.000
423.288,4634.000,4594.000,4586.000
425.144,4630.000,4626.000,4591.000
426.999,4682.000,4735.000,4664.000
428.855,4685.000,4675.000,4736.000
430.708,4786.000,4726.000,4724.000
432.563,4777.000,4708.000,4757.000
434.417,4676.000,4758.000,4721.000
436.272,4734.000,4779.000,4759.000
438.125,4818.000,4805.000,4802.000
439.977,4842.000,4874.000,4898.000
441.829,4878.000,4860.000,4909.000
443.683,4911.000,4925.000,4835.000
445.535,4904.000,4863.000,4826.000
447.386,4962.000,4932.000,5023.000
449.236,4991.000,5010.000,4937.000
451.087,4959.000,4941.000,5024.000
452.938,4991.000,4990.000,5068.000
454.788,5045.000,5034.000,5109.000
456.636,5102.000,5113.000,5057.000
458.485,5052.000,5051.000,5106.000
460.335,5119.000,5070.000,5169.000
462.183,5192.000,5240.000,5237.000
464.032,5219.000,5230.000,5319.000
465.879,5275.000,5262.000,5117.000
467.726,5143.000,5239.000,5147.000
469.574,5267.000,5185.000,5270.000
471.420,5377.000,5290.000,5323.000
473.265,5345.000,5351.000,5269.000
475.111,5367.000,5308.000,5405.000
476.957,5293.000,5314.000,5335.000
478.802,5294.000,5344.000,5342.000
480.647,5334.000,5345.000,5278.000
482.490,5353.000,5331.000,5308.000
484.335,5355.000,5310.000,5285.000
486.179,5220.000,5244.000,5237.000
488.022,5234.000,5196.000,5216.000
489.864,5081.000,5015.000,5142.000
491.706,4938.000,4978.000,4918.000
493.549,4823.000,4782.000,4849.000
495.391,4737.000,4726.000,4761.000
497.233,4594.000,4596.000,4543.000
499.072,4352.000,4390.000,4379.000
500.914,4090.000,4127.000,4145.000
502.754,3926.000,3916.000,3979.000
504.594,3787.000,3795.000,3773.000
506.432,3688.000,3692.000,3719.000
508.271,3461.000,3437.000,3463.000
510.111,3364.000,3305.000,3327.000
511.950,3201.000,3120.000,3184.000
513.788,2993.000,3054.000,3107.000
515.624,2895.000,2938.000,2873.000
517.462,2794.000,2830.000,2826.000
519.299,2727.000,2788.000,2740.000
521.136,2710.000,2705.000,2674.000
522.971,2610.000,2635.000,2604.000
524.807,2546.000,2473.000,2531.000
526.643,2460.000,2517.000,2487.000
528.479,2401.000,2426.000,2467.000
530.313,2423.000,2367.000,2367.000
532.147,2372.000,2342.000,2321.000
533.980,2300.000,2289.000,2319.000
535.815,2227.000,2303.000,2285.000
537.649,2249.000,2240.000,2241.000
539.480,2268.000,2193.000,2211.000
541.312,2155.000,2184.000,2156.000
543.145,2170.000,2148.000,2133.000
544.977,2158.000,2118.000,2135.000
546.809,2105.000,2069.000,2075.000
548.638,2100.000,2024.000,2057.000
550.469,2026.000,2012.000,2029.000
552.301,1992.000,1988.000,2016.000
554.131,2020.000,1999.000,2009.000
555.958,1982.000,1925.000,1986.000
557.788,1929.000,2014.000,1927.000
559.617,1943.000,1931.000,1905.000
561.446,1872.000,1896.000,1862.000
563.275,1901.000,1851.000,1862.000
565.100,1868.000,1922.000,1836.000
566.928,1847.000,1810.000,1826.000
568.756,1870.000,1805.000,1807.000
570.584,1850.000,1833.000,1808.000
572.408,1787.000,1741.000,1769.000
574.234,1768.000,1738.000,1783.000
576.060,1709.000,1764.000,1746.000
577.885,1746.000,1743.000,1721.000
579.711,1700.000,1695.000,1734.000
581.534,1706.000,1692.000,1698.000
583.358,1670.000,1685.000,1671.000
585.182,1683.000,1656.000,1652.000
587.006,1652.000,1674.000,1656.000
588.829,1605.000,1645.000,1653.000
590.650,1653.000,1609.000,1633.000
592.473,1560.000,1619.000,1620.000
594.295,1600.000,1609.000,1588.000
596.117,1617.000,1589.000,1569.000
597.937,1611.000,1566.000,1591.000
599.758,1596.000,1590.000,1600.000
601.579,1564.000,1572.000,1589.000
603.400,1572.000,1580.000,1564.000
605.217,1550.000,1557.000,1552.000
607.038,1557.000,1530.000,1547.000
608.856,1546.000,1538.000,1500.000
610.676,1540.000,1511.000,1522.000
612.494,1530.000,1551.000,1546.000
614.310,1488.000,1523.000,1515.000
616.129,1494.000,1495.000,1503.000
617.946,1507.000,1483.000,1488.000
619.763,1469.000,1456.000,1489.000
621.581,1462.000,1471.000,1516.000
623.394,1466.000,1485.000,1466.000
625.210,1454.000,1451.000,1462.000
627.026,1432.000,1435.000,1426.000
628.842,1401.000,1439.000,1412.000
630.655,1440.000,1388.000,1443.000
632.470,1408.000,1403.000,1431.000
634.284,1430.000,1419.000,1384.000
636.098,1402.000,1413.000,1390.000
637.911,1440.000,1408.000,1388.000
639.723,1379.000,1372.000,1434.000
641.535,1364.000,1401.000,1360.000
643.348,1381.000,1384.000,1405.000
645.160,1392.000,1379.000,1387.000
646.970,1382.000,1376.000,1411.000
648.781,1387.000,1392.000,1365.000
650.592,1391.000,1402.000,1373.000
652.403,1379.000,1358.000,1403.000
654.213,1363.000,1362.000,1378.000
656.021,1396.000,1351.000,1345.000
657.831,1363.000,1328.000,1371.000
659.640,1375.000,1354.000,1382.000
661.449,1357.000,1362.000,1373.000
663.256,1372.000,1373.000,1378.000
665.064,1355.000,1334.000,1368.000
666.872,1357.000,1337.000,1338.000
668.679,1360.000,1381.000,1347.000
670.485,1358.000,1361.000,1354.000
672.291,1355.000,1368.000,1368.000
674.097,1328.000,1340.000,1351.000
675.903,1348.000,1373.000,1362.000
677.709,1370.000,1329.000,1328.000
679.512,1334.000,1321.000,1366.000
681.317,1358.000,1315.000,1360.000
683.121,1364.000,1336.000,1320.000
684.926,1327.000,1374.000,1337.000
686.730,1339.000,1340.000,1330.000
688.531,1354.000,1348.000,1343.000
690.334,1335.000,1361.000,1320.000
692.136,1337.000,1318.000,1304.000
693.940,1340.000,1312.000,1361.000
695.739,1311.000,1340.000,1344.000
697.542,1342.000,1335.000,1369.000
699.342,1338.000,1307.000,1324.000
701.143,1321.000,1363.000,1331.000
702.944,1332.000,1325.000,1349.000
704.742,1353.000,1337.000,1319.000
706.542,1350.000,1331.000,1322.000
708.341,1333.000,1331.000,1323.000
710.141,1327.000,1326.000,1329.000
711.937,1343.000,1345.000,1342.000
713.736,1338.000,1337.000,1331.000
715.535,1344.000,1325.000,1320.000
717.332,1316.000,1332.000,1344.000
719.130,1326.000,1344.000,1310.000
720.925,1333.000,1313.000,1308.000
722.721,1320.000,1337.000,1317.000
724.517,1315.000,1333.000,1328.000
726.314,1337.000,1327.000,1349.000
728.106,1326.000,1302.000,1346.000
729.903,1326.000,1350.000,1299.000
731.697,1317.000,1321.000,1291.000
733.492,1340.000,1303.000,1317.000
735.286,1318.000,1329.000,1302.000
737.077,1358.000,1335.000,1340.000
738.871,1322.000,1327.000,1338.000
740.664,1328.000,1327.000,1339.000
742.457,1341.000,1347.000,1319.000
744.247,1338.000,1324.000,1303.000
746.039,1333.000,1333.000,1311.000
747.831,1320.000,1335.000,1346.000
749.622,1344.000,1335.000,1340.000
751.414,1349.000,1329.000,1336.000
753.202,1354.000,1345.000,1347.000
754.992,1341.000,1333.000,1320.000
756.782,1333.000,1355.000,1350.000
758.571,1339.000,1403.000,1371.000
760.360,1371.000,1376.000,1371.000
762.147,1351.000,1383.000,1390.000
763.937,1415.000,1386.000,1362.000
765.725,1408.000,1415.000,1368.000
767.512,1434.000,1409.000,1416.000
769.298,1472.000,1445.000,1468.000
771.085,1483.000,1503.000,1507.000
772.872,1538.000,1513.000,1548.000
774.657,1584.000,1588.000,1585.000
776.443,1629.000,1610.000,1607.000
778.228,1716.000,1648.000,1646.000
780.012,1674.000,1686.000,1709.000
781.797,1700.000,1716.000,1697.000
783.582,1710.000,1747.000,1739.000
785.364,1707.000,1793.000,1723.000
787.149,1771.000,1775.000,1748.000
788.932,1758.000,1814.000,1729.000
790.716,1771.000,1778.000,1805.000
792.498,1790.000,1812.000,1778.000
794.278,1828.000,1783.000,1763.000
796.060,1769.000,1753.000,1797.000
797.843,1799.000,1758.000,1796.000
799.624,1783.000,1768.000,1718.000
801.403,1768.000,1714.000,1712.000
803.184,1730.000,1746.000,1723.000
804.964,1772.000,1704.000,1723.000
806.744,1731.000,1754.000,1750.000
808.524,1696.000,1746.000,1723.000
810.301,1722.000,1698.000,1688.000
812.080,1677.000,1689.000,1696.000
813.859,1663.000,1669.000,1659.000
815.637,1721.000,1675.000,1671.000
817.413,1659.000,1670.000,1683.000
819.190,1654.000,1696.000,1670.000
820.967,1598.000,1652.000,1651.000
822.744,1607.000,1618.000,1613.000
824.520,1589.000,1597.000,1559.000
826.295,1587.000,1576.000,1600.000
828.071,1545.000,1536.000,1571.000
829.846,1549.000,1544.000,1580.000
831.622,1533.000,1559.000,1528.000
833.394,1493.000,1489.000,1482.000
835.169,1452.000,1492.000,1453.000
836.942,1445.000,1466.000,1473.000
838.716,1445.000,1458.000,1403.000
840.489,1426.000,1389.000,1398.000
842.261,1414.000,1377.000,1382.000
844.033,1369.000,1353.000,1360.000
845.806,1313.000,1345.000,1330.000
847.578,1325.000,1331.000,1309.000
849.347,1315.000,1316.000,1291.000
851.118,1302.000,1273.000,1304.000
852.890,1275.000,1298.000,1286.000
854.659,1300.000,1249.000,1257.000
856.430,1318.000,1263.000,1259.000
858.198,1285.000,1251.000,1262.000
859.968,1247.000,1271.000,1260.000
861.736,1227.000,1238.000,1241.000
863.506,1264.000,1252.000,1216.000
865.272,1256.000,1264.000,1246.000
867.040,1265.000,1237.000,1236.000
868.807,1243.000,1255.000,1257.000
870.574,1258.000,1258.000,1236.000
872.341,1268.000,1230.000,1223.000
874.106,1252.000,1279.000,1251.000
875.873,1282.000,1282.000,1250.000
877.640,1267.000,1274.000,1257.000
879.404,1259.000,1288.000,1246.000
881.168,1266.000,1253.000,1242.000
882.933,1258.000,1259.000,1256.000
884.698,1294.000,1282.000,1296.000
886.461,1306.000,1295.000,1283.000
888.226,1272.000,1286.000,1289.000
889.988,1285.000,1276.000,1259.000
891.750,1284.000,1286.000,1271.000
893.514,1310.000,1284.000,1309.000
895.276,1311.000,1281.000,1317.000
897.038,1288.000,1311.000,1296.000
898.798,1297.000,1287.000,1336.000
900.559,1344.000,1332.000,1300.000
902.321,1307.000,1340.000,1297.000
904.082,1328.000,1332.000,1325.000
905.840,1354.000,1336.000,1307.000
907.600,1364.000,1349.000,1330.000
909.360,1334.000,1346.000,1365.000
911.119,1353.000,1328.000,1315.000
912.876,1353.000,1356.000,1363.000
914.635,1328.000,1363.000,1371.000
916.393,1365.000,1384.000,1370.000
918.152,1371.000,1382.000,1396.000
919.909,1430.000,1383.000,1414.000
921.664,1427.000,1419.000,1424.000
923.422,1418.000,1377.000,1425.000
925.178,1393.000,1431.000,1385.000
926.934,1443.000,1447.000,1388.000
928.690,1458.000,1438.000,1451.000
930.444,1502.000,1453.000,1474.000
932.200,1495.000,1468.000,1499.000
933.954,1499.000,1480.000,1502.000
935.709,1493.000,1502.000,1522.000
937.461,1502.000,1521.000,1543.000
939.215,1572.000,1539.000,1515.000
940.968,1551.000,1576.000,1573.000
942.721,1602.000,1596.000,1604.000
944.475,1644.000,1592.000,1621.000
946.226,1627.000,1627.000,1625.000
947.978,1658.000,1681.000,1648.000
949.730,1676.000,1704.000,1692.000
951.481,1729.000,1707.000,1699.000
953.230,1747.000,1780.000,1739.000
954.981,1797.000,1770.000,1738.000
956.731,1806.000,1823.000,1809.000
958.482,1816.000,1785.000,1787.000
960.232,1790.000,1847.000,1804.000
961.979,1855.000,1808.000,1895.000
963.727,1888.000,1895.000,1847.000
965.476,1865.000,1938.000,1876.000
967.225,1933.000,1881.000,1876.000
968.971,1864.000,1882.000,1882.000
970.718,1880.000,1891.000,1887.000
972.466,1883.000,1887.000,1910.000
974.213,1840.000,1826.000,1883.000
975.959,1826.000,1865.000,1852.000
977.704,1844.000,1823.000,1836.000
979.451,1811.000,1783.000,1765.000
981.196,1771.000,1763.000,1753.000
982.941,1709.000,1754.000,1756.000
984.685,1675.000,1701.000,1669.000
986.428,1615.000,1665.000,1653.000
988.172,1648.000,1627.000,1599.000
989.917,1587.000,1620.000,1614.000
991.660,1553.000,1564.000,1563.000
993.402,1497.000,1494.000,1486.000
995.144,1504.000,1501.000,1479.000
996.887,1473.000,1470.000,1463.000
998.630,1453.000,1451.000,1475.000
1000.369,1440.000,1445.000,1424.000
1002.111,1432.000,1414.000,1416.000
1003.852,1392.000,1369.000,1399.000
1005.593,1368.000,1369.000,1385.000
1007.333,1365.000,1341.000,1351.000
1009.072,1363.000,1347.000,1381.000
1010.812,1325.000,1349.000,1304.000
1012.551,1352.000,1351.000,1323.000
1014.290,1300.000,1315.000,1296.000
1016.027,1307.000,1279.000,1292.000
1017.766,1319.000,1300.000,1284.000
1019.504,1304.000,1320.000,1287.000
1021.241,1279.000,1317.000,1300.000
1022.979,1299.000,1286.000,1285.000
1024.714,1302.000,1322.000,1272.000
1026.451,1282.000,1307.000,1269.000
1028.188,1279.000,1272.000,1278.000
1029.924,1310.000,1277.000,1287.000
1031.658,1282.000,1281.000,1256.000
1033.393,1300.000,1286.000,1324.000
1035.128,1283.000,1312.000,1272.000
1036.863,1340.000,1282.000,1312.000
1038.598,1284.000,1286.000,1308.000
1040.330,1292.000,1295.000,1329.000
1042.063,1308.000,1331.000,1291.000
1043.797,1373.000,1303.000,1340.000
1045.530,1323.000,1328.000,1288.000
1047.260,1318.000,1311.000,1338.000
1048.994,1325.000,1335.000,1310.000
1050.725,1318.000,1316.000,1323.000
1052.457,1325.000,1336.000,1343.000
1054.188,1321.000,1312.000,1333.000
1055.917,1328.000,1313.000,1313.000
1057.648,1319.000,1332.000,1333.000
1059.379,1293.000,1310.000,1334.000
1061.109,1342.000,1326.000,1294.000
1062.838,1324.000,1321.000,1309.000
1064.565,1316.000,1316.000,1328.000
1066.294,1306.000,1312.000,1302.000
1068.023,1312.000,1300.000,1279.000
1069.752,1308.000,1283.000,1297.000
1071.478,1281.000,1290.000,1288.000
1073.206,1267.000,1285.000,1278.000
1074.933,1295.000,1245.000,1261.000
1076.660,1274.000,1230.000,1260.000
1078.385,1301.000,1251.000,1260.000
1080.110,1264.000,1209.000,1273.000
1081.837,1250.000,1237.000,1239.000
1083.562,1210.000,1203.000,1220.000
1085.287,1227.000,1234.000,1227.000
1087.011,1211.000,1224.000,1229.000
1088.735,1196.000,1208.000,1176.000
1090.460,1203.000,1171.000,1199.000
1092.184,1159.000,1187.000,1185.000
1093.908,1179.000,1175.000,1192.000
1095.628,1146.000,1153.000,1148.000
1097.351,1184.000,1175.000,1178.000
1099.074,1172.000,1133.000,1157.000
1100.796,1124.000,1139.000,1137.000
1102.517,1154.000,1155.000,1150.000
1104.238,1147.000,1133.000,1140.000
1105.959,1150.000,1130.000,1123.000
1107.681,1148.000,1111.000,1109.000
1109.401,1131.000,1144.000,1113.000
1111.120,1133.000,1110.000,1111.000
1112.839,1118.000,1123.000,1143.000
1114.559,1131.000,1114.000,1092.000
1116.278,1138.000,1120.000,1110.000
1117.995,1156.000,1104.000,1121.000
1119.714,1137.000,1114.000,1128.000
1121.432,1123.000,1109.000,1127.000
1123.150,1146.000,1140.000,1138.000
1124.867,1152.000,1139.000,1135.000
1126.583,1145.000,1142.000,1137.000
1128.300,1142.000,1116.000,1148.000
1130.016,1145.000,1154.000,1121.000
1131.733,1170.000,1153.000,1146.000
1133.447,1152.000,1150.000,1155.000
1135.163,1139.000,1183.000,1159.000
1136.878,1179.000,1152.000,1153.000
1138.593,1150.000,1162.000,1153.000
1140.307,1180.000,1178.000,1131.000
1142.020,1179.000,1134.000,1157.000
1143.733,1171.000,1147.000,1174.000
1145.447,1151.000,1191.000,1153.000
1147.161,1178.000,1173.000,1145.000
1148.872,1188.000,1168.000,1182.000
1150.585,1213.000,1205.000,1177.000
1152.297,1196.000,1168.000,1177.000
1154.008,1180.000,1183.000,1172.000
1155.720,1195.000,1173.000,1205.000
1157.430,1187.000,1187.000,1203.000
1159.141,1205.000,1195.000,1209.000
1160.851,1187.000,1188.000,1209.000
1162.561,1188.000,1181.000,1221.000
1164.269,1178.000,1183.000,1188.000
1165.979,1203.000,1173.000,1192.000
1167.688,1225.000,1157.000,1175.000
1169.397,1208.000,1203.000,1166.000
1171.106,1204.000,1209.000,1195.000
1172.813,1205.000,1207.000,1198.000
1174.521,1184.000,1187.000,1192.000
1176.229,1224.000,1191.000,1180.000
1177.935,1215.000,1188.000,1222.000
1179.641,1191.000,1186.000,1191.000
1181.347,1214.000,1186.000,1187.000
1183.054,1216.000,1205.000,1203.000
1184.759,1203.000,1198.000,1174.000
1186.465,1204.000,1196.000,1186.000
1188.168,1221.000,1203.000,1182.000
1189.874,1187.000,1190.000,1193.000
1191.578,1205.000,1207.000,1191.000
1193.282,1201.000,1207.000,1192.000
1194.987,1188.000,1200.000,1201.000
1196.688,1197.000,1206.000,1171.000
1198.392,1193.000,1183.000,1171.000
1200.095,1203.000,1207.000,1183.000
1201.797,1215.000,1223.000,1158.000
1203.498,1201.000,1197.000,1143.000
1205.200,1173.000,1184.000,1169.000
1206.902,1195.000,1161.000,1168.000
1208.602,1155.000,1169.000,1172.000
1210.302,1188.000,1181.000,1178.000
1212.003,1187.000,1172.000,1163.000
1213.703,1181.000,1183.000,1167.000
1215.403,1170.000,1166.000,1124.000
1217.103,1162.000,1177.000,1166.000
1218.800,1144.000,1154.000,1163.000
1220.499,1159.000,1131.000,1153.000
1222.199,1184.000,1156.000,1159.000
1223.897,1147.000,1169.000,1131.000
1225.594,1177.000,1136.000,1148.000
1227.291,1151.000,1133.000,1159.000
1228.988,1140.000,1159.000,1123.000
1230.685,1124.000,1108.000,1136.000
1232.381,1157.000,1118.000,1093.000
1234.076,1137.000,1115.000,1129.000
1235.773,1127.000,1101.000,1088.000
1237.469,1137.000,1104.000,1089.000
1239.164,1142.000,1121.000,1098.000
1240.858,1094.000,1102.000,1114.000
1242.551,1107.000,1097.000,1102.000
1244.246,1090.000,1095.000,1119.000
1245.940,1092.000,1086.000,1097.000
1247.634,1102.000,1081.000,1072.000
1249.326,1080.000,1081.000,1074.000
1251.020,1075.000,1072.000,1085.000
1252.712,1071.000,1062.000,1094.000
1254.405,1074.000,1095.000,1078.000
1256.096,1061.000,1084.000,1091.000
1257.787,1071.000,1067.000,1067.000
1259.478,1075.000,1066.000,1073.000
1261.170,1067.000,1091.000,1074.000
1262.860,1093.000,1079.000,1081.000
1264.549,1074.000,1042.000,1054.000
1266.240,1076.000,1076.000,1067.000
1267.929,1058.000,1047.000,1041.000
1269.619,1070.000,1078.000,1034.000
1271.308,1055.000,1075.000,1050.000
1272.995,1088.000,1056.000,1068.000
1274.683,1073.000,1040.000,1059.000
1276.372,1058.000,1055.000,1036.000
1278.060,1052.000,1059.000,1026.000
1279.746,1070.000,1044.000,1026.000
1281.433,1056.000,1082.000,1039.000
1283.120,1034.000,1042.000,1046.000
1284.807,1083.000,1048.000,1047.000
1286.492,1057.000,1038.000,1061.000
1288.177,1054.000,1055.000,1059.000
1289.863,1027.000,1053.000,1033.000
1291.548,1065.000,1073.000,1047.000
1293.233,1059.000,1034.000,1032.000
1294.916,1053.000,1052.000,1040.000
1296.601,1083.000,1067.000,1052.000
1298.284,1054.000,1078.000,1058.000
1299.969,1056.000,1058.000,1053.000
1301.652,1065.000,1050.000,1030.000
1303.333,1056.000,1063.000,1048.000
1305.015,1072.000,1063.000,1054.000
1306.699,1076.000,1085.000,1058.000
1308.380,1060.000,1061.000,1060.000
1310.061,1061.000,1067.000,1044.000
1311.742,1093.000,1068.000,1078.000
1313.423,1120.000,1096.000,1083.000
1315.104,1098.000,1096.000,1082.000
1316.784,1147.000,1106.000,1086.000
1318.462,1175.000,1133.000,1115.000
1320.142,1183.000,1195.000,1205.000
1321.822,1322.000,1300.000,1295.000
1323.501,1581.000,1575.000,1560.000
1325.180,2435.000,2383.000,2372.000
1326.857,4576.000,4545.000,4582.000
1328.535,6338.000,6316.000,6364.000
1330.213,4315.000,4380.000,4331.000
1331.891,2238.000,2254.000,2279.000
1333.566,1555.000,1503.000,1523.000
1335.243,1279.000,1271.000,1279.000
1336.919,1183.000,1175.000,1177.000
1338.595,1115.000,1130.000,1106.000
1340.269,1105.000,1101.000,1071.000
1341.946,1087.000,1082.000,1079.000
1343.621,1071.000,1055.000,1060.000
1345.296,1052.000,1066.000,1063.000
1346.970,1063.000,1050.000,1043.000
1348.643,1054.000,1016.000,1037.000
1350.317,1042.000,1047.000,1057.000
1351.991,1035.000,1048.000,1076.000
1353.664,1047.000,1063.000,1052.000
1355.337,1049.000,1044.000,1050.000
1357.009,1036.000,1053.000,1032.000
1358.680,1053.000,1035.000,1033.000
1360.353,1041.000,1056.000,1039.000
1362.025,1035.000,1023.000,1032.000
1363.694,1035.000,1042.000,1047.000
1365.366,1064.000,1031.000,1009.000
1367.037,1060.000,1023.000,1033.000
1368.707,1031.000,1065.000,1054.000
1370.376,1042.000,1055.000,1013.000
1372.045,1039.000,1025.000,1032.000
1373.715,1040.000,1047.000,1044.000
1375.384,1043.000,1052.000,1040.000
1377.053,1034.000,1050.000,1031.000
1378.720,1006.000,1032.000,1005.000
1380.388,1028.000,1042.000,1021.000
1382.057,1023.000,1037.000,1011.000
1383.724,1058.000,1049.000,1007.000
1385.391,1024.000,1032.000,1040.000
1387.057,1034.000,1031.000,1024.000
1388.723,1054.000,1025.000,1048.000
1390.390,1039.000,1035.000,1042.000
1392.056,1043.000,1048.000,1051.000
1393.719,1036.000,1041.000,1049.000
1395.385,1040.000,1042.000,1022.000
1397.050,1038.000,1054.000,1028.000
1398.714,1051.000,1045.000,1048.000
1400.379,1040.000,1035.000,1037.000
1402.042,1051.000,1047.000,1026.000
1403.705,1060.000,1035.000,1045.000
1405.369,1039.000,1034.000,1049.000
1407.032,1034.000,1031.000,1049.000
1408.692,1065.000,1041.000,1027.000
1410.356,1074.000,1033.000,1027.000
1412.017,1051.000,1038.000,1026.000
1413.680,1032.000,1047.000,1032.000
1415.341,1055.000,1054.000,1026.000
1417.001,1035.000,1033.000,1047.000
1418.662,1051.000,1046.000,1045.000
1420.322,1044.000,1041.000,1041.000
1421.982,1017.000,1041.000,1027.000
1423.641,1053.000,1053.000,1020.000
1425.300,1056.000,1031.000,1029.000
1426.960,1056.000,1044.000,1027.000
1428.619,1044.000,1026.000,1039.000
1430.278,1028.000,1039.000,1025.000
1431.935,1060.000,1044.000,1012.000
1433.593,1056.000,1053.000,1022.000
1435.250,1066.000,1051.000,1035.000
1436.908,1041.000,1049.000,1039.000
1438.563,1056.000,1004.000,1037.000
1440.220,1038.000,1027.000,1017.000
1441.877,1065.000,1038.000,1028.000
1443.533,1047.000,1051.000,1029.000
1445.189,1040.000,1033.000,1045.000
1446.843,1060.000,1027.000,1050.000
1448.497,1063.000,1048.000,1025.000
1450.153,1066.000,1040.000,1032.000
1451.807,1074.000,1038.000,1058.000
1453.460,1057.000,1035.000,1027.000
1455.114,1065.000,1045.000,1048.000
1456.767,1056.000,1039.000,1034.000
1458.420,1058.000,1041.000,1054.000
1460.074,1043.000,1064.000,1043.000
1461.725,1014.000,1042.000,1046.000
1463.377,1041.000,1035.000,1015.000
1465.029,1051.000,1044.000,1038.000
1466.681,1055.000,1053.000,1034.000
1468.331,1039.000,1034.000,1030.000
1469.982,1057.000,1034.000,1050.000
1471.632,1060.000,1054.000,1026.000
1473.283,1039.000,1042.000,1033.000
1474.934,1041.000,1031.000,1033.000
1476.582,1082.000,1025.000,1043.000
1478.232,1054.000,1047.000,1060.000
1479.880,1047.000,1048.000,1047.000
1481.530,1063.000,1041.000,1052.000
1483.178,1039.000,1085.000,1039.000
1484.825,1055.000,1058.000,1054.000
1486.473,1053.000,1080.000,1032.000
1488.120,1052.000,1047.000,1042.000
1489.768,1041.000,1071.000,1036.000
1491.414,1058.000,1046.000,1062.000
1493.060,1064.000,1062.000,1051.000
1494.707,1079.000,1045.000,1045.000
1496.353,1052.000,1052.000,1052.000
1497.997,1060.000,1018.000,1024.000
1499.642,1039.000,1057.000,1028.000
1501.287,1036.000,1052.000,1052.000
1502.932,1066.000,1044.000,1067.000
1504.577,1070.000,1049.000,1033.000
1506.219,1051.000,1014.000,1050.000
1507.863,1066.000,1035.000,1019.000
1509.507,1065.000,1048.000,1060.000
1511.151,1060.000,1065.000,1028.000
1512.793,1063.000,1060.000,1038.000
1514.435,1085.000,1058.000,1050.000
1516.076,1060.000,1063.000,1059.000
1517.719,1084.000,1059.000,1046.000
1519.360,1063.000,1068.000,1031.000
1521.001,1068.000,1054.000,1067.000
1522.641,1077.000,1061.000,1055.000
1524.282,1070.000,1072.000,1063.000
1525.923,1082.000,1063.000,1052.000
1527.561,1058.000,1051.000,1080.000
1529.201,1054.000,1060.000,1072.000
1530.840,1083.000,1043.000,1055.000
1532.480,1062.000,1075.000,1037.000
1534.118,1081.000,1047.000,1051.000
1535.756,1078.000,1057.000,1081.000
1537.394,1085.000,1064.000,1068.000
1539.032,1069.000,1061.000,1052.000
1540.670,1068.000,1072.000,1084.000
1542.307,1036.000,1055.000,1072.000
1543.943,1074.000,1066.000,1068.000
1545.579,1088.000,1063.000,1067.000
1547.216,1080.000,1095.000,1067.000
1548.852,1090.000,1103.000,1109.000
1550.486,1097.000,1105.000,1088.000
1552.122,1100.000,1086.000,1073.000
1553.756,1075.000,1076.000,1058.000
1555.392,1091.000,1074.000,1070.000
1557.027,1076.000,1089.000,1065.000
1558.659,1071.000,1087.000,1077.000
1560.293,1084.000,1066.000,1072.000
1561.926,1082.000,1048.000,1086.000
1563.560,1099.000,1064.000,1044.000
1565.192,1091.000,1074.000,1068.000
1566.824,1073.000,1084.000,1091.000
1568.456,1079.000,1089.000,1091.000
1570.088,1102.000,1079.000,1088.000
1571.720,1085.000,1084.000,1085.000
1573.350,1073.000,1090.000,1086.000
1574.981,1088.000,1093.000,1075.000
1576.612,1074.000,1078.000,1086.000
1578.243,1086.000,1091.000,1056.000
1579.872,1116.000,1086.000,1061.000
1581.502,1088.000,1086.000,1094.000
1583.131,1075.000,1073.000,1055.000
1584.760,1127.000,1084.000,1072.000
1586.390,1096.000,1099.000,1070.000
1588.016,1110.000,1099.000,1064.000
1589.645,1080.000,1085.000,1115.000
1591.274,1093.000,1098.000,1065.000
1592.901,1091.000,1083.000,1096.000
1594.526,1084.000,1108.000,1103.000
1596.154,1110.000,1097.000,1093.000
1597.781,1110.000,1132.000,1103.000
1599.408,1112.000,1100.000,1115.000
1601.034,1112.000,1115.000,1086.000
1602.658,1119.000,1103.000,1110.000
1604.283,1091.000,1124.000,1097.000
1605.909,1109.000,1102.000,1116.000
1607.534,1117.000,1107.000,1118.000
1609.158,1102.000,1110.000,1119.000
1610.781,1104.000,1114.000,1113.000
1612.405,1123.000,1114.000,1111.000
1614.029,1099.000,1118.000,1115.000
1615.653,1092.000,1138.000,1121.000
1617.274,1128.000,1087.000,1108.000
1618.898,1104.000,1125.000,1117.000
1620.519,1090.000,1077.000,1104.000
1622.142,1096.000,1092.000,1092.000
1623.763,1091.000,1115.000,1098.000
1625.384,1093.000,1115.000,1101.000
1627.005,1120.000,1079.000,1130.000
1628.627,1108.000,1075.000,1100.000
1630.247,1130.000,1106.000,1114.000
1631.866,1113.000,1098.000,1121.000
1633.486,1114.000,1088.000,1071.000
1635.106,1104.000,1103.000,1091.000
1636.726,1108.000,1089.000,1108.000
1638.345,1081.000,1102.000,1094.000
1639.962,1111.000,1081.000,1114.000
1641.580,1111.000,1073.000,1079.000
1643.198,1110.000,1089.000,1074.000
1644.816,1087.000,1071.000,1081.000
1646.432,1107.000,1083.000,1076.000
1648.050,1090.000,1074.000,1075.000
1649.668,1082.000,1095.000,1056.000
1651.285,1095.000,1062.000,1055.000
1652.899,1068.000,1070.000,1049.000
1654.515,1062.000,1065.000,1088.000
1656.131,1070.000,1078.000,1053.000
1657.747,1059.000,1071.000,1052.000
1659.361,1083.000,1091.000,1051.000
1660.975,1087.000,1082.000,1069.000
1662.590,1079.000,1063.000,1052.000
1664.204,1088.000,1086.000,1071.000
1665.818,1047.000,1065.000,1075.000
1667.431,1083.000,1059.000,1071.000
1669.044,1059.000,1064.000,1065.000
1670.656,1070.000,1060.000,1068.000
1672.270,1051.000,1060.000,1065.000
1673.882,1075.000,1059.000,1055.000
1675.492,1054.000,1038.000,1061.000
1677.104,1072.000,1074.000,1024.000
1678.715,1063.000,1060.000,1047.000
1680.328,1048.000,1059.000,1052.000
1681.937,1070.000,1049.000,1038.000
1683.548,1065.000,1047.000,1039.000
1685.158,1061.000,1066.000,1033.000
1686.768,1040.000,1039.000,1049.000
1688.378,1034.000,1048.000,1052.000
1689.986,1028.000,1024.000,1038.000
1691.594,1054.000,1051.000,1040.000
1693.203,1072.000,1050.000,1062.000
1694.812,1051.000,1021.000,1045.000
1696.420,1036.000,1051.000,1048.000
1698.026,1054.000,1038.000,1048.000
1699.634,1038.000,1053.000,1021.000
1701.242,1046.000,1043.000,1030.000
1702.848,1043.000,1031.000,1038.000
1704.454,1049.000,1024.000,1046.000
1706.060,1047.000,1039.000,1017.000
1707.667,1041.000,1043.000,1024.000
1709.272,1046.000,1047.000,1043.000
1710.878,1032.000,1027.000,1017.000
1712.482,1007.000,1013.000,1048.000
1714.086,1031.000,1019.000,1020.000
1715.691,1037.000,1035.000,1035.000
1717.295,1041.000,1024.000,1007.000
1718.897,1022.000,1022.000,1049.000
1720.502,1024.000,1032.000,1024.000
1722.105,1062.000,1037.000,1006.000
1723.708,1013.000,1034.000,1033.000
1725.311,1026.000,1023.000,1023.000
1726.911,1023.000,1029.000,1015.000
1728.514,1002.000,1031.000,1066.000
1730.116,1014.000,1014.000,1019.000
1731.718,994.000,1047.000,1008.000
1733.318,1025.000,1045.000,1033.000
1734.918,1014.000,1048.000,1004.000
1736.519,1026.000,1015.000,1015.000
1738.120,1019.000,1030.000,1025.000
1739.719,1039.000,1024.000,1005.000
1741.318,1020.000,1032.000,1027.000
1742.917,1028.000,1024.000,1021.000
1744.517,1038.000,1024.000,1004.000
1746.115,1025.000,1016.000,1013.000
1747.712,1010.000,1018.000,999.000
1749.311,1025.000,1029.000,1023.000
1750.909,1037.000,1020.000,1013.000
1752.506,1023.000,1010.000,1013.000
1754.104,1022.000,1028.000,1014.000
1755.700,1034.000,1021.000,1000.000
1757.297,1033.000,1022.000,1005.000
1758.893,1038.000,1034.000,1013.000
1760.489,1018.000,1007.000,1006.000
1762.085,1006.000,1015.000,1034.000
1763.679,1029.000,1009.000,1022.000
1765.275,1022.000,1000.000,1005.000
1766.870,1027.000,1023.000,1027.000
1768.465,1035.000,1014.000,1019.000
1770.057,1016.000,1022.000,1023.000
1771.651,1066.000,1020.000,1015.000
1773.245,1021.000,1012.000,1001.000
1774.838,1007.000,1017.000,1017.000
1776.430,1017.000,1016.000,1033.000
1778.024,1017.000,1006.000,1009.000
1779.616,991.000,1023.000,1008.000
1781.209,1008.000,1011.000,1034.000
1782.800,1015.000,1013.000,1017.000
1784.390,1008.000,1026.000,1014.000
1785.982,1003.000,989.000,1005.000
1787.573,1020.000,1026.000,1031.000
1789.164,1026.000,1028.000,1030.000
1790.755,1037.000,1032.000,1012.000
1792.343,1026.000,994.000,986.000
1793.933,1028.000,1011.000,1003.000
1795.523,1022.000,1036.000,1009.000
1797.112,1032.000,1039.000,996.000
1798.700,1023.000,1007.000,1026.000
1800.288,1028.000,1025.000,1034.000
1801.877,1029.000,1030.000,1005.000
1803.465,1025.000,1027.000,999.000
1805.052,1034.000,1022.000,1022.000
1806.640,1030.000,1021.000,1012.000
1808.226,1019.000,1019.000,1018.000
1809.813,1004.000,1035.000,1037.000
1811.400,1048.000,1028.000,1037.000
1812.985,1053.000,1009.000,1026.000
1814.571,1031.000,1011.000,1058.000
1816.157,1022.000,1024.000,1055.000