File: Raman/Silica/2025_08_22_BB1392_SiO2_8wtPctH2O_Glass_50X_532nm_74mW_Kymera328_300gv_3000wn_3accum_1s_Unpol_Pos2.csv
-1027.971,3025.000,3026.000,3022.000
-1018.097,3030.000,3029.000,3025.000
-1008.229,3030.000,3027.000,3028.000
-998.376,3032.000,3030.000,3025.000
-988.527,3031.000,3032.000,3025.000
-978.692,3027.000,3030.000,3037.000
-968.865,3034.000,3028.000,3029.000
-959.049,3035.000,3032.000,3029.000
-949.242,3037.000,3030.000,3031.000
-939.444,3035.000,3031.000,3033.000
-929.656,3032.000,3030.000,3031.000
-919.879,3035.000,3029.000,3032.000
-910.112,3037.000,3035.000,3034.000
-900.354,3034.000,3029.000,3034.000
-890.603,3032.000,3032.000,3031.000
-880.864,3033.000,3027.000,3026.000
-871.134,3035.000,3032.000,3033.000
-861.416,3031.000,3027.000,3032.000
-851.704,3029.000,3028.000,3036.000
-842.002,3039.000,3028.000,3037.000
-832.312,3030.000,3032.000,3032.000
-822.631,3033.000,3041.000,3035.000
-812.959,3035.000,3034.000,3041.000
-803.296,3043.000,3035.000,3046.000
-793.643,3039.000,3037.000,3040.000
-783.999,3040.000,3044.000,3047.000
-774.365,3035.000,3037.000,3042.000
-764.740,3044.000,3036.000,3039.000
-755.126,3041.000,3051.000,3037.000
-745.520,3036.000,3050.000,3038.000
-735.925,3040.000,3043.000,3033.000
-726.338,3043.000,3046.000,3035.000
-716.759,3039.000,3040.000,3042.000
-707.193,3036.000,3037.000,3048.000
-697.632,3050.000,3036.000,3047.000
-688.085,3046.000,3048.000,3048.000
-678.542,3047.000,3053.000,3049.000
-669.014,3053.000,3043.000,3048.000
-659.494,3044.000,3062.000,3056.000
-649.980,3053.000,3054.000,3057.000
-640.479,3059.000,3061.000,3059.000
-630.983,3056.000,3053.000,3064.000
-621.500,3061.000,3070.000,3064.000
-612.025,3071.000,3059.000,3069.000
-602.559,3083.000,3088.000,3073.000
-593.103,3077.000,3078.000,3079.000
-583.655,3079.000,3083.000,3078.000
-574.219,3091.000,3093.000,3093.000
-564.789,3106.000,3093.000,3116.000
-555.369,3118.000,3121.000,3113.000
-545.959,3126.000,3123.000,3131.000
-536.558,3144.000,3139.000,3137.000
-527.164,3166.000,3181.000,3166.000
-517.783,3198.000,3197.000,3190.000
-508.407,3236.000,3219.000,3235.000
-499.044,3261.000,3274.000,3289.000
-489.688,3323.000,3317.000,3307.000
-480.341,3337.000,3348.000,3351.000
-471.005,3363.000,3376.000,3367.000
-461.673,3382.000,3407.000,3389.000
-452.355,3408.000,3398.000,3390.000
-443.045,3425.000,3420.000,3423.000
-433.743,3413.000,3415.000,3433.000
-424.452,3415.000,3432.000,3426.000
-415.165,3432.000,3431.000,3449.000
-405.893,3449.000,3453.000,3433.000
-396.627,3446.000,3448.000,3447.000
-387.370,3447.000,3441.000,3462.000
-378.122,3459.000,3461.000,3476.000
-368.882,3467.000,3462.000,3454.000
-359.654,3481.000,3471.000,3472.000
-350.433,3484.000,3496.000,3483.000
-341.221,3463.000,3490.000,3526.000
-332.017,3501.000,3508.000,3504.000
-322.821,3560.000,3531.000,3519.000
-313.635,3538.000,3514.000,3523.000
-304.460,3530.000,3556.000,3525.000
-295.290,3541.000,3542.000,3571.000
-286.132,3571.000,3574.000,3558.000
-276.982,3597.000,3616.000,3583.000
-267.840,3574.000,3583.000,3586.000
-258.708,3632.000,3630.000,3639.000
-249.581,3636.000,3660.000,3684.000
-240.468,3696.000,3697.000,3679.000
-231.358,3711.000,3699.000,3712.000
-222.262,3744.000,3762.000,3698.000
-213.174,3802.000,3797.000,3787.000
-204.092,3815.000,3838.000,3840.000
-195.022,3888.000,3849.000,3900.000
-185.955,3937.000,3934.000,3943.000
-176.903,3992.000,4022.000,4053.000
-167.856,4090.000,4110.000,4134.000
-158.818,4156.000,4175.000,4177.000
-149.791,4272.000,4276.000,4281.000
-140.769,4382.000,4401.000,4342.000
-131.758,4517.000,4462.000,4514.000
-122.755,4660.000,4627.000,4647.000
-113.760,4809.000,4801.000,4822.000
-104.774,4985.000,4989.000,4953.000
-95.799,5158.000,5152.000,5114.000
-86.827,5307.000,5330.000,5260.000
-77.868,5497.000,5517.000,5529.000
-68.916,5785.000,5769.000,5702.000
-59.972,5945.000,5947.000,5938.000
-51.039,6097.000,6085.000,6137.000
-42.110,6300.000,6352.000,6252.000
-33.194,6472.000,6485.000,6460.000
-24.281,6888.000,6903.000,6897.000
-15.382,7306.000,7233.000,7255.000
-6.492,7143.000,7173.000,7191.000
2.395,7433.000,7486.000,7504.000
11.270,7813.000,7859.000,7868.000
20.139,8108.000,8219.000,8270.000
28.997,9231.000,9412.000,9358.000
37.848,9761.000,9546.000,9666.000
46.691,9649.000,9648.000,9732.000
55.524,9292.000,9190.000,9331.000
64.352,8333.000,8368.000,8425.000
73.168,8005.000,8129.000,8399.000
81.978,7739.000,8007.000,8277.000
90.779,7684.000,7762.000,7955.000
99.572,7479.000,7639.000,7866.000
108.354,7426.000,7543.000,7641.000
117.133,7131.000,7138.000,7176.000
125.899,6516.000,6508.000,6533.000
134.659,6045.000,6048.000,6110.000
143.412,5777.000,5858.000,5837.000
152.153,5621.000,5639.000,5610.000
160.890,5475.000,5456.000,5494.000
169.615,5344.000,5411.000,5327.000
178.336,5251.000,5249.000,5261.000
187.045,5169.000,5200.000,5140.000
195.746,5093.000,5107.000,5080.000
204.443,5023.000,5034.000,5017.000
213.127,5031.000,5045.000,4983.000
221.808,5026.000,4943.000,5018.000
230.476,4949.000,4955.000,4982.000
239.139,4932.000,4944.000,4980.000
247.793,4960.000,4952.000,4968.000
256.437,4906.000,4920.000,4943.000
265.077,4964.000,4907.000,4952.000
273.705,5011.000,4997.000,4967.000
282.326,4958.000,4916.000,4979.000
290.940,4996.000,5034.000,5018.000
299.547,5053.000,5071.000,5028.000
308.144,5071.000,5045.000,5073.000
316.734,5055.000,5171.000,5128.000
325.314,5100.000,5123.000,5204.000
333.888,5168.000,5203.000,5203.000
342.454,5302.000,5223.000,5256.000
351.013,5350.000,5287.000,5322.000
359.562,5340.000,5371.000,5336.000
368.102,5376.000,5375.000,5349.000
376.639,5519.000,5455.000,5436.000
385.163,5538.000,5495.000,5469.000
393.682,5548.000,5590.000,5573.000
402.192,5632.000,5702.000,5634.000
410.693,5731.000,5716.000,5675.000
419.190,5751.000,5738.000,5807.000
427.676,5908.000,5906.000,5880.000
436.157,5960.000,5969.000,5992.000
444.626,6080.000,6043.000,6028.000
453.088,6167.000,6144.000,6181.000
461.546,6206.000,6255.000,6229.000
469.991,6253.000,6269.000,6219.000
478.432,6169.000,6156.000,6305.000
486.864,5988.000,6034.000,6073.000
495.289,5735.000,5758.000,5768.000
503.705,5472.000,5455.000,5500.000
512.115,5212.000,5180.000,5250.000
520.515,4917.000,4986.000,4970.000
528.908,4747.000,4715.000,4721.000
537.295,4538.000,4542.000,4582.000
545.673,4377.000,4358.000,4373.000
554.043,4231.000,4214.000,4217.000
562.404,4118.000,4094.000,4141.000
570.762,3995.000,4018.000,4021.000
579.108,3887.000,3908.000,3933.000
587.448,3844.000,3857.000,3839.000
595.779,3766.000,3775.000,3768.000
604.103,3720.000,3702.000,3753.000
612.422,3674.000,3692.000,3692.000
620.730,3638.000,3649.000,3652.000
629.031,3609.000,3613.000,3604.000
637.326,3592.000,3609.000,3600.000
645.611,3560.000,3576.000,3540.000
653.892,3511.000,3533.000,3549.000
662.162,3532.000,3527.000,3499.000
670.426,3533.000,3495.000,3519.000
678.682,3502.000,3510.000,3517.000
686.931,3483.000,3500.000,3523.000
695.174,3502.000,3506.000,3488.000
703.408,3472.000,3482.000,3494.000
711.632,3498.000,3464.000,3471.000
719.851,3461.000,3481.000,3496.000
728.063,3465.000,3457.000,3461.000
736.267,3482.000,3494.000,3494.000
744.464,3500.000,3491.000,3519.000
752.651,3484.000,3502.000,3499.000
760.835,3555.000,3540.000,3538.000
769.008,3597.000,3603.000,3556.000
777.175,3623.000,3644.000,3641.000
785.335,3635.000,3643.000,3663.000
793.485,3647.000,3636.000,3684.000
801.632,3669.000,3670.000,3637.000
809.768,3641.000,3615.000,3633.000
817.900,3599.000,3583.000,3593.000
826.021,3580.000,3574.000,3564.000
834.134,3527.000,3518.000,3506.000
842.245,3491.000,3485.000,3477.000
850.344,3473.000,3469.000,3447.000
858.439,3449.000,3441.000,3443.000
866.524,3458.000,3418.000,3427.000
874.602,3440.000,3429.000,3431.000
882.674,3454.000,3442.000,3452.000
890.739,3445.000,3437.000,3445.000
898.796,3468.000,3495.000,3482.000
906.845,3509.000,3494.000,3503.000
914.887,3527.000,3514.000,3527.000
922.923,3579.000,3562.000,3568.000
930.951,3622.000,3620.000,3611.000
938.972,3665.000,3660.000,3676.000
946.986,3697.000,3717.000,3726.000
954.991,3757.000,3738.000,3755.000
962.991,3766.000,3803.000,3783.000
970.982,3781.000,3734.000,3742.000
978.965,3721.000,3732.000,3736.000
986.945,3655.000,3677.000,3683.000
994.915,3617.000,3610.000,3625.000
1002.880,3583.000,3573.000,3563.000
1010.835,3516.000,3528.000,3532.000
1018.783,3495.000,3493.000,3457.000
1026.727,3492.000,3467.000,3477.000
1034.660,3465.000,3475.000,3429.000
1042.591,3452.000,3437.000,3452.000
1050.509,3427.000,3412.000,3390.000
1058.424,3394.000,3392.000,3402.000
1066.331,3391.000,3396.000,3393.000
1074.231,3373.000,3376.000,3371.000
1082.124,3350.000,3340.000,3347.000
1090.008,3339.000,3325.000,3309.000
1097.887,3322.000,3309.000,3307.000
1105.759,3289.000,3307.000,3299.000
1113.624,3296.000,3300.000,3281.000
1121.480,3284.000,3296.000,3298.000
1129.333,3302.000,3275.000,3287.000
1137.175,3299.000,3285.000,3279.000
1145.012,3311.000,3303.000,3296.000
1152.842,3299.000,3298.000,3310.000
1160.663,3304.000,3303.000,3318.000
1168.481,3301.000,3297.000,3289.000
1176.289,3299.000,3298.000,3282.000
1184.092,3274.000,3295.000,3272.000
1191.886,3286.000,3280.000,3282.000
1199.673,3289.000,3276.000,3275.000
1207.457,3286.000,3256.000,3258.000
1215.230,3288.000,3249.000,3259.000
1223.000,3260.000,3244.000,3255.000
1230.759,3247.000,3265.000,3235.000
1238.513,3234.000,3244.000,3232.000
1246.260,3230.000,3232.000,3215.000
1254.001,3222.000,3203.000,3214.000
1261.734,3199.000,3221.000,3206.000
1269.460,3210.000,3203.000,3199.000
1277.179,3206.000,3195.000,3206.000
1284.893,3192.000,3196.000,3199.000
1292.600,3185.000,3187.000,3202.000
1300.299,3185.000,3200.000,3180.000
1307.992,3195.000,3184.000,3192.000
1315.677,3188.000,3187.000,3180.000
1323.355,3188.000,3194.000,3181.000
1331.028,3182.000,3181.000,3189.000
1338.694,3183.000,3189.000,3184.000
1346.353,3177.000,3184.000,3183.000
1354.004,3186.000,3195.000,3194.000
1361.651,3198.000,3199.000,3184.000
1369.289,3204.000,3198.000,3194.000
1376.922,3205.000,3196.000,3192.000
1384.547,3197.000,3179.000,3199.000
1392.165,3201.000,3194.000,3180.000
1399.779,3205.000,3184.000,3180.000
1407.383,3199.000,3199.000,3195.000
1414.984,3191.000,3194.000,3178.000
1422.574,3175.000,3186.000,3186.000
1430.161,3190.000,3173.000,3179.000
1437.739,3174.000,3196.000,3180.000
1445.310,3177.000,3177.000,3196.000
1452.878,3191.000,3181.000,3201.000
1460.436,3192.000,3171.000,3185.000
1467.989,3192.000,3187.000,3176.000
1475.535,3193.000,3191.000,3199.000
1483.074,3193.000,3185.000,3179.000
1490.606,3202.000,3191.000,3200.000
1498.132,3199.000,3198.000,3205.000
1505.652,3188.000,3205.000,3179.000
1513.166,3195.000,3193.000,3198.000
1520.672,3220.000,3190.000,3198.000
1528.171,3198.000,3204.000,3208.000
1535.667,3209.000,3195.000,3209.000
1543.152,3192.000,3219.000,3203.000
1550.635,3228.000,3218.000,3211.000
1558.108,3216.000,3214.000,3192.000
1565.574,3205.000,3217.000,3222.000
1573.037,3224.000,3225.000,3217.000
1580.490,3244.000,3228.000,3219.000
1587.938,3220.000,3237.000,3232.000
1595.381,3237.000,3221.000,3242.000
1602.816,3216.000,3223.000,3235.000
1610.246,3247.000,3211.000,3226.000
1617.667,3227.000,3232.000,3233.000
1625.083,3239.000,3242.000,3232.000
1632.494,3228.000,3227.000,3226.000
1639.897,3224.000,3229.000,3231.000
1647.295,3240.000,3231.000,3215.000
1654.685,3204.000,3234.000,3223.000
1662.068,3219.000,3212.000,3218.000
1669.446,3196.000,3206.000,3207.000
1676.818,3204.000,3196.000,3209.000
1684.183,3197.000,3179.000,3188.000
1691.543,3187.000,3193.000,3191.000
1698.894,3207.000,3178.000,3194.000
1706.242,3182.000,3200.000,3193.000
1713.581,3194.000,3194.000,3183.000
1720.916,3192.000,3194.000,3185.000
1728.242,3189.000,3181.000,3189.000
1735.561,3188.000,3181.000,3190.000
1742.879,3186.000,3180.000,3176.000
1750.185,3194.000,3189.000,3178.000
1757.489,3189.000,3168.000,3171.000
1764.784,3192.000,3180.000,3186.000
1772.074,3166.000,3182.000,3164.000
1779.358,3188.000,3178.000,3179.000
1786.634,3187.000,3184.000,3176.000
1793.907,3184.000,3185.000,3190.000
1801.170,3197.000,3172.000,3166.000
1808.429,3178.000,3195.000,3172.000
1815.682,3206.000,3197.000,3189.000
1822.928,3193.000,3182.000,3183.000
1830.168,3211.000,3181.000,3180.000
1837.401,3188.000,3185.000,3193.000
1844.629,3198.000,3190.000,3170.000
1851.851,3195.000,3186.000,3177.000
1859.066,3195.000,3187.000,3196.000
1866.276,3185.000,3183.000,3189.000
1873.479,3199.000,3188.000,3192.000
1880.675,3207.000,3188.000,3171.000
1887.867,3190.000,3195.000,3175.000
1895.051,3203.000,3177.000,3183.000
1902.231,3202.000,3194.000,3184.000
1909.403,3205.000,3179.000,3196.000
1916.568,3199.000,3191.000,3184.000
1923.730,3181.000,3191.000,3194.000
1930.883,3201.000,3186.000,3198.000
1938.032,3207.000,3198.000,3191.000
1945.174,3188.000,3189.000,3177.000
1952.309,3186.000,3202.000,3191.000
1959.441,3198.000,3192.000,3197.000
1966.564,3199.000,3200.000,3201.000
1973.682,3194.000,3189.000,3205.000
1980.795,3179.000,3211.000,3182.000
1987.901,3194.000,3207.000,3191.000
1995.001,3200.000,3188.000,3197.000
2002.094,3190.000,3198.000,3211.000
2009.181,3194.000,3184.000,3199.000
2016.264,3183.000,3201.000,3203.000
2023.341,3196.000,3196.000,3183.000
2030.410,3204.000,3184.000,3190.000
2037.475,3204.000,3182.000,3193.000
2044.532,3214.000,3188.000,3196.000
2051.587,3198.000,3198.000,3173.000
2058.631,3199.000,3192.000,3194.000
2065.671,3178.000,3202.000,3188.000
2072.707,3201.000,3203.000,3190.000
2079.734,3209.000,3194.000,3182.000
2086.758,3181.000,3198.000,3192.000
2093.774,3187.000,3192.000,3192.000
2100.785,3204.000,3181.000,3179.000
2107.791,3201.000,3188.000,3197.000
2114.789,3211.000,3207.000,3199.000
2121.783,3201.000,3195.000,3200.000
2128.769,3197.000,3205.000,3198.000
2135.752,3213.000,3202.000,3201.000
2142.727,3214.000,3201.000,3195.000
2149.697,3192.000,3195.000,3209.000
2156.662,3214.000,3189.000,3206.000
2163.618,3205.000,3199.000,3205.000
2170.571,3201.000,3194.000,3193.000
2177.518,3216.000,3218.000,3198.000
2184.459,3219.000,3203.000,3185.000
2191.395,3210.000,3209.000,3193.000
2198.324,3217.000,3209.000,3207.000
2205.246,3224.000,3210.000,3204.000
2212.165,3200.000,3203.000,3198.000
2219.076,3196.000,3198.000,3212.000
2225.982,3194.000,3183.000,3203.000
2232.883,3218.000,3188.000,3198.000
2239.776,3201.000,3217.000,3203.000
2246.666,3203.000,3194.000,3211.000
2253.549,3198.000,3202.000,3200.000
2260.428,3208.000,3203.000,3194.000
2267.299,3204.000,3196.000,3212.000
2274.162,3215.000,3206.000,3189.000
2281.025,3209.000,3204.000,3212.000
2287.878,3203.000,3216.000,3205.000
2294.729,3222.000,3209.000,3195.000
2301.571,3207.000,3207.000,3200.000
2308.408,3208.000,3214.000,3212.000
2315.241,3207.000,3229.000,3206.000
2322.066,3207.000,3229.000,3211.000
2328.888,3237.000,3211.000,3200.000
2335.702,3219.000,3222.000,3217.000
2342.511,3202.000,3226.000,3225.000
2349.315,3230.000,3213.000,3214.000
2356.114,3220.000,3210.000,3213.000
2362.905,3234.000,3210.000,3200.000
2369.694,3219.000,3216.000,3214.000
2376.473,3215.000,3230.000,3204.000
2383.249,3235.000,3228.000,3209.000
2390.019,3208.000,3212.000,3210.000
2396.783,3215.000,3232.000,3211.000
2403.543,3211.000,3203.000,3198.000
2410.295,3219.000,3205.000,3220.000
2417.045,3216.000,3211.000,3213.000
2423.785,3214.000,3211.000,3198.000
2430.521,3204.000,3206.000,3215.000
2437.254,3220.000,3208.000,3209.000
2443.979,3225.000,3191.000,3210.000
2450.698,3203.000,3216.000,3214.000
2457.413,3218.000,3208.000,3202.000
2464.123,3230.000,3213.000,3208.000
2470.826,3225.000,3212.000,3207.000
2477.522,3227.000,3220.000,3220.000
2484.215,3215.000,3207.000,3210.000
2490.903,3202.000,3233.000,3212.000
2497.584,3223.000,3223.000,3226.000
2504.261,3232.000,3197.000,3218.000
2510.932,3239.000,3211.000,3235.000
2517.596,3220.000,3211.000,3211.000
2524.257,3219.000,3214.000,3228.000
2530.911,3232.000,3216.000,3218.000
2537.559,3209.000,3217.000,3210.000
2544.203,3216.000,3214.000,3215.000
2550.840,3221.000,3230.000,3191.000
2557.474,3231.000,3224.000,3215.000
2564.099,3224.000,3218.000,3207.000
2570.723,3207.000,3215.000,3207.000
2577.338,3213.000,3218.000,3225.000
2583.948,3205.000,3229.000,3220.000
2590.555,3227.000,3219.000,3218.000
2597.154,3245.000,3206.000,3223.000
2603.750,3225.000,3218.000,3215.000
2610.338,3218.000,3209.000,3232.000
2616.923,3236.000,3202.000,3208.000
2623.501,3219.000,3211.000,3223.000
2630.074,3229.000,3227.000,3234.000
2636.644,3230.000,3220.000,3206.000
2643.205,3217.000,3214.000,3228.000
2649.762,3229.000,3227.000,3215.000
2656.314,3220.000,3219.000,3227.000
2662.861,3240.000,3221.000,3229.000
2669.403,3235.000,3227.000,3232.000
2675.940,3224.000,3223.000,3242.000
2682.469,3226.000,3246.000,3227.000
2688.994,3232.000,3230.000,3212.000
2695.516,3239.000,3239.000,3235.000
2702.031,3236.000,3225.000,3210.000
2708.541,3248.000,3251.000,3241.000
2715.043,3242.000,3256.000,3242.000
2721.544,3251.000,3238.000,3237.000
2728.038,3241.000,3231.000,3236.000
2734.526,3249.000,3231.000,3234.000
2741.010,3252.000,3247.000,3231.000
2747.486,3242.000,3239.000,3244.000
2753.961,3238.000,3256.000,3253.000
2760.428,3253.000,3239.000,3257.000
2766.893,3244.000,3252.000,3251.000
2773.348,3253.000,3262.000,3269.000
2779.800,3253.000,3248.000,3252.000
2786.248,3267.000,3270.000,3255.000
2792.688,3280.000,3239.000,3256.000
2799.124,3265.000,3270.000,3252.000
2805.556,3290.000,3271.000,3275.000
2811.984,3261.000,3281.000,3288.000
2818.404,3266.000,3277.000,3279.000
2824.821,3265.000,3284.000,3284.000
2831.229,3289.000,3283.000,3269.000
2837.636,3292.000,3304.000,3273.000
2844.036,3299.000,3297.000,3285.000
2850.431,3296.000,3281.000,3297.000
2856.822,3296.000,3292.000,3292.000
2863.206,3326.000,3279.000,3294.000
2869.588,3313.000,3294.000,3298.000
2875.962,3319.000,3300.000,3313.000
2882.330,3318.000,3321.000,3327.000
2888.697,3324.000,3328.000,3345.000
2895.055,3351.000,3353.000,3334.000
2901.412,3325.000,3331.000,3366.000
2907.760,3366.000,3377.000,3331.000
2914.104,3350.000,3352.000,3344.000
2920.443,3356.000,3351.000,3353.000
2926.776,3366.000,3369.000,3361.000
2933.107,3358.000,3357.000,3375.000
2939.431,3371.000,3373.000,3356.000
2945.750,3367.000,3374.000,3383.000
2952.064,3388.000,3387.000,3373.000
2958.374,3402.000,3371.000,3388.000
2964.678,3361.000,3383.000,3353.000
2970.977,3390.000,3384.000,3379.000
2977.269,3405.000,3392.000,3382.000
2983.559,3380.000,3361.000,3383.000
2989.843,3396.000,3411.000,3418.000
2996.122,3409.000,3399.000,3395.000
3002.396,3399.000,3437.000,3401.000
3008.664,3423.000,3428.000,3433.000
3014.929,3438.000,3415.000,3413.000
3021.188,3429.000,3416.000,3410.000
3027.442,3434.000,3443.000,3443.000
3033.691,3435.000,3432.000,3417.000
3039.934,3459.000,3454.000,3444.000
3046.175,3435.000,3444.000,3443.000
3052.408,3444.000,3457.000,3431.000
3058.640,3473.000,3485.000,3439.000
3064.862,3468.000,3478.000,3463.000
3071.081,3472.000,3482.000,3474.000
3077.298,3484.000,3484.000,3474.000
3083.506,3518.000,3474.000,3472.000
3089.712,3487.000,3492.000,3508.000
3095.911,3479.000,3529.000,3504.000
3102.106,3504.000,3532.000,3522.000
3108.297,3529.000,3506.000,3521.000
3114.482,3572.000,3519.000,3559.000
3120.662,3543.000,3542.000,3556.000
3126.837,3573.000,3572.000,3538.000
3133.008,3547.000,3579.000,3566.000
3139.174,3580.000,3576.000,3580.000
3145.335,3619.000,3576.000,3592.000
3151.492,3605.000,3595.000,3598.000
3157.643,3605.000,3580.000,3582.000
3163.788,3606.000,3580.000,3583.000
3169.929,3600.000,3619.000,3632.000
3176.067,3640.000,3623.000,3638.000
3182.200,3636.000,3654.000,3630.000
3188.326,3651.000,3652.000,3639.000
3194.448,3654.000,3662.000,3648.000
3200.565,3663.000,3644.000,3646.000
3206.678,3636.000,3676.000,3671.000
3212.787,3703.000,3655.000,3682.000
3218.890,3671.000,3670.000,3688.000
3224.987,3684.000,3681.000,3693.000
3231.081,3703.000,3680.000,3687.000
3237.170,3695.000,3712.000,3712.000
3243.255,3715.000,3699.000,3711.000
3249.334,3729.000,3712.000,3702.000
3255.408,3744.000,3693.000,3746.000
3261.477,3742.000,3736.000,3725.000
3267.542,3736.000,3713.000,3737.000
3273.603,3750.000,3728.000,3714.000
3279.659,3777.000,3738.000,3740.000
3285.710,3751.000,3742.000,3742.000
3291.755,3761.000,3756.000,3781.000
3297.798,3780.000,3758.000,3737.000
3303.834,3786.000,3783.000,3745.000
3309.866,3772.000,3810.000,3773.000
3315.893,3770.000,3787.000,3791.000
3321.915,3792.000,3804.000,3803.000
3327.935,3808.000,3784.000,3782.000
3333.947,3783.000,3800.000,3821.000
3339.957,3826.000,3810.000,3817.000
3345.960,3819.000,3855.000,3796.000
3351.960,3836.000,3856.000,3856.000
3357.954,3880.000,3869.000,3830.000
3363.942,3852.000,3865.000,3873.000
3369.930,3876.000,3891.000,3827.000
3375.910,3856.000,3862.000,3886.000
3381.886,3887.000,3879.000,3864.000
3387.858,3878.000,3867.000,3895.000
3393.825,3899.000,3901.000,3869.000
3399.787,3904.000,3934.000,3899.000
3405.744,3917.000,3921.000,3920.000
3411.697,3922.000,3932.000,3913.000
3417.645,3901.000,3958.000,3932.000
3423.589,3927.000,3948.000,3919.000
3429.529,3912.000,3962.000,3933.000
3435.463,3933.000,3938.000,3940.000
3441.392,3948.000,3934.000,3956.000
3447.318,3901.000,3925.000,3912.000
3453.239,3937.000,3935.000,3940.000
3459.155,3978.000,3937.000,3973.000
3465.068,3950.000,3948.000,3967.000
3470.974,3928.000,3964.000,3961.000
3476.878,3960.000,3982.000,3990.000
3482.775,3942.000,3960.000,3979.000
3488.670,3963.000,3997.000,3965.000
3494.558,3964.000,3958.000,3961.000
3500.441,3984.000,3957.000,3994.000
3506.323,3968.000,3973.000,3992.000
3512.197,4008.000,4018.000,4052.000
3518.069,3988.000,4041.000,3999.000
3523.934,4012.000,3991.000,4030.000
3529.797,4019.000,4033.000,4090.000
3535.655,4044.000,4079.000,4079.000
3541.506,4079.000,4031.000,4095.000
3547.356,4105.000,4117.000,4107.000
3553.199,4139.000,4144.000,4130.000
3559.039,4180.000,4128.000,4184.000
3564.873,4241.000,4220.000,4148.000
3570.705,4198.000,4254.000,4252.000
3576.531,4235.000,4224.000,4248.000
3582.352,4256.000,4229.000,4208.000
3588.169,4211.000,4228.000,4199.000
3593.980,4186.000,4200.000,4190.000
3599.791,4131.000,4162.000,4215.000
3605.593,4170.000,4145.000,4135.000
3611.395,4090.000,4110.000,4101.000
3617.188,4079.000,4070.000,4090.000
3622.979,4074.000,4065.000,4081.000
3628.765,4060.000,4027.000,4079.000
3634.546,4042.000,4027.000,3996.000
3640.325,3971.000,3995.000,3985.000
3646.097,3958.000,3962.000,3971.000
3651.866,3895.000,3895.000,3893.000
3657.629,3822.000,3837.000,3826.000
3663.389,3740.000,3765.000,3786.000
3669.145,3675.000,3675.000,3698.000
3674.895,3595.000,3602.000,3632.000
3680.642,3550.000,3524.000,3523.000
3686.385,3454.000,3500.000,3471.000
3692.123,3427.000,3425.000,3421.000
3697.857,3402.000,3389.000,3406.000
3703.585,3357.000,3358.000,3353.000
3709.309,3334.000,3308.000,3330.000
3715.030,3317.000,3300.000,3307.000
3720.747,3274.000,3298.000,3294.000
3726.459,3299.000,3300.000,3270.000
3732.166,3287.000,3291.000,3260.000
3737.869,3275.000,3267.000,3245.000
3743.569,3255.000,3265.000,3251.000
3749.262,3270.000,3265.000,3244.000
3754.955,3256.000,3235.000,3258.000
3760.639,3253.000,3256.000,3250.000
3766.319,3243.000,3253.000,3251.000
3771.999,3242.000,3227.000,3249.000
3777.671,3252.000,3224.000,3232.000
3783.341,3238.000,3235.000,3233.000
3789.004,3258.000,3231.000,3227.000
3794.665,3237.000,3231.000,3224.000
3800.321,3225.000,3232.000,3229.000
3805.971,3242.000,3246.000,3232.000
3811.621,3219.000,3224.000,3220.000
3817.263,3223.000,3241.000,3218.000
3822.902,3255.000,3235.000,3227.000
3828.537,3221.000,3208.000,3223.000
3834.167,3228.000,3235.000,3233.000
3839.794,3223.000,3221.000,3226.000
3845.415,3233.000,3207.000,3228.000
3851.034,3219.000,3219.000,3211.000
3856.647,3222.000,3211.000,3220.000
3862.256,3223.000,3225.000,3235.000
3867.861,3236.000,3240.000,3223.000
3873.463,3220.000,3239.000,3227.000
3879.058,3235.000,3216.000,3205.000
3884.653,3232.000,3209.000,3224.000
3890.240,3219.000,3216.000,3243.000
3895.824,3224.000,3222.000,3227.000
3901.404,3216.000,3225.000,3219.000
3906.979,3208.000,3216.000,3222.000
3912.551,3226.000,3213.000,3219.000
3918.119,3221.000,3235.000,3220.000
3923.684,3213.000,3235.000,3221.000
3929.241,3211.000,3215.000,3219.000
3934.795,3232.000,3234.000,3245.000
3940.346,3219.000,3222.000,3214.000
3945.893,3231.000,3204.000,3213.000
3951.436,3225.000,3226.000,3225.000
3956.975,3232.000,3222.000,3227.000
3962.509,3224.000,3206.000,3222.000
3968.038,3220.000,3234.000,3214.000
3973.564,3219.000,3213.000,3218.000
3979.087,3221.000,3220.000,3213.000
3984.605,3221.000,3195.000,3221.000
3990.118,3205.000,3212.000,3207.000
3995.627,3209.000,3211.000,3202.000
4001.134,3203.000,3203.000,3205.000
4006.634,3200.000,3206.000,3209.000
4012.134,3199.000,3206.000,3213.000
4017.625,3226.000,3197.000,3199.000
4023.113,3208.000,3191.000,3200.000
4028.599,3201.000,3188.000,3206.000
4034.080,3207.000,3189.000,3191.000
4039.559,3209.000,3191.000,3202.000
4045.030,3218.000,3187.000,3191.000
4050.500,3206.000,3215.000,3180.000
4055.964,3196.000,3204.000,3202.000
4061.424,3218.000,3216.000,3177.000
4066.881,3210.000,3190.000,3192.000
4072.333,3201.000,3180.000,3191.000
4077.783,3211.000,3203.000,3199.000
4083.227,3177.000,3206.000,3197.000
4088.667,3199.000,3215.000,3199.000
4094.104,3200.000,3198.000,3194.000
4099.536,3199.000,3204.000,3185.000
4104.964,3196.000,3196.000,3200.000
4110.389,3193.000,3185.000,3196.000
4115.810,3206.000,3182.000,3181.000
4121.226,3207.000,3192.000,3187.000
4126.640,3189.000,3189.000,3193.000
4132.047,3187.000,3199.000,3197.000
4137.452,3202.000,3177.000,3179.000
4142.852,3194.000,3185.000,3199.000
4148.249,3197.000,3181.000,3189.000
4153.641,3192.000,3176.000,3191.000
4159.029,3194.000,3171.000,3178.000
4164.415,3211.000,3178.000,3185.000
4169.795,3208.000,3175.000,3180.000
4175.173,3211.000,3189.000,3200.000
4180.545,3192.000,3185.000,3189.000
4185.913,3178.000,3197.000,3192.000
4191.279,3188.000,3184.000,3198.000
4196.639,3196.000,3191.000,3181.000
4201.998,3184.000,3179.000,3177.000
4207.349,3173.000,3192.000,3182.000
4212.699,3178.000,3193.000,3187.000
4218.044,3196.000,3179.000,3187.000
4223.384,3202.000,3189.000,3166.000
4228.723,3179.000,3181.000,3174.000
4234.056,3187.000,3163.000,3183.000
4239.386,3174.000,3184.000,3168.000
4244.711,3159.000,3165.000,3185.000
4250.033,3175.000,3208.000,3183.000
4255.352,3172.000,3173.000,3183.000
4260.665,3158.000,3191.000,3182.000
4265.975,3183.000,3183.000,3174.000
4271.280,3181.000,3182.000,3178.000
4276.584,3175.000,3175.000,3176.000
4281.881,3188.000,3173.000,3180.000
4287.178,3177.000,3187.000,3170.000
4292.468,3182.000,3164.000,3168.000
4297.754,3191.000,3167.000,3182.000
4303.038,3173.000,3172.000,3200.000
4308.315,3169.000,3175.000,3166.000
4313.592,3178.000,3162.000,3182.000
4318.864,3180.000,3175.000,3180.000
4324.131,3187.000,3178.000,3178.000
4329.395,3176.000,3178.000,3169.000
4334.655,3162.000,3164.000,3160.000
4339.912,3174.000,3175.000,3181.000
4345.163,3183.000,3154.000,3179.000
4350.412,3173.000,3169.000,3175.000
4355.657,3184.000,3177.000,3169.000
4360.898,3169.000,3180.000,3171.000
4366.135,3173.000,3180.000,3164.000
4371.369,3172.000,3176.000,3164.000
4376.597,3186.000,3183.000,3161.000
4381.825,3170.000,3160.000,3171.000
4387.046,3170.000,3166.000,3163.000
4392.265,3182.000,3167.000,3181.000
4397.479,3154.000,3158.000,3170.000
4402.688,3169.000,3161.000,3158.000
4407.897,3170.000,3165.000,3160.000
4413.098,3184.000,3164.000,3171.000
4418.300,3175.000,3169.000,3159.000
4423.494,3157.000,3139.000,3164.000
4428.685,3161.000,3150.000,3164.000
4433.875,3159.000,3169.000,3159.000
4439.058,3156.000,3156.000,3163.000
4444.239,3163.000,3161.000,3177.000
4449.415,3159.000,3158.000,3167.000
4454.589,3161.000,3167.000,3174.000
4459.759,3176.000,3161.000,3171.000
4464.923,3167.000,3162.000,3167.000
4470.087,3156.000,3160.000,3155.000
4475.244,3155.000,3166.000,3168.000
4480.399,3163.000,3183.000,3165.000
4485.549,3171.000,3155.000,3163.000
4490.697,3164.000,3162.000,3162.000
4495.841,3170.000,3175.000,3166.000
4500.980,3171.000,3165.000,3175.000
4506.115,3161.000,3159.000,3147.000
4511.248,3175.000,3171.000,3160.000
4516.377,3162.000,3177.000,3163.000
4521.502,3164.000,3170.000,3157.000
4526.624,3144.000,3152.000,3169.000
4531.741,3154.000,3168.000,3154.000
4536.856,3152.000,3158.000,3164.000
4541.965,3160.000,3152.000,3162.000
4547.071,3140.000,3136.000,3155.000
4552.175,3150.000,3139.000,3158.000
4557.273,3158.000,3149.000,3154.000
4562.370,3150.000,3143.000,3158.000
4567.462,3159.000,3152.000,3161.000
4572.551,3151.000,3148.000,3163.000
4577.635,3155.000,3159.000,3147.000
4582.715,3166.000,3140.000,3150.000
4587.792,3163.000,3149.000,3148.000
4592.867,3140.000,3145.000,3155.000
4597.939,3160.000,3137.000,3135.000
4603.004,3150.000,3144.000,3154.000
4608.067,3156.000,3136.000,3135.000
4613.125,3151.000,3145.000,3163.000
4618.183,3162.000,3158.000,3139.000
4623.234,3133.000,3136.000,3151.000
4628.283,3146.000,3148.000,3151.000
4633.328,3153.000,3152.000,3139.000
4638.369,3143.000,3146.000,3149.000
4643.407,3155.000,3145.000,3132.000
4648.441,3145.000,3147.000,3142.000
4653.473,3139.000,3139.000,3145.000
4658.499,3147.000,3134.000,3142.000
4663.522,3153.000,3154.000,3143.000
4668.543,3155.000,3145.000,3149.000
4673.558,3147.000,3137.000,3142.000
4678.573,3136.000,3134.000,3142.000
4683.581,3128.000,3124.000,3134.000
4688.587,3125.000,3135.000,3153.000
4693.589,3138.000,3130.000,3139.000
4698.588,3151.000,3136.000,3148.000
4703.582,3144.000,3132.000,3137.000
4708.573,3140.000,3130.000,3135.000
4713.562,3141.000,3140.000,3152.000
4718.547,3138.000,3138.000,3132.000
4723.528,3127.000,3140.000,3125.000
4728.505,3149.000,3140.000,3140.000
4733.479,3153.000,3125.000,3122.000
4738.449,3141.000,3130.000,3112.000
4743.415,3137.000,3136.000,3143.000
4748.379,3140.000,3127.000,3126.000
4753.340,3129.000,3144.000,3133.000
4758.295,3128.000,3131.000,3133.000
4763.248,3134.000,3131.000,3135.000
4768.199,3138.000,3136.000,3134.000
4773.143,3145.000,3138.000,3144.000
4778.086,3131.000,3137.000,3135.000
4783.024,3125.000,3123.000,3134.000
4787.959,3127.000,3124.000,3127.000
4792.893,3126.000,3124.000,3123.000
4797.820,3121.000,3126.000,3129.000
4802.746,3129.000,3126.000,3118.000
4807.667,3129.000,3135.000,3134.000
4812.586,3135.000,3135.000,3127.000
4817.500,3130.000,3141.000,3124.000
4822.410,3139.000,3138.000,3139.000
4827.319,3145.000,3136.000,3139.000
4832.223,3136.000,3122.000,3127.000
4837.124,3139.000,3117.000,3124.000
4842.021,3145.000,3128.000,3119.000
4846.915,3140.000,3136.000,3121.000
4851.806,3126.000,3116.000,3128.000
4856.692,3128.000,3125.000,3127.000
4861.577,3125.000,3126.000,3133.000
4866.457,3132.000,3132.000,3117.000
4871.333,3130.000,3128.000,3132.000
4876.208,3138.000,3127.000,3123.000
4881.077,3128.000,3135.000,3119.000
4885.944,3128.000,3124.000,3130.000
4890.805,3113.000,3119.000,3134.000
4895.667,3129.000,3129.000,3116.000
4900.523,3118.000,3130.000,3131.000
4905.377,3133.000,3125.000,3131.000
4910.224,3121.000,3128.000,3134.000
4915.072,3129.000,3116.000,3126.000
4919.915,3118.000,3120.000,3125.000
4924.754,3111.000,3127.000,3124.000
4929.590,3131.000,3143.000,3132.000
4934.422,3116.000,3130.000,3126.000
4939.251,3125.000,3123.000,3129.000
4944.078,3123.000,3129.000,3115.000
4948.901,3139.000,3129.000,3115.000
4953.721,3116.000,3126.000,3133.000
4958.537,3126.000,3111.000,3117.000
4963.348,3130.000,3127.000,3122.000
4968.157,3119.000,3124.000,3125.000
4972.964,3120.000,3124.000,3133.000
4977.766,3126.000,3123.000,3120.000
4982.566,3121.000,3118.000,3114.000
4987.361,3121.000,3125.000,3122.000
4992.154,3114.000,3127.000,3122.000
4996.943,3122.000,3132.000,3124.000
5001.729,3129.000,3117.000,3114.000
5006.511,3129.000,3112.000,3133.000
5011.290,3124.000,3126.000,3129.000
5016.067,3120.000,3122.000,3121.000
5020.839,3136.000,3121.000,3119.000
5025.609,3110.000,3107.000,3112.000
5030.374,3125.000,3123.000,3118.000
5035.138,3128.000,3118.000,3111.000
5039.897,3125.000,3120.000,3113.000
5044.653,3120.000,3111.000,3120.000
5049.407,3127.000,3127.000,3111.000
5054.156,3126.000,3125.000,3106.000
5058.902,3131.000,3110.000,3113.000
5063.646,3115.000,3119.000,3112.000
5068.385,3127.000,3121.000,3112.000
5073.122,3118.000,3111.000,3122.000
5077.854,3114.000,3127.000,3116.000
5082.584,3133.000,3105.000,3108.000
5087.311,3109.000,3127.000,3116.000
5092.035,3122.000,3125.000,3117.000
5096.755,3126.000,3128.000,3109.000
5101.473,3109.000,3112.000,3123.000
5106.185,3126.000,3111.000,3118.000
5110.895,3121.000,3095.000,3113.000
5115.603,3112.000,3120.000,3115.000
5120.307,3126.000,3103.000,3116.000
5125.008,3113.000,3114.000,3126.000
5129.704,3115.000,3113.000,3110.000
5134.401,3117.000,3114.000,3118.000
5139.091,3121.000,3111.000,3121.000
5143.780,3121.000,3108.000,3102.000
5148.464,3112.000,3119.000,3101.000
5153.144,3119.000,3116.000,3109.000
5157.823,3113.000,3109.000,3115.000
5162.498,3111.000,3110.000,3117.000
5167.170,3111.000,3109.000,3100.000
5171.839,3109.000,3107.000,3098.000
5176.503,3108.000,3118.000,3110.000
5181.165,3111.000,3110.000,3112.000
5185.825,3108.000,3110.000,3107.000
5190.481,3123.000,3100.000,3105.000
5195.133,3114.000,3106.000,3111.000
5199.783,3099.000,3109.000,3090.000
5204.428,3127.000,3116.000,3100.000
5209.073,3107.000,3101.000,3113.000
5213.712,3107.000,3112.000,3108.000
5218.349,3111.000,3116.000,3097.000
5222.982,3116.000,3094.000,3108.000
5227.612,3109.000,3116.000,3098.000
5232.241,3102.000,3108.000,3097.000
5236.864,3113.000,3098.000,3108.000
5241.485,3106.000,3112.000,3111.000
5246.102,3115.000,3121.000,3098.000
5250.717,3109.000,3102.000,3102.000
5255.329,3109.000,3110.000,3100.000
5259.937,3095.000,3105.000,3099.000
5264.544,3108.000,3110.000,3110.000
5269.144,3104.000,3098.000,3096.000
5273.744,3118.000,3101.000,3106.000
5278.340,3109.000,3098.000,3093.000
5282.933,3111.000,3107.000,3112.000
5287.523,3098.000,3103.000,3103.000
5292.109,3104.000,3113.000,3093.000
5296.692,3102.000,3122.000,3095.000
5301.273,3119.000,3117.000,3112.000
5305.850,3107.000,3109.000,3096.000
5310.424,3104.000,3116.000,3096.000
5314.995,3109.000,3096.000,3113.000
5319.562,3110.000,3105.000,3112.000
5324.127,3098.000,3115.000,3102.000
5328.689,3109.000,3104.000,3105.000
5333.247,3110.000,3117.000,3099.000
5337.804,3112.000,3104.000,3109.000
5342.355,3108.000,3112.000,3102.000
5346.905,3106.000,3113.000,3099.000
5351.451,3104.000,3109.000,3106.000
5355.996,3110.000,3108.000,3109.000
5360.535,3116.000,3098.000,3100.000
5365.071,3114.000,3097.000,3087.000
5369.606,3101.000,3102.000,3102.000
5374.136,3097.000,3102.000,3112.000
5378.666,3109.000,3103.000,3110.000
5383.190,3099.000,3110.000,3098.000
5387.711,3097.000,3100.000,3115.000
5392.230,3114.000,3108.000,3104.000
5396.745,3110.000,3092.000,3101.000
5401.260,3093.000,3105.000,3113.000
5405.768,3095.000,3098.000,3104.000
5410.275,3101.000,3098.000,3104.000
5414.779,3103.000,3096.000,3097.000
5419.279,3102.000,3105.000,3101.000
5423.777,3105.000,3106.000,3112.000
5428.270,3100.000,3093.000,3098.000
5432.762,3097.000,3110.000,3115.000
5437.250,3102.000,3104.000,3116.000
5441.736,3111.000,3096.000,3100.000
5446.219,3113.000,3103.000,3106.000
5450.699,3109.000,3102.000,3091.000
5455.174,3096.000,3100.000,3088.000
5459.648,3107.000,3098.000,3091.000
5464.118,3105.000,3098.000,3099.000
5468.586,3098.000,3099.000,3107.000
5473.051,3093.000,3098.000,3097.000
5477.510,3113.000,3093.000,3104.000
5481.969,3103.000,3099.000,3105.000
5486.425,3090.000,3095.000,3095.000
5490.878,3107.000,3099.000,3108.000
5495.328,3098.000,3089.000,3098.000
5499.774,3094.000,3096.000,3096.000
5504.217,3104.000,3079.000,3096.000
5508.657,3098.000,3093.000,3106.000
5513.095,3092.000,3108.000,3104.000
5517.530,3109.000,3100.000,3082.000
5521.962,3089.000,3111.000,3095.000
5526.390,3096.000,3105.000,3101.000
5530.816,3102.000,3105.000,3094.000
5535.238,3096.000,3099.000,3103.000
5539.659,3094.000,3108.000,3101.000
5544.077,3094.000,3103.000,3102.000
5548.489,3100.000,3109.000,3092.000
5552.902,3096.000,3095.000,3096.000
5557.308,3104.000,3097.000,3097.000
5561.715,3098.000,3099.000,3104.000
5566.116,3091.000,3092.000,3105.000
5570.515,3106.000,3086.000,3104.000
5574.913,3098.000,3107.000,3101.000
5579.305,3096.000,3100.000,3099.000
5583.697,3108.000,3100.000,3103.000
5588.084,3102.000,3102.000,3099.000
5592.469,3103.000,3093.000,3095.000
5596.851,3103.000,3096.000,3098.000
5601.228,3105.000,3087.000,3092.000
5605.606,3111.000,3095.000,3101.000
5609.978,3108.000,3096.000,3087.000
5614.348,3110.000,3097.000,3096.000
5618.716,3095.000,3095.000,3089.000
5623.081,3102.000,3099.000,3105.000
5627.443,3102.000,3099.000,3091.000
5631.800,3099.000,3087.000,3097.000
5636.157,3091.000,3102.000,3104.000
5640.508,3092.000,3099.000,3110.000
5644.860,3088.000,3095.000,3113.000
5649.207,3090.000,3102.000,3103.000
5653.551,3093.000,3093.000,3098.000
5657.891,3091.000,3101.000,3106.000
5662.230,3088.000,3100.000,3109.000
5666.567,3100.000,3097.000,3098.000