File: Raman/Silica/2025_08_22_BB1392_SiO2_8wtPctH2O_Glass_50X_532nm_6mW_Kymera328_600gv_1000wn_3accum_30s_Unpol_Pos2.csv
-1248.401,3034.000,3038.000,3032.000
-1243.470,3035.000,3036.000,3035.000
-1238.541,3037.000,3042.000,3033.000
-1233.614,3031.000,3039.000,3036.000
-1228.692,3034.000,3034.000,3029.000
-1223.768,3034.000,3034.000,3029.000
-1218.850,3033.000,3039.000,3046.000
-1213.933,3041.000,3031.000,3036.000
-1209.018,3039.000,3033.000,3035.000
-1204.105,3032.000,3034.000,3033.000
-1199.197,3033.000,3037.000,3037.000
-1194.289,3043.000,3035.000,3035.000
-1189.383,3035.000,3038.000,3029.000
-1184.482,3039.000,3031.000,3036.000
-1179.581,3034.000,3034.000,3036.000
-1174.685,3042.000,3039.000,3042.000
-1169.788,3035.000,3035.000,3042.000
-1164.896,3033.000,3034.000,3031.000
-1160.005,3036.000,3042.000,3034.000
-1155.118,3045.000,3034.000,3034.000
-1150.233,3039.000,3037.000,3040.000
-1145.348,3037.000,3036.000,3040.000
-1140.468,3036.000,3045.000,3040.000
-1135.590,3035.000,3036.000,3037.000
-1130.715,3042.000,3039.000,3041.000
-1125.839,3035.000,3033.000,3032.000
-1120.968,3031.000,3034.000,3039.000
-1116.100,3039.000,3035.000,3039.000
-1111.234,3044.000,3032.000,3040.000
-1106.367,3034.000,3039.000,3035.000
-1101.506,3033.000,3040.000,3036.000
-1096.647,3043.000,3034.000,3039.000
-1091.790,3038.000,3038.000,3034.000
-1086.935,3037.000,3046.000,3042.000
-1082.083,3041.000,3041.000,3040.000
-1077.233,3042.000,3038.000,3039.000
-1072.386,3035.000,3039.000,3044.000
-1067.541,3034.000,3039.000,3035.000
-1062.698,3039.000,3044.000,3044.000
-1057.857,3045.000,3037.000,3038.000
-1053.019,3032.000,3041.000,3039.000
-1048.183,3043.000,3033.000,3037.000
-1043.350,3034.000,3037.000,3042.000
-1038.518,3037.000,3042.000,3038.000
-1033.689,3043.000,3035.000,3038.000
-1028.863,3043.000,3038.000,3034.000
-1024.041,3044.000,3042.000,3042.000
-1019.217,3036.000,3040.000,3037.000
-1014.397,3035.000,3035.000,3026.000
-1009.582,3042.000,3037.000,3041.000
-1004.767,3044.000,3039.000,3042.000
-999.955,3032.000,3037.000,3046.000
-995.144,3043.000,3036.000,3042.000
-990.336,3048.000,3037.000,3046.000
-985.531,3043.000,3043.000,3046.000
-980.730,3044.000,3041.000,3045.000
-975.929,3039.000,3046.000,3040.000
-971.130,3046.000,3049.000,3041.000
-966.334,3048.000,3043.000,3040.000
-961.540,3044.000,3046.000,3045.000
-956.748,3045.000,3054.000,3044.000
-951.959,3031.000,3058.000,3043.000
-947.174,3038.000,3051.000,3046.000
-942.389,3047.000,3053.000,3041.000
-937.607,3048.000,3040.000,3041.000
-932.827,3050.000,3047.000,3036.000
-928.049,3043.000,3048.000,3043.000
-923.274,3046.000,3051.000,3040.000
-918.501,3039.000,3042.000,3053.000
-913.730,3040.000,3048.000,3046.000
-908.962,3049.000,3048.000,3038.000
-904.198,3047.000,3044.000,3042.000
-899.432,3041.000,3044.000,3047.000
-894.673,3056.000,3040.000,3043.000
-889.914,3047.000,3045.000,3045.000
-885.157,3043.000,3043.000,3043.000
-880.403,3043.000,3049.000,3048.000
-875.649,3040.000,3042.000,3043.000
-870.901,3043.000,3040.000,3043.000
-866.151,3036.000,3042.000,3045.000
-861.409,3041.000,3040.000,3042.000
-856.664,3043.000,3037.000,3048.000
-851.925,3040.000,3043.000,3046.000
-847.185,3042.000,3039.000,3047.000
-842.449,3043.000,3045.000,3046.000
-837.716,3043.000,3046.000,3051.000
-832.985,3048.000,3049.000,3050.000
-828.256,3051.000,3045.000,3061.000
-823.527,3050.000,3050.000,3059.000
-818.805,3055.000,3048.000,3054.000
-814.081,3050.000,3048.000,3041.000
-809.362,3054.000,3054.000,3047.000
-804.645,3052.000,3054.000,3054.000
-799.930,3048.000,3061.000,3046.000
-795.215,3060.000,3045.000,3058.000
-790.505,3041.000,3056.000,3049.000
-785.795,3047.000,3057.000,3050.000
-781.089,3047.000,3051.000,3043.000
-776.384,3045.000,3051.000,3047.000
-771.683,3052.000,3054.000,3054.000
-766.984,3050.000,3046.000,3042.000
-762.286,3048.000,3055.000,3050.000
-757.589,3053.000,3044.000,3059.000
-752.898,3056.000,3049.000,3048.000
-748.206,3052.000,3053.000,3054.000
-743.517,3057.000,3047.000,3054.000
-738.830,3049.000,3060.000,3060.000
-734.148,3059.000,3052.000,3054.000
-729.467,3046.000,3053.000,3054.000
-724.786,3061.000,3050.000,3052.000
-720.110,3054.000,3051.000,3052.000
-715.435,3056.000,3046.000,3044.000
-710.763,3052.000,3048.000,3050.000
-706.091,3054.000,3059.000,3051.000
-701.423,3060.000,3057.000,3053.000
-696.758,3055.000,3064.000,3053.000
-692.092,3048.000,3055.000,3052.000
-687.432,3052.000,3060.000,3058.000
-682.773,3055.000,3067.000,3056.000
-678.116,3056.000,3054.000,3057.000
-673.460,3061.000,3060.000,3062.000
-668.808,3058.000,3057.000,3063.000
-664.158,3059.000,3065.000,3059.000
-659.511,3056.000,3064.000,3064.000
-654.862,3063.000,3066.000,3064.000
-650.220,3067.000,3062.000,3068.000
-645.578,3074.000,3064.000,3068.000
-640.938,3066.000,3069.000,3069.000
-636.301,3059.000,3064.000,3071.000
-631.667,3072.000,3061.000,3063.000
-627.034,3071.000,3075.000,3071.000
-622.402,3065.000,3073.000,3074.000
-617.775,3074.000,3077.000,3074.000
-613.149,3081.000,3071.000,3073.000
-608.524,3079.000,3079.000,3079.000
-603.903,3076.000,3073.000,3074.000
-599.284,3084.000,3079.000,3081.000
-594.667,3071.000,3081.000,3079.000
-590.050,3074.000,3089.000,3086.000
-585.439,3091.000,3082.000,3082.000
-580.829,3085.000,3092.000,3090.000
-576.220,3109.000,3096.000,3090.000
-571.613,3096.000,3087.000,3103.000
-567.009,3106.000,3100.000,3100.000
-562.408,3111.000,3106.000,3099.000
-557.807,3108.000,3122.000,3105.000
-553.210,3116.000,3117.000,3116.000
-548.615,3129.000,3113.000,3116.000
-544.022,3116.000,3118.000,3112.000
-539.429,3140.000,3133.000,3135.000
-534.842,3156.000,3147.000,3147.000
-530.256,3154.000,3142.000,3164.000
-525.672,3156.000,3171.000,3172.000
-521.088,3187.000,3180.000,3186.000
-516.508,3210.000,3207.000,3206.000
-511.931,3222.000,3225.000,3213.000
-507.354,3237.000,3249.000,3245.000
-502.781,3271.000,3261.000,3274.000
-498.210,3296.000,3309.000,3281.000
-493.641,3311.000,3320.000,3318.000
-489.073,3332.000,3331.000,3339.000
-484.508,3358.000,3341.000,3349.000
-479.946,3360.000,3377.000,3382.000
-475.386,3373.000,3375.000,3390.000
-470.826,3366.000,3383.000,3360.000
-466.269,3367.000,3364.000,3369.000
-461.716,3387.000,3398.000,3362.000
-457.162,3371.000,3386.000,3384.000
-452.614,3383.000,3362.000,3366.000
-448.067,3388.000,3400.000,3390.000
-443.522,3372.000,3382.000,3378.000
-438.977,3382.000,3393.000,3378.000
-434.436,3379.000,3383.000,3380.000
-429.898,3384.000,3365.000,3360.000
-425.359,3352.000,3406.000,3382.000
-420.824,3388.000,3374.000,3379.000
-416.292,3391.000,3409.000,3400.000
-411.763,3372.000,3366.000,3380.000
-407.233,3383.000,3373.000,3404.000
-402.707,3384.000,3385.000,3375.000
-398.183,3393.000,3395.000,3387.000
-393.662,3411.000,3400.000,3387.000
-389.141,3408.000,3403.000,3399.000
-384.623,3412.000,3428.000,3393.000
-380.108,3417.000,3413.000,3391.000
-375.592,3407.000,3418.000,3424.000
-371.082,3412.000,3408.000,3435.000
-366.574,3411.000,3422.000,3429.000
-362.067,3425.000,3441.000,3432.000
-357.561,3448.000,3435.000,3451.000
-353.058,3421.000,3445.000,3435.000
-348.558,3456.000,3435.000,3423.000
-344.058,3442.000,3415.000,3443.000
-339.562,3424.000,3429.000,3451.000
-335.068,3437.000,3448.000,3429.000
-330.576,3471.000,3438.000,3450.000
-326.084,3481.000,3470.000,3444.000
-321.597,3484.000,3483.000,3471.000
-317.111,3499.000,3480.000,3464.000
-312.628,3487.000,3479.000,3473.000
-308.145,3468.000,3484.000,3487.000
-303.665,3451.000,3478.000,3499.000
-299.189,3495.000,3477.000,3476.000
-294.712,3491.000,3517.000,3515.000
-290.239,3510.000,3509.000,3515.000
-285.767,3516.000,3517.000,3526.000
-281.299,3516.000,3515.000,3523.000
-276.830,3518.000,3515.000,3534.000
-272.366,3530.000,3533.000,3560.000
-267.904,3552.000,3557.000,3566.000
-263.444,3565.000,3546.000,3546.000
-258.983,3545.000,3556.000,3577.000
-254.527,3567.000,3567.000,3588.000
-250.073,3583.000,3590.000,3591.000
-245.619,3592.000,3566.000,3611.000
-241.169,3604.000,3593.000,3611.000
-236.722,3625.000,3640.000,3598.000
-232.276,3653.000,3646.000,3622.000
-227.830,3670.000,3640.000,3624.000
-223.389,3664.000,3666.000,3676.000
-218.949,3694.000,3670.000,3678.000
-214.510,3703.000,3724.000,3697.000
-210.074,3702.000,3722.000,3721.000
-205.641,3775.000,3766.000,3747.000
-201.209,3788.000,3771.000,3792.000
-196.778,3796.000,3831.000,3789.000
-192.351,3796.000,3799.000,3804.000
-187.926,3863.000,3850.000,3843.000
-183.504,3843.000,3842.000,3882.000
-179.080,3889.000,3943.000,3895.000
-174.662,3910.000,3940.000,3951.000
-170.245,3943.000,3937.000,3979.000
-165.828,4007.000,4048.000,4005.000
-161.415,4079.000,4049.000,4048.000
-157.005,4136.000,4116.000,4108.000
-152.597,4173.000,4139.000,4128.000
-148.188,4172.000,4185.000,4172.000
-143.783,4238.000,4253.000,4213.000
-139.381,4288.000,4296.000,4262.000
-134.978,4358.000,4299.000,4289.000
-130.580,4436.000,4408.000,4407.000
-126.184,4439.000,4497.000,4428.000
-121.790,4594.000,4507.000,4512.000
-117.395,4631.000,4576.000,4569.000
-113.005,4714.000,4746.000,4643.000
-108.617,4754.000,4802.000,4776.000
-104.231,4840.000,4812.000,4856.000
-99.845,4953.000,4938.000,4931.000
-95.462,5014.000,5045.000,5037.000
-91.083,5158.000,5144.000,5026.000
-86.703,5237.000,5190.000,5209.000
-82.327,5309.000,5251.000,5274.000
-77.953,5412.000,5370.000,5360.000
-73.581,5436.000,5498.000,5440.000
-69.209,5493.000,5552.000,9109.000
-64.841,5695.000,5630.000,8050.000
-60.476,5723.000,5626.000,5742.000
-56.111,5819.000,5843.000,5803.000
-51.748,5795.000,5832.000,5789.000
-47.388,5806.000,5853.000,5793.000
-43.031,5793.000,5856.000,5837.000
-38.672,5804.000,5875.000,5811.000
-34.319,5834.000,5844.000,5817.000
-29.967,5871.000,5923.000,5896.000
-25.618,6029.000,5988.000,5967.000
-21.268,6335.000,6325.000,6306.000
-16.923,7355.000,7358.000,7333.000
-12.579,8324.000,8422.000,8286.000
-8.237,9052.000,8977.000,8953.000
-3.896,9743.000,9770.000,9690.000
0.442,10133.000,10182.000,10174.000
4.777,10966.000,10937.000,11026.000
9.114,11749.000,11725.000,11727.000
13.445,13310.000,13269.000,13446.000
17.775,13992.000,13976.000,14004.000
22.102,14203.000,14032.000,14083.000
26.430,11699.000,11766.000,11622.000
30.754,10828.000,10839.000,10738.000
35.075,10170.000,10107.000,10072.000
39.397,9990.000,10089.000,9921.000
43.715,10056.000,9873.000,9902.000
48.030,9293.000,9184.000,9249.000
52.343,8213.000,8072.000,8203.000
56.658,7407.000,7317.000,7282.000
60.967,6942.000,6964.000,6977.000
65.275,6721.000,6671.000,6750.000
69.583,6532.000,6574.000,6503.000
73.887,6503.000,6403.000,6371.000
78.189,6237.000,6249.000,6263.000
82.488,6151.000,6236.000,6158.000
86.788,6106.000,6042.000,6115.000
91.084,6087.000,6037.000,6041.000
95.379,5958.000,5999.000,5882.000
99.670,5892.000,5869.000,5886.000
103.962,5835.000,5803.000,5770.000
108.249,5695.000,5712.000,5740.000
112.536,5688.000,5696.000,5657.000
116.822,5651.000,5523.000,5605.000
121.104,5515.000,5497.000,5492.000
125.385,5458.000,5438.000,5409.000
129.663,5403.000,5397.000,5346.000
133.941,5390.000,5376.000,5397.000
138.215,5307.000,5277.000,5330.000
142.487,5263.000,5211.000,5264.000
146.757,5237.000,5239.000,5212.000
151.029,5192.000,5186.000,5139.000
155.294,5132.000,5095.000,5101.000
159.560,5028.000,5026.000,5030.000
163.824,5070.000,5070.000,5079.000
168.085,5001.000,5018.000,5018.000
172.343,4969.000,4962.000,4948.000
176.599,4977.000,4911.000,4969.000
180.857,4887.000,4901.000,4912.000
185.109,4887.000,4877.000,4899.000
189.360,4904.000,4869.000,4875.000
193.609,4893.000,4832.000,4878.000
197.858,4881.000,4827.000,4887.000
202.102,4835.000,4811.000,4877.000
206.346,4841.000,4828.000,4851.000
210.589,4865.000,4849.000,4894.000
214.829,4805.000,4825.000,4843.000
219.065,4882.000,4829.000,4835.000
223.300,4862.000,4868.000,4839.000
227.537,4894.000,4835.000,4863.000
231.768,4820.000,4791.000,4834.000
235.998,4797.000,4786.000,4778.000
240.225,4863.000,4778.000,4818.000
244.453,4803.000,4797.000,4811.000
248.677,4816.000,4833.000,4785.000
252.899,4801.000,4816.000,4827.000
257.120,4848.000,4814.000,4865.000
261.339,4826.000,4851.000,4793.000
265.555,4822.000,4831.000,4847.000
269.769,4862.000,4886.000,4838.000
273.983,4909.000,4853.000,4868.000
278.194,4870.000,4846.000,4880.000
282.402,4889.000,4884.000,4848.000
286.611,4904.000,4895.000,4908.000
290.815,4934.000,4900.000,4900.000
295.018,4950.000,4916.000,4907.000
299.218,4960.000,4946.000,4948.000
303.420,4948.000,4921.000,4922.000
307.617,4923.000,4946.000,4980.000
311.811,5005.000,4968.000,4929.000
316.007,4939.000,4947.000,5048.000
320.198,5035.000,4963.000,5027.000
324.387,5067.000,5042.000,5046.000
328.575,5032.000,5065.000,5104.000
332.762,5087.000,5095.000,5080.000
336.946,5185.000,5062.000,5157.000
341.128,5146.000,5102.000,5139.000
345.308,5186.000,5155.000,5159.000
349.488,5154.000,5251.000,5154.000
353.663,5246.000,5195.000,5198.000
357.838,5251.000,5213.000,5224.000
362.013,5279.000,5271.000,5248.000
366.183,5299.000,5323.000,5318.000
370.352,5347.000,5306.000,5344.000
374.518,5352.000,5371.000,5356.000
378.685,5349.000,5392.000,5377.000
382.848,5398.000,5401.000,5375.000
387.008,5433.000,5423.000,5437.000
391.168,5389.000,5431.000,5400.000
395.327,5453.000,5501.000,5409.000
399.482,5471.000,5493.000,5482.000
403.636,5533.000,5513.000,5493.000
407.790,5571.000,5552.000,5534.000
411.940,5551.000,5563.000,5590.000
416.088,5617.000,5658.000,5619.000
420.233,5696.000,5632.000,5748.000
424.380,5711.000,5672.000,5765.000
428.522,5773.000,5811.000,5726.000
432.662,5818.000,5784.000,5835.000
436.800,5896.000,5964.000,5873.000
440.939,5944.000,5937.000,5990.000
445.074,5976.000,5946.000,6005.000
449.207,6021.000,6018.000,6056.000
453.341,6083.000,6053.000,6099.000
457.470,6159.000,6156.000,6124.000
461.597,6250.000,6183.000,6207.000
465.723,6221.000,6296.000,6252.000
469.848,6332.000,6226.000,6350.000
473.969,6365.000,6234.000,6311.000
478.089,6339.000,6245.000,6387.000
482.208,6140.000,6183.000,6222.000
486.326,6064.000,6084.000,6066.000
490.440,5917.000,5907.000,5865.000
494.553,5701.000,5706.000,5785.000
498.666,5538.000,5526.000,5481.000
502.774,5314.000,5272.000,5232.000
506.881,5119.000,5073.000,5105.000
510.986,4923.000,4892.000,4942.000
515.092,4747.000,4728.000,4696.000
519.193,4594.000,4629.000,4672.000
523.292,4492.000,4497.000,4499.000
527.392,4397.000,4396.000,4403.000
531.489,4355.000,4264.000,4305.000
535.582,4227.000,4210.000,4254.000
539.675,4152.000,4182.000,4147.000
543.767,4083.000,4077.000,4106.000
547.856,4022.000,4070.000,4055.000
551.943,4009.000,4002.000,3982.000
556.029,3972.000,3940.000,3944.000
560.113,3943.000,3923.000,3964.000
564.194,3891.000,3884.000,3878.000
568.274,3877.000,3865.000,3920.000
572.353,3835.000,3843.000,3816.000
576.429,3823.000,3813.000,3803.000
580.503,3760.000,3790.000,3792.000
584.576,3747.000,3779.000,3744.000
588.648,3715.000,3732.000,3712.000
592.716,3718.000,3732.000,3710.000
596.783,3705.000,3698.000,3690.000
600.849,3658.000,3672.000,3678.000
604.912,3669.000,3650.000,3653.000
608.974,3647.000,3623.000,3617.000
613.033,3604.000,3613.000,3621.000
617.093,3604.000,3592.000,3611.000
621.149,3576.000,3582.000,3580.000
625.202,3576.000,3562.000,3583.000
629.255,3565.000,3548.000,3565.000
633.307,3556.000,3563.000,3543.000
637.356,3536.000,3530.000,3548.000
641.403,3492.000,3507.000,3508.000
645.449,3525.000,3527.000,3536.000
649.493,3515.000,3525.000,3494.000
653.534,3508.000,3506.000,3503.000
657.574,3508.000,3477.000,3512.000
661.613,3494.000,3493.000,3507.000
665.650,3471.000,3479.000,3492.000
669.683,3488.000,3479.000,3463.000
673.716,3450.000,3477.000,3477.000
677.749,3475.000,3452.000,3466.000
681.778,3495.000,3476.000,3494.000
685.805,3465.000,3479.000,3457.000
689.831,3484.000,3477.000,3478.000
693.855,3451.000,3466.000,3470.000
697.877,3462.000,3451.000,3480.000
701.897,3458.000,3455.000,3464.000
705.916,3453.000,3467.000,3495.000
709.933,3446.000,3436.000,3444.000
713.948,3433.000,3448.000,3454.000
717.962,3473.000,3443.000,3448.000
721.974,3451.000,3451.000,3434.000
725.983,3449.000,3443.000,3439.000
729.990,3465.000,3433.000,3455.000
733.997,3447.000,3453.000,3467.000
738.002,3443.000,3438.000,3436.000
742.003,3443.000,3439.000,3466.000
746.005,3481.000,3439.000,3470.000
750.004,3459.000,3485.000,3460.000
754.001,3464.000,3484.000,3504.000
757.996,3494.000,3510.000,3488.000
761.991,3532.000,3507.000,3502.000
765.982,3557.000,3571.000,3537.000
769.972,3626.000,3581.000,3611.000
773.960,3624.000,3627.000,3634.000
777.948,3636.000,3678.000,3652.000
781.932,3661.000,3674.000,3684.000
785.915,3695.000,3666.000,3687.000
789.897,3692.000,3701.000,3724.000
793.876,3715.000,3697.000,3695.000
797.854,3690.000,3694.000,3714.000
801.830,3699.000,3675.000,3686.000
805.805,3695.000,3695.000,3702.000
809.778,3671.000,3673.000,3662.000
813.748,3628.000,3652.000,3616.000
817.717,3644.000,3597.000,3606.000
821.686,3591.000,3603.000,3613.000
825.651,3599.000,3550.000,3530.000
829.614,3534.000,3549.000,3537.000
833.577,3508.000,3523.000,3489.000
837.537,3481.000,3487.000,3476.000
841.495,3434.000,3453.000,3435.000
845.452,3432.000,3431.000,3432.000
849.408,3404.000,3395.000,3403.000
853.361,3399.000,3392.000,3406.000
857.312,3353.000,3398.000,3403.000
861.261,3370.000,3387.000,3368.000
865.211,3375.000,3363.000,3379.000
869.156,3376.000,3391.000,3378.000
873.100,3389.000,3384.000,3385.000
877.045,3386.000,3375.000,3377.000
880.985,3376.000,3385.000,3388.000
884.925,3408.000,3411.000,3398.000
888.862,3423.000,3395.000,3430.000
892.799,3443.000,3412.000,3426.000
896.733,3446.000,3464.000,3449.000
900.665,3460.000,3448.000,3474.000
904.595,3483.000,3455.000,3465.000
908.526,3467.000,3497.000,3484.000
912.452,3522.000,3520.000,3495.000
916.378,3532.000,3538.000,3520.000
920.303,3555.000,3555.000,3535.000
924.225,3575.000,3567.000,3541.000
928.145,3569.000,3597.000,3616.000
932.063,3629.000,3589.000,3579.000
935.981,3657.000,3669.000,3653.000
939.896,3680.000,3720.000,3696.000
943.810,3695.000,3732.000,3738.000
947.723,3785.000,3757.000,3771.000
951.632,3799.000,3803.000,3802.000
955.540,3829.000,3827.000,3812.000
959.447,3866.000,3859.000,3866.000
963.353,3895.000,3879.000,3873.000
967.256,3886.000,3922.000,3869.000
971.157,3878.000,3829.000,3860.000
975.058,3851.000,3791.000,3849.000
978.956,3809.000,3772.000,3827.000
982.852,3770.000,3754.000,3763.000
986.746,3686.000,3716.000,3699.000
990.640,3636.000,3662.000,3657.000
994.532,3599.000,3597.000,3608.000
998.420,3568.000,3551.000,3569.000
1002.309,3534.000,3549.000,3527.000
1006.196,3526.000,3490.000,3490.000
1010.081,3499.000,3476.000,3476.000
1013.962,3460.000,3440.000,3454.000
1017.845,3432.000,3435.000,3416.000
1021.724,3445.000,3411.000,3435.000
1025.601,3439.000,3429.000,3422.000
1029.477,3433.000,3410.000,3422.000
1033.353,3415.000,3417.000,3430.000
1037.225,3425.000,3401.000,3436.000
1041.096,3419.000,3427.000,3415.000
1044.964,3424.000,3417.000,3422.000
1048.834,3427.000,3407.000,3391.000
1052.699,3407.000,3380.000,3410.000
1056.563,3405.000,3418.000,3400.000
1060.427,3399.000,3391.000,3411.000
1064.287,3386.000,3395.000,3394.000
1068.146,3389.000,3401.000,3367.000
1072.003,3364.000,3357.000,3383.000
1075.860,3353.000,3350.000,3373.000
1079.714,3365.000,3358.000,3361.000
1083.567,3308.000,3310.000,3347.000
1087.416,3314.000,3310.000,3307.000
1091.267,3316.000,3294.000,3308.000
1095.114,3311.000,3292.000,3290.000
1098.959,3273.000,3277.000,3275.000
1102.805,3279.000,3267.000,3275.000
1106.647,3271.000,3270.000,3287.000
1110.488,3268.000,3269.000,3280.000
1114.326,3269.000,3263.000,3266.000
1118.165,3271.000,3261.000,3281.000
1122.000,3271.000,3300.000,3264.000
1125.835,3281.000,3268.000,3284.000
1129.666,3270.000,3274.000,3263.000
1133.498,3275.000,3278.000,3274.000
1137.327,3261.000,3282.000,3294.000
1141.154,3287.000,3293.000,3298.000
1144.981,3307.000,3287.000,3295.000
1148.806,3303.000,3301.000,3308.000
1152.628,3303.000,3290.000,3304.000
1156.450,3314.000,3294.000,3309.000
1160.268,3320.000,3311.000,3311.000
1164.085,3306.000,3292.000,3286.000
1167.901,3291.000,3307.000,3309.000
1171.716,3287.000,3298.000,3286.000
1175.529,3297.000,3318.000,3310.000
1179.339,3281.000,3295.000,3294.000
1183.148,3317.000,3296.000,3331.000
1186.957,3289.000,3294.000,3303.000
1190.763,3305.000,3293.000,3303.000
1194.566,3309.000,3308.000,3298.000
1198.371,3263.000,3309.000,3271.000
1202.172,3274.000,3262.000,3276.000
1205.970,3261.000,3255.000,3289.000
1209.768,3295.000,3271.000,3279.000
1213.565,3265.000,3278.000,3261.000
1217.359,3255.000,3277.000,3263.000
1221.152,3288.000,3244.000,3243.000
1224.942,3265.000,3263.000,3260.000
1228.734,3252.000,3230.000,3249.000
1232.521,3252.000,3240.000,3241.000
1236.307,3232.000,3229.000,3233.000
1240.093,3231.000,3235.000,3204.000
1243.876,3227.000,3219.000,3206.000
1247.657,3216.000,3198.000,3229.000
1251.436,3212.000,3218.000,3195.000
1255.216,3187.000,3205.000,3210.000
1258.992,3191.000,3194.000,3190.000
1262.767,3212.000,3198.000,3198.000
1266.539,3208.000,3207.000,3210.000
1270.313,3213.000,3198.000,3200.000
1274.083,3201.000,3198.000,3194.000
1277.850,3196.000,3178.000,3182.000
1281.618,3175.000,3186.000,3173.000
1285.383,3179.000,3188.000,3176.000
1289.147,3186.000,3181.000,3190.000
1292.908,3192.000,3190.000,3193.000
1296.669,3183.000,3165.000,3190.000
1300.427,3180.000,3174.000,3168.000
1304.184,3188.000,3177.000,3178.000
1307.940,3175.000,3187.000,3169.000
1311.695,3171.000,3185.000,3180.000
1315.447,3166.000,3182.000,3174.000
1319.197,3170.000,3170.000,3177.000
1322.948,3168.000,3172.000,3183.000
1326.694,3179.000,3190.000,3177.000
1330.440,3179.000,3170.000,3184.000
1334.185,3174.000,3179.000,3176.000
1337.928,3170.000,3170.000,3172.000
1341.669,3180.000,3165.000,3170.000
1345.408,3174.000,3173.000,3155.000
1349.145,3191.000,3176.000,3168.000
1352.883,3174.000,3182.000,3166.000
1356.616,3182.000,3184.000,3183.000
1360.350,3186.000,3193.000,3186.000
1364.082,3191.000,3185.000,3188.000
1367.812,3191.000,3198.000,3211.000
1371.540,3221.000,3203.000,3199.000
1375.267,3210.000,3210.000,3224.000
1378.993,3199.000,3195.000,3211.000
1382.716,3198.000,3205.000,3205.000
1386.436,3198.000,3190.000,3199.000
1390.158,3179.000,3188.000,3191.000
1393.876,3199.000,3196.000,3185.000
1397.593,3185.000,3183.000,3186.000
1401.308,3192.000,3169.000,3192.000
1405.023,3169.000,3172.000,3180.000
1408.736,3188.000,3173.000,3193.000
1412.446,3186.000,3167.000,3199.000
1416.156,3176.000,3178.000,3185.000
1419.864,3178.000,3194.000,3188.000
1423.569,3188.000,3187.000,3171.000
1427.273,3188.000,3189.000,3181.000
1430.978,3170.000,3177.000,3181.000
1434.679,3169.000,3165.000,3186.000
1438.377,3180.000,3167.000,3169.000
1442.075,3183.000,3187.000,3160.000
1445.773,3177.000,3171.000,3166.000
1449.468,3177.000,3168.000,3170.000
1453.161,3174.000,3178.000,3184.000
1456.853,3184.000,3155.000,3174.000
1460.544,3190.000,3181.000,3175.000
1464.232,3190.000,3160.000,3187.000
1467.919,3190.000,3175.000,3173.000
1471.606,3175.000,3174.000,3174.000
1475.289,3178.000,3173.000,3188.000
1478.971,3189.000,3190.000,3195.000
1482.651,3171.000,3193.000,3179.000
1486.332,3186.000,3167.000,3201.000
1490.010,3179.000,3173.000,3190.000
1493.685,3188.000,3175.000,3196.000
1497.361,3176.000,3176.000,3203.000
1501.033,3180.000,3170.000,3193.000
1504.705,3173.000,3173.000,3183.000
1508.374,3187.000,3186.000,3187.000
1512.044,3208.000,3177.000,3200.000
1515.711,3179.000,3201.000,3190.000
1519.375,3171.000,3191.000,3191.000
1523.038,3185.000,3195.000,3195.000
1526.701,3194.000,3191.000,3187.000
1530.362,3189.000,3204.000,3187.000
1534.021,3184.000,3211.000,3202.000
1537.679,3191.000,3208.000,3187.000
1541.335,3189.000,3181.000,3193.000
1544.989,3211.000,3203.000,3194.000
1548.643,3212.000,3221.000,3212.000
1552.294,3198.000,3212.000,3209.000
1555.944,3219.000,3225.000,3201.000
1559.591,3213.000,3202.000,3210.000
1563.240,3224.000,3209.000,3204.000
1566.883,3206.000,3209.000,3221.000
1570.527,3208.000,3210.000,3211.000
1574.169,3221.000,3206.000,3228.000
1577.810,3215.000,3220.000,3217.000
1581.449,3224.000,3230.000,3212.000
1585.086,3236.000,3205.000,3214.000
1588.723,3226.000,3220.000,3208.000
1592.357,3213.000,3232.000,3227.000
1595.990,3243.000,3249.000,3222.000
1599.621,3221.000,3232.000,3242.000
1603.252,3247.000,3232.000,3242.000
1606.879,3244.000,3252.000,3230.000
1610.505,3236.000,3240.000,3227.000
1614.131,3238.000,3240.000,3224.000
1617.756,3222.000,3249.000,3243.000
1621.377,3236.000,3250.000,3229.000
1624.997,3231.000,3232.000,3239.000
1628.617,3230.000,3239.000,3227.000
1632.234,3225.000,3217.000,3231.000
1635.850,3215.000,3227.000,3223.000
1639.464,3215.000,3216.000,3219.000
1643.078,3231.000,3207.000,3233.000
1646.690,3207.000,3216.000,3202.000
1650.298,3212.000,3219.000,3215.000
1653.907,3212.000,3204.000,3208.000
1657.515,3208.000,3210.000,3206.000
1661.120,3236.000,3204.000,3196.000
1664.723,3209.000,3203.000,3202.000
1668.328,3199.000,3193.000,3198.000
1671.927,3201.000,3188.000,3196.000
1675.527,3197.000,3204.000,3203.000
1679.124,3197.000,3198.000,3191.000
1682.721,3186.000,3185.000,3183.000
1686.316,3208.000,3184.000,3174.000
1689.909,3188.000,3194.000,3185.000
1693.500,3196.000,3184.000,3203.000
1697.092,3199.000,3190.000,3185.000
1700.680,3195.000,3180.000,3177.000
1704.266,3189.000,3177.000,3176.000
1707.853,3190.000,3171.000,3167.000
1711.437,3178.000,3174.000,3189.000
1715.020,3194.000,3168.000,3183.000
1718.602,3177.000,3182.000,3192.000
1722.181,3167.000,3186.000,3192.000
1725.759,3184.000,3187.000,3179.000
1729.335,3187.000,3191.000,3178.000
1732.910,3186.000,3176.000,3180.000
1736.485,3165.000,3177.000,3178.000
1740.057,3166.000,3180.000,3189.000
1743.627,3196.000,3187.000,3163.000
1747.198,3178.000,3183.000,3186.000
1750.765,3182.000,3165.000,3187.000
1754.331,3174.000,3173.000,3190.000
1757.898,3172.000,3173.000,3189.000
1761.460,3185.000,3189.000,3191.000
1765.021,3159.000,3185.000,3183.000
1768.581,3185.000,3162.000,3178.000
1772.141,3171.000,3156.000,3164.000
1775.699,3178.000,3188.000,3179.000
1779.254,3161.000,3162.000,3180.000
1782.807,3154.000,3186.000,3185.000
1786.361,3177.000,3179.000,3184.000
1789.913,3179.000,3170.000,3173.000
1793.463,3180.000,3178.000,3176.000
1797.012,3173.000,3183.000,3171.000
1800.558,3176.000,3181.000,3170.000
1804.103,3190.000,3179.000,3167.000
1807.647,3170.000,3184.000,3176.000
1811.190,3190.000,3188.000,3172.000
1814.732,3183.000,3165.000,3185.000
1818.271,3177.000,3189.000,3153.000
1821.807,3175.000,3156.000,3185.000
1825.346,3158.000,3180.000,3187.000
1828.881,3184.000,3187.000,3184.000
1832.414,3177.000,3193.000,3183.000
1835.947,3176.000,3396.000,3175.000
1839.478,3172.000,3279.000,3169.000
1843.007,3184.000,3176.000,3178.000
1846.534,3182.000,3189.000,3177.000
1850.061,3189.000,3178.000,3198.000
1853.585,3188.000,3189.000,3187.000
1857.108,3185.000,3192.000,3192.000
1860.630,3182.000,3172.000,3175.000
1864.152,3178.000,3177.000,3173.000
1867.670,3166.000,3181.000,3193.000
1871.187,3183.000,3181.000,3184.000
1874.704,3184.000,3189.000,3176.000
1878.219,3191.000,3181.000,3180.000
1881.731,3170.000,3172.000,3179.000
1885.243,3174.000,3195.000,3180.000
1888.754,3186.000,3177.000,3183.000
1892.263,3175.000,3167.000,3183.000
1895.769,3191.000,3177.000,3183.000
1899.275,3176.000,3178.000,3191.000
1902.780,3176.000,3188.000,3179.000
1906.283,3174.000,3167.000,3192.000
1909.784,3190.000,3191.000,3183.000
1913.285,3188.000,3166.000,3194.000
1916.784,3203.000,3179.000,3189.000
1920.281,3184.000,3171.000,3183.000
1923.777,3186.000,3193.000,3183.000
1927.271,3207.000,3179.000,3166.000
1930.764,3181.000,3193.000,3193.000
1934.254,3189.000,3186.000,3194.000
1937.744,3182.000,3191.000,3197.000
1941.233,3168.000,3204.000,3187.000
1944.720,3188.000,3184.000,3192.000
1948.205,3190.000,3199.000,3191.000
1951.691,3187.000,3203.000,3182.000
1955.173,3195.000,3196.000,3196.000
1958.654,3183.000,3194.000,3210.000
1962.134,3203.000,3189.000,3181.000
1965.613,3196.000,3183.000,3192.000
1969.089,3195.000,3183.000,3192.000
1972.564,3182.000,3187.000,3187.000
1976.040,3190.000,3195.000,3196.000
1979.512,3203.000,3193.000,3195.000
1982.982,3186.000,3180.000,3187.000
1986.452,3190.000,3178.000,3186.000
1989.922,3200.000,3198.000,3199.000
1993.388,3181.000,3187.000,3179.000
1996.853,3167.000,3197.000,3193.000
2000.319,3183.000,3196.000,3195.000
2003.781,3186.000,3179.000,3195.000
2007.242,3201.000,3183.000,3193.000
2010.701,3188.000,3188.000,3187.000
2014.160,3186.000,3195.000,3189.000
2017.617,3189.000,3191.000,3198.000
2021.072,3207.000,3180.000,3191.000
2024.525,3191.000,3195.000,3190.000
2027.979,3205.000,3179.000,3192.000
2031.431,3201.000,3203.000,3192.000
2034.880,3200.000,3190.000,3189.000
2038.329,3186.000,3194.000,3182.000
2041.775,3194.000,3175.000,3181.000
2045.221,3204.000,3187.000,3189.000
2048.665,3187.000,3196.000,3186.000
2052.108,3195.000,3204.000,3198.000
2055.550,3197.000,3198.000,3202.000
2058.988,3189.000,3193.000,3206.000
2062.427,3203.000,3187.000,3188.000
2065.865,3193.000,3202.000,3198.000
2069.300,3199.000,3209.000,3205.000
2072.734,3184.000,3191.000,3197.000
2076.168,3181.000,3176.000,3202.000
2079.599,3177.000,3183.000,3199.000
2083.028,3200.000,3171.000,3192.000
2086.457,3184.000,3207.000,3204.000
2089.885,3184.000,3201.000,3199.000
2093.311,3199.000,3198.000,3211.000
2096.735,3188.000,3205.000,3193.000
2100.158,3193.000,3200.000,3206.000
2103.580,3198.000,3209.000,3196.000
2106.999,3199.000,3207.000,3188.000
2110.418,3210.000,3206.000,3231.000
2113.836,3193.000,3190.000,12315.000
2117.252,3205.000,3186.000,3786.000
2120.666,3215.000,3201.000,3205.000
2124.081,3209.000,3194.000,3195.000
2127.492,3201.000,3204.000,3202.000
2130.902,3216.000,3195.000,3203.000
2134.310,3192.000,3202.000,3229.000
2137.720,3193.000,3202.000,3193.000
2141.125,3204.000,3211.000,3202.000
2144.529,3204.000,3196.000,3196.000
2147.933,3194.000,3205.000,3190.000
2151.336,3193.000,3195.000,3196.000
2154.737,3205.000,3189.000,3209.000
2158.135,3204.000,3194.000,3195.000
2161.534,3186.000,3200.000,3192.000
2164.930,3208.000,5235.000,3198.000
2168.325,3213.000,3209.000,3210.000
2171.718,3219.000,3201.000,3217.000
2175.112,3193.000,3206.000,3211.000
2178.503,3209.000,3206.000,3198.000
2181.892,3206.000,3201.000,3195.000
2185.279,3200.000,3196.000,3207.000
2188.667,3211.000,3199.000,3188.000
2192.052,3206.000,3206.000,3207.000
2195.435,3182.000,3200.000,3196.000
2198.820,3187.000,3209.000,3208.000
2202.200,3191.000,3196.000,3201.000
2205.580,3195.000,3198.000,3219.000
2208.958,3193.000,3208.000,3189.000
2212.337,3197.000,3210.000,3195.000
2215.711,3185.000,3210.000,3204.000
2219.085,3192.000,3213.000,3226.000
2222.459,3202.000,3207.000,3203.000
2225.831,3200.000,3219.000,3215.000
2229.200,3190.000,3215.000,3194.000
2232.569,3216.000,3197.000,3183.000
2235.939,3194.000,3203.000,3192.000
2239.304,3218.000,3211.000,3206.000
2242.669,3203.000,3204.000,3208.000
2246.032,3219.000,3199.000,3200.000
2249.395,3204.000,3194.000,3205.000
2252.755,3195.000,3203.000,3210.000
2256.113,3192.000,3206.000,3192.000
2259.472,3196.000,3203.000,3198.000
2262.829,3198.000,3212.000,3211.000
2266.184,3215.000,3204.000,3206.000
2269.537,3218.000,3194.000,3194.000
2272.891,3203.000,3207.000,3206.000
2276.242,3193.000,3210.000,3209.000
2279.591,3197.000,3203.000,3207.000
2282.941,3192.000,3212.000,3207.000
2286.288,3192.000,3200.000,3217.000
2289.633,3200.000,3200.000,3216.000
2292.977,3201.000,3228.000,3188.000
2296.320,3222.000,3202.000,3221.000
2299.662,3190.000,3218.000,3228.000
2303.002,3208.000,3198.000,3206.000
2306.341,3211.000,3223.000,3193.000
2309.680,3198.000,3182.000,3210.000
2313.016,3221.000,3217.000,3210.000
2316.350,3228.000,3214.000,3217.000
2319.684,3204.000,3207.000,3203.000
2323.016,3206.000,3212.000,3217.000
2326.347,3208.000,3209.000,3211.000
2329.676,3216.000,3236.000,3233.000
2333.006,3228.000,3225.000,3222.000
2336.332,3227.000,3218.000,3223.000
2339.656,3218.000,3228.000,3214.000
2342.980,3228.000,3224.000,3222.000
2346.305,3214.000,3228.000,3219.000
2349.626,3223.000,3214.000,3214.000
2352.945,3227.000,3219.000,3221.000
2356.265,3225.000,3228.000,3214.000
2359.582,3197.000,3207.000,3210.000
2362.898,3204.000,3218.000,3204.000
2366.212,3196.000,3213.000,3196.000
2369.527,3211.000,3196.000,3203.000
2372.838,3202.000,3213.000,3209.000
2376.149,3222.000,3199.000,3196.000
2379.458,3205.000,3200.000,3221.000
2382.767,3208.000,3224.000,3205.000
2386.074,3219.000,3217.000,3209.000
2389.379,3211.000,3211.000,3215.000
2392.684,3251.000,3220.000,3227.000
2395.986,3222.000,3198.000,3220.000
2399.287,3197.000,3205.000,3220.000
2402.587,3220.000,3217.000,3203.000
2405.887,3233.000,3223.000,3211.000
2409.184,3213.000,3221.000,3216.000
2412.480,3220.000,3209.000,3207.000
2415.773,3221.000,3213.000,3215.000
2419.069,3235.000,3212.000,3217.000
2422.360,3220.000,3215.000,3223.000
2425.651,3227.000,3216.000,3214.000
2428.941,3240.000,3231.000,3214.000
2432.229,3215.000,3206.000,3219.000
2435.515,3220.000,3220.000,3217.000
2438.800,3218.000,3234.000,3232.000
2442.086,3220.000,3221.000,3219.000
2445.369,3233.000,3239.000,3220.000
2448.650,3231.000,3219.000,3229.000
2451.930,3212.000,3228.000,3224.000
2455.210,3209.000,3232.000,3221.000
2458.487,3218.000,3216.000,3209.000
2461.763,3213.000,3213.000,3221.000
2465.039,3234.000,3217.000,3212.000
2468.313,3216.000,3227.000,3223.000
2471.584,3215.000,3226.000,3225.000
2474.857,3207.000,3203.000,3213.000
2478.125,3208.000,3209.000,3221.000
2481.394,3226.000,3235.000,3223.000
2484.661,3235.000,3205.000,3218.000
2487.928,3207.000,3209.000,3238.000
2491.192,3230.000,3231.000,3226.000
2494.455,3214.000,3233.000,3226.000
2497.716,3241.000,3222.000,3222.000
2500.978,3246.000,3225.000,3237.000
2504.236,3220.000,3233.000,3225.000
2507.495,3215.000,3207.000,3243.000
2510.752,3214.000,3220.000,3218.000
2514.007,3230.000,3230.000,3229.000
2517.261,3225.000,3221.000,3226.000
2520.513,3218.000,3223.000,3232.000
2523.766,3203.000,3235.000,3232.000
2527.015,3231.000,3237.000,3227.000
2530.264,3235.000,3235.000,3236.000
2533.511,3227.000,3213.000,3249.000
2536.759,3226.000,3212.000,3219.000
2540.004,3241.000,3231.000,3221.000
2543.247,3229.000,3241.000,3220.000
2546.490,3216.000,3219.000,3220.000
2549.731,3226.000,3235.000,3225.000
2552.970,3232.000,3239.000,3220.000
2556.209,3226.000,3227.000,3229.000
2559.447,3229.000,3228.000,3235.000
2562.683,3246.000,3233.000,3246.000
2565.917,3223.000,3223.000,3240.000
2569.149,3234.000,3223.000,3248.000
2572.383,3246.000,3241.000,3226.000
2575.613,3227.000,3218.000,3228.000
2578.842,3237.000,3228.000,3230.000
2582.072,3223.000,3240.000,3250.000
2585.299,3250.000,3226.000,3222.000
2588.523,3237.000,3225.000,3251.000
2591.748,3220.000,3233.000,3254.000
2594.972,3255.000,3229.000,3233.000
2598.194,3242.000,3238.000,3232.000
2601.414,3236.000,3246.000,3247.000
2604.633,3249.000,3217.000,3240.000
2607.852,3240.000,3244.000,3248.000
2611.068,3255.000,3243.000,3251.000
2614.283,3246.000,3253.000,3220.000
2617.498,3246.000,3237.000,3234.000
2620.711,3237.000,3249.000,3253.000
2623.922,3232.000,3238.000,3228.000
2627.134,3242.000,3234.000,3248.000
2630.342,3232.000,3232.000,3240.000
2633.549,3250.000,3235.000,3232.000
2636.755,3246.000,3228.000,3252.000
2639.960,3252.000,3232.000,3257.000
2643.165,3267.000,3247.000,3232.000
2646.368,3255.000,3247.000,3237.000
2649.568,3258.000,3247.000,3232.000
2652.769,3246.000,3264.000,3253.000
2655.969,3262.000,3249.000,3266.000
2659.165,3250.000,3254.000,3253.000
2662.363,3260.000,3239.000,3246.000
2665.558,3250.000,3251.000,3259.000
2668.751,3250.000,3248.000,3271.000
2671.943,3261.000,3252.000,3266.000
2675.135,3247.000,3239.000,3288.000
2678.325,3250.000,3260.000,3259.000
2681.514,3266.000,3270.000,3245.000
2684.701,3281.000,3265.000,3244.000
2687.888,3242.000,3274.000,3262.000
2691.072,3269.000,3258.000,3283.000
2694.255,3272.000,3238.000,3259.000
2697.439,3254.000,3257.000,3247.000
2700.620,3286.000,3276.000,3275.000
2703.800,3281.000,3282.000,3275.000
2706.978,3263.000,3275.000,3276.000
2710.156,3284.000,3252.000,3274.000
2713.332,3270.000,3278.000,3276.000
2716.507,3296.000,3287.000,3256.000
2719.680,3276.000,3266.000,3284.000
2722.854,3276.000,3277.000,3268.000
2726.025,3274.000,3279.000,3266.000
2729.194,3289.000,3285.000,3295.000
2732.364,3254.000,3279.000,3274.000
2735.530,3289.000,3280.000,3293.000
2738.697,3268.000,3283.000,3280.000
2741.861,3287.000,3290.000,3314.000
2745.026,3274.000,3290.000,3283.000
2748.188,3294.000,3280.000,3277.000
2751.349,3291.000,3298.000,3278.000
2754.508,3303.000,3307.000,3294.000
2757.668,3314.000,3297.000,3308.000
2760.825,3318.000,3306.000,3298.000
2763.981,3294.000,3303.000,3305.000
2767.137,3318.000,3313.000,3315.000
2770.291,3300.000,3299.000,3317.000
2773.442,3338.000,3306.000,3321.000
2776.593,3327.000,3310.000,3324.000
2779.745,3333.000,3314.000,3324.000
2782.893,3313.000,3309.000,3356.000