File: Raman/Silica/2025_08_22_Nat_Qtz_50X_532nm_74mW_Andor750_600gv_4000wn_3accum_5s_UnPol.csv
3314.254,769.000,771.000,769.000
3315.558,779.000,779.000,764.000
3316.865,777.000,777.000,765.000
3318.169,778.000,773.000,767.000
3319.475,768.000,777.000,773.000
3320.779,778.000,772.000,766.000
3322.083,783.000,764.000,769.000
3323.388,784.000,779.000,773.000
3324.692,761.000,781.000,782.000
3325.996,763.000,784.000,788.000
3327.300,785.000,780.000,779.000
3328.602,777.000,775.000,780.000
3329.906,773.000,779.000,762.000
3331.209,779.000,775.000,783.000
3332.510,793.000,788.000,774.000
3333.814,789.000,778.000,790.000
3335.116,788.000,786.000,789.000
3336.418,784.000,792.000,781.000
3337.720,787.000,776.000,791.000
3339.020,771.000,784.000,784.000
3340.323,781.000,781.000,786.000
3341.623,785.000,778.000,773.000
3342.926,794.000,793.000,782.000
3344.225,778.000,769.000,778.000
3345.526,790.000,776.000,786.000
3346.827,792.000,788.000,788.000
3348.126,787.000,787.000,790.000
3349.427,789.000,781.000,795.000
3350.726,785.000,803.000,767.000
3352.025,777.000,781.000,777.000
3353.325,775.000,786.000,792.000
3354.623,773.000,787.000,780.000
3355.921,772.000,799.000,781.000
3357.221,792.000,783.000,771.000
3358.519,783.000,789.000,791.000
3359.818,791.000,804.000,783.000
3361.115,786.000,787.000,794.000
3362.412,769.000,765.000,791.000
3363.711,784.000,771.000,798.000
3365.007,789.000,784.000,771.000
3366.305,779.000,800.000,786.000
3367.601,800.000,779.000,789.000
3368.897,785.000,793.000,793.000
3370.194,800.000,797.000,786.000
3371.490,780.000,779.000,789.000
3372.787,775.000,789.000,789.000
3374.082,786.000,799.000,791.000
3375.377,795.000,792.000,801.000
3376.673,775.000,780.000,789.000
3377.967,777.000,784.000,779.000
3379.262,795.000,777.000,771.000
3380.557,786.000,776.000,771.000
3381.851,791.000,776.000,795.000
3383.146,791.000,779.000,799.000
3384.440,785.000,790.000,800.000
3385.733,808.000,798.000,795.000
3387.028,786.000,792.000,788.000
3388.320,784.000,793.000,775.000
3389.614,791.000,801.000,777.000
3390.907,813.000,779.000,790.000
3392.198,780.000,804.000,798.000
3393.491,796.000,790.000,787.000
3394.783,791.000,790.000,783.000
3396.077,789.000,789.000,780.000
3397.368,784.000,795.000,786.000
3398.659,796.000,778.000,796.000
3399.951,796.000,797.000,780.000
3401.241,808.000,795.000,800.000
3402.532,787.000,793.000,793.000
3403.823,769.000,783.000,791.000
3405.113,792.000,785.000,809.000
3406.404,787.000,786.000,795.000
3407.694,795.000,781.000,794.000
3408.982,798.000,784.000,788.000
3410.273,785.000,806.000,783.000
3411.562,788.000,796.000,796.000
3412.852,791.000,804.000,793.000
3414.141,794.000,793.000,799.000
3415.429,810.000,790.000,794.000
3416.718,795.000,798.000,775.000
3418.006,780.000,788.000,793.000
3419.296,792.000,787.000,772.000
3420.582,794.000,772.000,793.000
3421.870,804.000,793.000,796.000
3423.158,803.000,809.000,778.000
3424.445,808.000,781.000,787.000
3425.731,802.000,770.000,803.000
3427.019,795.000,793.000,785.000
3428.305,785.000,787.000,804.000
3429.593,786.000,797.000,789.000
3430.878,786.000,787.000,802.000
3432.163,774.000,789.000,774.000
3433.449,806.000,786.000,796.000
3434.735,788.000,793.000,780.000
3436.021,787.000,804.000,793.000
3437.305,802.000,796.000,793.000
3438.590,802.000,792.000,787.000
3439.876,800.000,788.000,782.000
3441.160,806.000,795.000,805.000
3442.445,779.000,799.000,791.000
3443.728,798.000,803.000,793.000
3445.011,776.000,790.000,792.000
3446.296,793.000,797.000,801.000
3447.579,804.000,803.000,809.000
3448.860,798.000,795.000,777.000
3450.145,800.000,799.000,798.000
3451.427,798.000,801.000,787.000
3452.710,794.000,793.000,779.000
3453.992,799.000,785.000,782.000
3455.274,802.000,787.000,790.000
3456.557,802.000,805.000,802.000
3457.837,803.000,792.000,798.000
3459.120,802.000,794.000,798.000
3460.401,798.000,788.000,801.000
3461.681,803.000,783.000,796.000
3462.963,805.000,805.000,777.000
3464.242,800.000,795.000,780.000
3465.524,793.000,820.000,795.000
3466.804,782.000,810.000,778.000
3468.083,794.000,806.000,795.000
3469.364,810.000,787.000,791.000
3470.643,816.000,792.000,792.000
3471.921,797.000,805.000,794.000
3473.201,805.000,801.000,808.000
3474.480,795.000,803.000,802.000
3475.759,783.000,805.000,800.000
3477.036,804.000,797.000,792.000
3478.315,810.000,803.000,789.000
3479.593,796.000,789.000,807.000
3480.871,805.000,800.000,808.000
3482.149,808.000,785.000,795.000
3483.427,797.000,800.000,810.000
3484.702,789.000,786.000,798.000
3485.981,800.000,797.000,800.000
3487.257,798.000,796.000,801.000
3488.534,800.000,796.000,796.000
3489.810,809.000,802.000,797.000
3491.085,796.000,793.000,789.000
3492.363,805.000,782.000,799.000
3493.637,800.000,803.000,799.000
3494.912,803.000,799.000,794.000
3496.188,791.000,780.000,802.000
3497.463,800.000,819.000,793.000
3498.739,786.000,794.000,801.000
3500.012,801.000,806.000,805.000
3501.287,800.000,799.000,793.000
3502.562,802.000,806.000,808.000
3503.835,801.000,807.000,794.000
3505.110,800.000,813.000,798.000
3506.382,807.000,792.000,797.000
3507.656,798.000,799.000,804.000
3508.930,817.000,799.000,795.000
3510.202,801.000,794.000,802.000
3511.476,788.000,794.000,812.000
3512.747,799.000,803.000,791.000
3514.019,805.000,810.000,800.000
3515.292,816.000,806.000,786.000
3516.563,799.000,804.000,813.000
3517.834,816.000,799.000,814.000
3519.107,818.000,796.000,804.000
3520.378,786.000,795.000,812.000
3521.649,811.000,805.000,795.000
3522.919,812.000,805.000,811.000
3524.189,812.000,804.000,823.000
3525.461,817.000,811.000,802.000
3526.731,799.000,807.000,806.000
3528.002,815.000,813.000,798.000
3529.271,817.000,807.000,812.000
3530.540,793.000,816.000,812.000
3531.810,811.000,795.000,807.000
3533.079,803.000,820.000,806.000
3534.348,808.000,821.000,802.000
3535.617,807.000,815.000,823.000
3536.884,811.000,808.000,811.000
3538.153,825.000,812.000,814.000
3539.421,799.000,816.000,809.000
3540.688,815.000,794.000,813.000
3541.957,802.000,789.000,802.000
3543.223,798.000,815.000,818.000
3544.492,836.000,815.000,808.000
3545.758,817.000,824.000,807.000
3547.024,829.000,833.000,815.000
3548.292,818.000,803.000,806.000
3549.557,836.000,819.000,814.000
3550.825,824.000,821.000,817.000
3552.091,820.000,810.000,824.000
3553.355,816.000,819.000,822.000
3554.621,796.000,807.000,813.000
3555.887,840.000,816.000,815.000
3557.152,839.000,820.000,837.000
3558.417,803.000,830.000,829.000
3559.681,836.000,843.000,843.000
3560.946,831.000,834.000,816.000
3562.211,841.000,806.000,808.000
3563.474,836.000,819.000,834.000
3564.738,820.000,815.000,831.000
3566.001,833.000,831.000,818.000
3567.265,812.000,825.000,842.000
3568.528,850.000,846.000,841.000
3569.790,835.000,852.000,825.000
3571.055,838.000,833.000,841.000
3572.317,835.000,839.000,836.000
3573.580,845.000,845.000,848.000
3574.842,864.000,815.000,843.000
3576.102,846.000,845.000,840.000
3577.366,855.000,846.000,829.000
3578.626,859.000,839.000,825.000
3579.888,838.000,845.000,865.000
3581.149,832.000,849.000,853.000
3582.410,853.000,858.000,842.000
3583.672,864.000,858.000,868.000
3584.931,853.000,869.000,850.000
3586.191,868.000,841.000,862.000
3587.452,854.000,856.000,858.000
3588.711,855.000,844.000,860.000
3589.972,891.000,880.000,879.000
3591.231,883.000,892.000,875.000
3592.489,883.000,870.000,869.000
3593.750,875.000,862.000,875.000
3595.007,897.000,890.000,856.000
3596.267,895.000,909.000,874.000
3597.525,890.000,900.000,886.000
3598.782,891.000,885.000,900.000
3600.042,892.000,897.000,913.000
3601.298,899.000,908.000,899.000
3602.557,897.000,908.000,885.000
3603.814,898.000,914.000,912.000
3605.071,893.000,906.000,934.000
3606.329,912.000,914.000,913.000
3607.585,912.000,908.000,897.000
3608.841,929.000,915.000,915.000
3610.098,913.000,905.000,934.000
3611.353,927.000,934.000,930.000
3612.610,926.000,927.000,908.000
3613.865,938.000,924.000,925.000
3615.120,943.000,963.000,930.000
3616.376,942.000,929.000,936.000
3617.631,951.000,934.000,936.000
3618.887,926.000,951.000,944.000
3620.141,936.000,951.000,944.000
3621.395,959.000,949.000,926.000
3622.650,946.000,945.000,947.000
3623.904,941.000,958.000,953.000
3625.159,970.000,940.000,939.000
3626.411,954.000,939.000,941.000
3627.664,939.000,982.000,949.000
3628.919,946.000,969.000,956.000
3630.170,986.000,959.000,940.000
3631.423,947.000,970.000,970.000
3632.677,979.000,969.000,964.000
3633.928,955.000,963.000,963.000
3635.182,947.000,981.000,967.000
3636.434,967.000,966.000,960.000
3637.684,974.000,971.000,974.000
3638.936,967.000,978.000,971.000
3640.188,960.000,981.000,972.000
3641.439,966.000,976.000,963.000
3642.690,970.000,959.000,966.000
3643.940,976.000,965.000,974.000
3645.191,986.000,980.000,977.000
3646.442,978.000,974.000,969.000
3647.692,961.000,978.000,951.000
3648.941,974.000,955.000,949.000
3650.190,969.000,968.000,989.000
3651.441,955.000,984.000,980.000
3652.690,974.000,969.000,955.000
3653.939,968.000,955.000,969.000
3655.188,967.000,963.000,983.000
3656.436,963.000,965.000,960.000
3657.686,952.000,963.000,976.000
3658.933,983.000,949.000,979.000
3660.181,952.000,940.000,963.000
3661.430,951.000,965.000,951.000
3662.677,949.000,943.000,948.000
3663.925,927.000,968.000,965.000
3665.172,941.000,953.000,964.000
3666.419,960.000,929.000,954.000
3667.667,966.000,927.000,966.000
3668.912,943.000,956.000,942.000
3670.159,933.000,946.000,956.000
3671.405,947.000,952.000,953.000
3672.650,936.000,950.000,931.000
3673.897,939.000,946.000,933.000
3675.143,942.000,954.000,927.000
3676.387,929.000,941.000,912.000
3677.633,937.000,929.000,960.000
3678.877,944.000,948.000,948.000
3680.123,935.000,943.000,935.000
3681.367,926.000,940.000,930.000
3682.611,940.000,956.000,953.000
3683.856,941.000,963.000,941.000
3685.100,958.000,961.000,923.000
3686.344,917.000,928.000,935.000
3687.588,912.000,933.000,912.000
3688.830,939.000,928.000,922.000
3690.074,935.000,923.000,925.000
3691.316,937.000,936.000,930.000
3692.560,940.000,910.000,918.000
3693.802,928.000,931.000,933.000
3695.044,933.000,925.000,929.000
3696.287,939.000,926.000,919.000
3697.528,921.000,914.000,914.000
3698.769,938.000,913.000,941.000
3700.011,929.000,910.000,939.000
3701.252,927.000,931.000,923.000
3702.495,922.000,913.000,930.000
3703.734,935.000,924.000,922.000
3704.975,899.000,924.000,911.000
3706.216,941.000,918.000,946.000
3707.456,922.000,947.000,934.000
3708.697,939.000,944.000,913.000
3709.936,952.000,932.000,930.000
3711.176,925.000,927.000,941.000
3712.415,952.000,942.000,933.000
3713.654,962.000,948.000,920.000
3714.894,930.000,956.000,924.000
3716.133,928.000,947.000,942.000
3717.371,935.000,943.000,937.000
3718.610,944.000,924.000,952.000
3719.847,939.000,959.000,926.000
3721.086,922.000,959.000,924.000
3722.324,953.000,948.000,942.000
3723.561,927.000,957.000,956.000
3724.800,945.000,963.000,934.000
3726.036,949.000,932.000,958.000
3727.272,941.000,976.000,925.000
3728.510,939.000,963.000,945.000
3729.746,938.000,956.000,932.000
3730.984,943.000,951.000,959.000
3732.219,966.000,964.000,955.000
3733.455,963.000,965.000,957.000
3734.692,941.000,962.000,955.000
3735.927,929.000,947.000,948.000
3737.163,977.000,953.000,955.000
3738.397,948.000,942.000,981.000
3739.632,975.000,954.000,974.000
3740.867,975.000,946.000,956.000
3742.101,963.000,969.000,996.000
3743.335,973.000,961.000,962.000
3744.571,972.000,962.000,968.000
3745.803,979.000,976.000,974.000
3747.039,983.000,988.000,960.000
3748.271,971.000,960.000,976.000
3749.504,975.000,994.000,988.000
3750.738,980.000,951.000,1001.000
3751.971,1018.000,966.000,975.000
3753.204,984.000,981.000,993.000
3754.437,991.000,973.000,987.000
3755.668,952.000,968.000,989.000
3756.901,980.000,987.000,1001.000
3758.133,964.000,986.000,983.000
3759.366,985.000,995.000,994.000
3760.596,989.000,993.000,1003.000
3761.827,999.000,1015.000,997.000
3763.060,1019.000,1002.000,986.000
3764.290,1023.000,995.000,982.000
3765.522,1002.000,1006.000,1012.000
3766.751,997.000,994.000,1002.000
3767.982,984.000,1010.000,997.000
3769.212,1023.000,997.000,986.000
3770.442,1014.000,992.000,1000.000
3771.671,1018.000,997.000,1016.000
3772.901,986.000,1017.000,995.000
3774.130,1019.000,994.000,1016.000
3775.360,1040.000,1027.000,1038.000
3776.588,1027.000,1020.000,1028.000
3777.816,991.000,1032.000,1014.000
3779.046,1040.000,1006.000,1019.000
3780.274,1016.000,1015.000,1016.000
3781.503,1008.000,1028.000,1032.000
3782.730,1024.000,1027.000,1039.000
3783.957,1011.000,1024.000,1027.000
3785.186,1018.000,1028.000,1038.000
3786.413,991.000,1045.000,1035.000
3787.640,1055.000,1035.000,1015.000
3788.867,1041.000,1029.000,1032.000
3790.094,1051.000,1037.000,1049.000
3791.321,1055.000,1058.000,1057.000
3792.546,1034.000,1042.000,1066.000
3793.772,1055.000,1036.000,1057.000
3794.998,1040.000,1053.000,1055.000
3796.224,1043.000,1060.000,1052.000
3797.450,1049.000,1045.000,1060.000
3798.675,1083.000,1034.000,1056.000
3799.899,1082.000,1048.000,1056.000
3801.125,1071.000,1079.000,1082.000
3802.350,1062.000,1072.000,1075.000
3803.574,1088.000,1071.000,1074.000
3804.799,1085.000,1064.000,1073.000
3806.023,1080.000,1082.000,1048.000
3807.247,1075.000,1088.000,1077.000
3808.471,1083.000,1092.000,1081.000
3809.694,1075.000,1116.000,1081.000
3810.918,1063.000,1089.000,1072.000
3812.140,1070.000,1099.000,1101.000
3813.364,1095.000,1090.000,1084.000
3814.586,1127.000,1095.000,1097.000
3815.809,1120.000,1093.000,1115.000
3817.031,1063.000,1118.000,1084.000
3818.253,1111.000,1090.000,1130.000
3819.476,1109.000,1092.000,1108.000
3820.697,1122.000,1101.000,1114.000
3821.918,1130.000,1113.000,1111.000
3823.140,1096.000,1122.000,1114.000
3824.360,1137.000,1105.000,1129.000
3825.583,1153.000,1141.000,1140.000
3826.803,1115.000,1143.000,1159.000
3828.023,1153.000,1143.000,1117.000
3829.244,1116.000,1155.000,1162.000
3830.463,1132.000,1163.000,1118.000
3831.683,1149.000,1143.000,1128.000
3832.903,1158.000,1147.000,1146.000
3834.123,1163.000,1182.000,1151.000
3835.343,1138.000,1198.000,1152.000
3836.561,1167.000,1154.000,1161.000
3837.780,1175.000,1163.000,1157.000
3839.000,1185.000,1195.000,1192.000
3840.217,1169.000,1175.000,1213.000
3841.436,1198.000,1165.000,1183.000
3842.654,1218.000,1182.000,1176.000
3843.872,1188.000,1187.000,1164.000
3845.091,1203.000,1170.000,1223.000
3846.307,1189.000,1201.000,1194.000
3847.526,1191.000,1205.000,1201.000
3848.742,1200.000,1229.000,1205.000
3849.959,1207.000,1199.000,1232.000
3851.176,1202.000,1176.000,1200.000
3852.392,1205.000,1216.000,1218.000
3853.610,1207.000,1218.000,1209.000
3854.825,1209.000,1202.000,1210.000
3856.041,1217.000,1220.000,1183.000
3857.257,1198.000,1220.000,1228.000
3858.472,1246.000,1198.000,1212.000
3859.687,1212.000,1230.000,1223.000
3860.903,1220.000,1219.000,1194.000
3862.117,1254.000,1208.000,1217.000
3863.333,1213.000,1236.000,1232.000
3864.547,1208.000,1216.000,1230.000
3865.761,1211.000,1212.000,1205.000
3866.977,1237.000,1204.000,1222.000
3868.190,1204.000,1204.000,1236.000
3869.404,1208.000,1222.000,1246.000
3870.617,1196.000,1219.000,1219.000
3871.830,1235.000,1239.000,1230.000
3873.044,1257.000,1240.000,1206.000
3874.257,1216.000,1214.000,1225.000
3875.469,1250.000,1220.000,1234.000
3876.682,1227.000,1245.000,1238.000
3877.894,1226.000,1231.000,1205.000
3879.107,1235.000,1239.000,1252.000
3880.319,1230.000,1250.000,1233.000
3881.530,1226.000,1210.000,1236.000
3882.743,1242.000,1248.000,1220.000
3883.953,1233.000,1260.000,1240.000
3885.165,1207.000,1223.000,1217.000
3886.376,1218.000,1223.000,1224.000
3887.587,1242.000,1279.000,1205.000
3888.797,1217.000,1188.000,1232.000
3890.008,1232.000,1219.000,1215.000
3891.219,1211.000,1230.000,1249.000
3892.428,1233.000,1198.000,1238.000
3893.638,1226.000,1194.000,1212.000
3894.849,1221.000,1215.000,1224.000
3896.057,1209.000,1202.000,1239.000
3897.268,1211.000,1238.000,1218.000
3898.476,1239.000,1216.000,1226.000
3899.685,1195.000,1182.000,1221.000
3900.894,1198.000,1209.000,1209.000
3902.101,1201.000,1209.000,1208.000
3903.310,1214.000,1188.000,1214.000
3904.518,1221.000,1217.000,1206.000
3905.725,1180.000,1196.000,1217.000
3906.934,1189.000,1221.000,1214.000
3908.141,1209.000,1217.000,1211.000
3909.348,1225.000,1172.000,1182.000
3910.555,1210.000,1184.000,1207.000
3911.763,1202.000,1199.000,1201.000
3912.970,1198.000,1203.000,1216.000
3914.176,1227.000,1172.000,1176.000
3915.382,1186.000,1167.000,1202.000
3916.589,1193.000,1202.000,1182.000
3917.794,1170.000,1200.000,1170.000
3919.000,1181.000,1172.000,1219.000
3920.206,1195.000,1225.000,1198.000
3921.411,1182.000,1160.000,1165.000
3922.616,1159.000,1187.000,1164.000
3923.821,1168.000,1179.000,1175.000
3925.026,1163.000,1141.000,1174.000
3926.231,1192.000,1180.000,1150.000
3927.435,1141.000,1171.000,1159.000
3928.639,1175.000,1163.000,1173.000
3929.843,1152.000,1166.000,1170.000
3931.047,1144.000,1165.000,1165.000
3932.251,1148.000,1162.000,1160.000
3933.453,1154.000,1138.000,1159.000
3934.658,1156.000,1158.000,1178.000
3935.861,1155.000,1150.000,1155.000
3937.062,1158.000,1154.000,1159.000
3938.266,1169.000,1184.000,1173.000
3939.468,1174.000,1154.000,1157.000
3940.671,1163.000,1159.000,1181.000
3941.872,1128.000,1177.000,1161.000
3943.074,1146.000,1139.000,1165.000
3944.276,1158.000,1158.000,1149.000
3945.478,1149.000,1133.000,1166.000
3946.678,1156.000,1134.000,1172.000
3947.879,1143.000,1135.000,1173.000
3949.081,1163.000,1165.000,1121.000
3950.282,1148.000,1143.000,1122.000
3951.481,1143.000,1163.000,1151.000
3952.682,1169.000,1159.000,1178.000
3953.883,1140.000,1153.000,1173.000
3955.082,1172.000,1165.000,1159.000
3956.282,1147.000,1152.000,1162.000
3957.481,1162.000,1146.000,1187.000
3958.680,1154.000,1174.000,1157.000
3959.881,1142.000,1145.000,1189.000
3961.079,1181.000,1164.000,1179.000
3962.278,1147.000,1185.000,1138.000
3963.477,1163.000,1170.000,1159.000
3964.673,1145.000,1168.000,1165.000
3965.873,1186.000,1157.000,1165.000
3967.070,1162.000,1189.000,1170.000
3968.267,1163.000,1153.000,1180.000
3969.466,1157.000,1177.000,1160.000
3970.663,1176.000,1165.000,1193.000
3971.861,1163.000,1167.000,1184.000
3973.058,1174.000,1184.000,1175.000
3974.253,1185.000,1169.000,1188.000
3975.451,1186.000,1196.000,1157.000
3976.647,1178.000,1161.000,1182.000
3977.845,1184.000,1172.000,1173.000
3979.039,1191.000,1189.000,1190.000
3980.235,1175.000,1216.000,1187.000
3981.431,1194.000,1197.000,1201.000
3982.626,1211.000,1167.000,1193.000
3983.823,1177.000,1168.000,1210.000
3985.017,1188.000,1198.000,1185.000
3986.211,1181.000,1199.000,1203.000
3987.407,1202.000,1175.000,1206.000
3988.600,1219.000,1202.000,1195.000
3989.795,1176.000,1185.000,1197.000
3990.989,1179.000,1190.000,1184.000
3992.184,1222.000,1191.000,1200.000
3993.378,1190.000,1199.000,1195.000
3994.570,1171.000,1208.000,1205.000
3995.763,1189.000,1210.000,1196.000
3996.958,1213.000,1195.000,1207.000
3998.150,1187.000,1159.000,1206.000
3999.343,1175.000,1193.000,1192.000
4000.535,1190.000,1187.000,1203.000
4001.727,1202.000,1163.000,1228.000
4002.921,1187.000,1187.000,1185.000
4004.112,1169.000,1155.000,1172.000
4005.305,1160.000,1173.000,1162.000
4006.496,1194.000,1197.000,1167.000
4007.687,1172.000,1175.000,1195.000
4008.879,1206.000,1163.000,1190.000
4010.068,1200.000,1178.000,1184.000
4011.259,1206.000,1182.000,1201.000
4012.450,1166.000,1213.000,1180.000
4013.640,1200.000,1174.000,1187.000
4014.832,1178.000,1183.000,1195.000
4016.021,1164.000,1161.000,1175.000
4017.211,1184.000,1159.000,1183.000
4018.401,1210.000,1178.000,1152.000
4019.590,1169.000,1161.000,1170.000
4020.780,1157.000,1193.000,1175.000
4021.968,1164.000,1178.000,1147.000
4023.157,1160.000,1172.000,1160.000
4024.347,1151.000,1143.000,1158.000
4025.535,1162.000,1180.000,1173.000
4026.724,1147.000,1133.000,1167.000
4027.911,1165.000,1149.000,1155.000
4029.099,1154.000,1135.000,1139.000
4030.287,1142.000,1129.000,1141.000
4031.475,1158.000,1164.000,1140.000
4032.661,1136.000,1135.000,1143.000
4033.850,1141.000,1144.000,1143.000
4035.036,1136.000,1132.000,1146.000
4036.224,1122.000,1153.000,1099.000
4037.410,1139.000,1141.000,1100.000
4038.596,1110.000,1122.000,1126.000
4039.783,1151.000,1146.000,1139.000
4040.969,1147.000,1152.000,1122.000
4042.155,1118.000,1116.000,1141.000
4043.340,1121.000,1095.000,1151.000
4044.525,1123.000,1133.000,1143.000
4045.711,1106.000,1126.000,1127.000
4046.896,1117.000,1072.000,1096.000
4048.082,1139.000,1111.000,1117.000
4049.266,1112.000,1115.000,1120.000
4050.449,1129.000,1111.000,1118.000
4051.636,1135.000,1134.000,1099.000
4052.819,1110.000,1091.000,1106.000
4054.002,1112.000,1131.000,1136.000
4055.186,1108.000,1109.000,1128.000
4056.370,1116.000,1131.000,1110.000
4057.554,1119.000,1120.000,1116.000
4058.737,1115.000,1112.000,1084.000
4059.920,1095.000,1087.000,1081.000
4061.103,1118.000,1134.000,1095.000
4062.285,1121.000,1114.000,1086.000
4063.468,1086.000,1101.000,1095.000
4064.650,1097.000,1107.000,1109.000
4065.831,1101.000,1111.000,1087.000
4067.014,1101.000,1095.000,1097.000
4068.196,1109.000,1108.000,1125.000
4069.377,1096.000,1114.000,1111.000
4070.559,1098.000,1119.000,1125.000
4071.739,1095.000,1100.000,1119.000
4072.921,1130.000,1100.000,1091.000
4074.102,1100.000,1121.000,1101.000
4075.282,1109.000,1110.000,1106.000
4076.462,1118.000,1107.000,1109.000
4077.642,1114.000,1094.000,1108.000
4078.823,1116.000,1138.000,1142.000
4080.003,1101.000,1100.000,1088.000
4081.181,1116.000,1142.000,1112.000
4082.361,1119.000,1109.000,1116.000
4083.541,1098.000,1123.000,1121.000
4084.720,1100.000,1116.000,1105.000
4085.898,1087.000,1129.000,1106.000
4087.076,1139.000,1102.000,1085.000
4088.255,1103.000,1130.000,1122.000
4089.433,1114.000,1118.000,1102.000
4090.613,1091.000,1125.000,1111.000
4091.790,1112.000,1099.000,1068.000
4092.967,1111.000,1102.000,1114.000
4094.146,1120.000,1109.000,1104.000
4095.322,1122.000,1107.000,1104.000
4096.499,1094.000,1104.000,1104.000
4097.677,1116.000,1089.000,1106.000
4098.853,1120.000,1108.000,1101.000
4100.031,1121.000,1098.000,1094.000
4101.207,1098.000,1107.000,1108.000
4102.382,1108.000,1129.000,1113.000
4103.559,1088.000,1115.000,1090.000
4104.734,1090.000,1087.000,1130.000
4105.911,1103.000,1098.000,1107.000
4107.086,1075.000,1095.000,1102.000
4108.260,1086.000,1094.000,1106.000
4109.436,1086.000,1095.000,1108.000
4110.611,1086.000,1088.000,1088.000
4111.786,1078.000,1089.000,1101.000
4112.960,1094.000,1103.000,1119.000
4114.133,1110.000,1129.000,1080.000
4115.309,1115.000,1102.000,1089.000
4116.483,1130.000,1105.000,1099.000
4117.657,1086.000,1083.000,1091.000
4118.829,1105.000,1096.000,1110.000
4120.003,1069.000,1092.000,1098.000
4121.176,1108.000,1093.000,1117.000
4122.349,1108.000,1101.000,1101.000
4123.521,1066.000,1102.000,1102.000
4124.694,1100.000,1106.000,1086.000
4125.867,1134.000,1094.000,1123.000
4127.040,1119.000,1093.000,1112.000
4128.211,1095.000,1111.000,1102.000
4129.383,1101.000,1107.000,1098.000
4130.556,1090.000,1107.000,1091.000
4131.726,1111.000,1127.000,1107.000
4132.898,1095.000,1111.000,1101.000
4134.069,1087.000,1104.000,1112.000
4135.239,1112.000,1082.000,1112.000
4136.412,1112.000,1106.000,1106.000
4137.582,1112.000,1107.000,1099.000
4138.752,1098.000,1109.000,1127.000
4139.923,1111.000,1128.000,1099.000
4141.092,1101.000,1099.000,1111.000
4142.263,1118.000,1079.000,1100.000
4143.432,1102.000,1106.000,1123.000
4144.600,1085.000,1085.000,1083.000
4145.770,1083.000,1082.000,1111.000
4146.939,1113.000,1111.000,1079.000
4148.109,1100.000,1076.000,1068.000
4149.277,1100.000,1088.000,1069.000
4150.446,1099.000,1086.000,1099.000
4151.614,1092.000,1078.000,1090.000
4152.782,1068.000,1086.000,1078.000
4153.951,1074.000,1056.000,1071.000
4155.117,1081.000,1085.000,1075.000
4156.285,1081.000,1100.000,1070.000
4157.453,1078.000,1075.000,1121.000
4158.620,1087.000,1075.000,1082.000
4159.788,1091.000,1059.000,1081.000
4160.954,1046.000,1078.000,1061.000
4162.120,1075.000,1066.000,1085.000
4163.287,1057.000,1060.000,1056.000
4164.454,1075.000,1066.000,1076.000
4165.619,1071.000,1068.000,1078.000
4166.786,1085.000,1074.000,1061.000
4167.951,1067.000,1075.000,1059.000
4169.117,1080.000,1080.000,1060.000
4170.282,1071.000,1073.000,1068.000
4171.447,1065.000,1079.000,1057.000
4172.612,1065.000,1075.000,1058.000
4173.776,1074.000,1078.000,1055.000
4174.942,1033.000,1055.000,1053.000
4176.106,1073.000,1066.000,1052.000
4177.270,1059.000,1057.000,1063.000
4178.435,1067.000,1061.000,1030.000
4179.598,1032.000,1080.000,1063.000
4180.761,1061.000,1079.000,1072.000
4181.925,1044.000,1051.000,1042.000
4183.088,1057.000,1029.000,1043.000
4184.253,1062.000,1037.000,1056.000
4185.414,1023.000,1080.000,1055.000
4186.577,1041.000,1023.000,1065.000
4187.740,1009.000,1043.000,1055.000
4188.902,1036.000,1048.000,1036.000
4190.065,1031.000,1049.000,1029.000
4191.227,1034.000,1050.000,1045.000
4192.388,1027.000,1032.000,1050.000
4193.551,1022.000,1024.000,1039.000
4194.711,1037.000,1047.000,1017.000
4195.874,1047.000,1040.000,1031.000
4197.034,1049.000,1029.000,1061.000
4198.194,1028.000,1047.000,1014.000
4199.356,1055.000,1069.000,1037.000
4200.516,1023.000,1034.000,1032.000
4201.678,1026.000,1028.000,1004.000
4202.837,1027.000,1062.000,1024.000
4203.997,1023.000,1023.000,1019.000
4205.157,1017.000,1024.000,1023.000
4206.317,1008.000,1029.000,1020.000
4207.475,1019.000,1031.000,1033.000
4208.636,1027.000,1033.000,1022.000
4209.794,1013.000,1020.000,1043.000
4210.954,1040.000,1009.000,1033.000
4212.112,1030.000,1020.000,1022.000
4213.270,1011.000,1022.000,1029.000
4214.429,1010.000,1014.000,1010.000
4215.587,1041.000,1029.000,1020.000
4216.745,1006.000,1039.000,1039.000
4217.902,1033.000,1023.000,1006.000
4219.060,986.000,1037.000,1000.000
4220.218,1036.000,1005.000,1031.000
4221.375,1030.000,999.000,1020.000
4222.531,1040.000,1012.000,1028.000
4223.689,1002.000,1012.000,1006.000
4224.845,1010.000,1014.000,994.000
4226.003,1033.000,1027.000,1005.000
4227.159,1024.000,1039.000,1022.000
4228.313,1019.000,1009.000,1024.000
4229.471,1033.000,1027.000,1024.000
4230.625,990.000,1015.000,1021.000
4231.783,1005.000,1027.000,1028.000
4232.937,1024.000,1000.000,1024.000
4234.092,1017.000,1024.000,1021.000
4235.248,1024.000,1024.000,1027.000
4236.402,1020.000,1014.000,1030.000
4237.558,1021.000,998.000,1035.000
4238.712,1002.000,1027.000,1040.000
4239.865,1005.000,1009.000,1021.000
4241.020,1021.000,1015.000,1028.000
4242.174,1028.000,1020.000,1035.000
4243.329,1031.000,1035.000,1018.000
4244.481,1012.000,996.000,1028.000
4245.634,1047.000,1040.000,1004.000
4246.789,1028.000,1028.000,1024.000
4247.941,1004.000,1032.000,1015.000
4249.094,1012.000,1015.000,1029.000
4250.246,1034.000,1015.000,1016.000
4251.399,998.000,1030.000,1037.000
4252.551,1014.000,1033.000,1026.000
4253.704,1024.000,1018.000,1047.000
4254.855,1038.000,1037.000,1015.000
4256.007,1034.000,1036.000,1019.000
4257.158,1018.000,1051.000,1057.000
4258.310,1041.000,1038.000,1030.000
4259.462,1049.000,1033.000,1024.000
4260.612,1024.000,1063.000,1032.000
4261.763,1022.000,1041.000,1035.000
4262.913,1030.000,1060.000,1061.000
4264.063,1024.000,1043.000,1047.000
4265.215,1019.000,1042.000,1042.000
4266.364,1046.000,1051.000,1032.000
4267.515,1065.000,1068.000,1062.000
4268.664,1028.000,1052.000,1059.000
4269.813,1038.000,1029.000,1041.000
4270.963,1053.000,1049.000,1049.000
4272.112,1051.000,1052.000,1044.000
4273.261,1058.000,1043.000,1032.000
4274.410,1053.000,1042.000,1080.000
4275.558,1033.000,1066.000,1046.000
4276.707,1027.000,1081.000,1052.000
4277.855,1052.000,1065.000,1085.000
4279.004,1068.000,1056.000,1080.000
4280.152,1056.000,1067.000,1097.000
4281.299,1086.000,1077.000,1083.000
4282.447,1091.000,1099.000,1084.000
4283.594,1081.000,1091.000,1090.000
4284.742,1088.000,1099.000,1106.000
4285.889,1125.000,1096.000,1100.000
4287.034,1102.000,1102.000,1121.000
4288.182,1126.000,1096.000,1108.000
4289.328,1104.000,1112.000,1083.000
4290.473,1122.000,1111.000,1130.000
4291.621,1103.000,1112.000,1128.000
4292.767,1135.000,1121.000,1142.000
4293.912,1118.000,1145.000,1122.000
4295.058,1147.000,1154.000,1157.000
4296.203,1176.000,1141.000,1158.000
4297.349,1163.000,1163.000,1153.000
4298.493,1176.000,1166.000,1177.000
4299.639,1169.000,1166.000,1199.000
4300.783,1200.000,1196.000,1209.000
4301.928,1185.000,1212.000,1245.000
4303.072,1219.000,1201.000,1229.000
4304.216,1253.000,1232.000,1264.000
4305.359,1262.000,1260.000,1243.000
4306.504,1246.000,1278.000,1262.000
4307.647,1278.000,1295.000,1286.000
4308.791,1327.000,1287.000,1292.000
4309.933,1322.000,1325.000,1321.000
4311.077,1325.000,1360.000,1341.000
4312.220,1351.000,1348.000,1323.000
4313.362,1336.000,1361.000,1359.000
4314.505,1378.000,1351.000,1355.000
4315.647,1380.000,1391.000,1388.000
4316.789,1417.000,1443.000,1433.000
4317.931,1434.000,1431.000,1452.000
4319.073,1465.000,1490.000,1449.000
4320.215,1493.000,1482.000,1512.000
4321.356,1552.000,1513.000,1557.000
4322.497,1569.000,1573.000,1543.000
4323.639,1569.000,1602.000,1603.000
4324.779,1644.000,1649.000,1688.000
4325.921,1718.000,1718.000,1706.000
4327.060,1776.000,1776.000,1776.000
4328.200,1791.000,1830.000,1798.000
4329.341,1861.000,1878.000,1874.000
4330.481,1994.000,1925.000,1925.000
4331.620,2048.000,2037.000,2035.000
4332.760,2100.000,2120.000,2091.000
4333.900,2211.000,2228.000,2226.000
4335.040,2353.000,2252.000,2352.000
4336.178,2442.000,2494.000,2414.000
4337.317,2565.000,2594.000,2642.000
4338.456,2782.000,2749.000,2725.000
4339.594,2850.000,2923.000,2873.000
4340.733,3036.000,3039.000,3083.000
4341.871,3287.000,3216.000,3308.000
4343.008,3521.000,3492.000,3569.000
4344.147,3750.000,3795.000,3791.000
4345.284,4083.000,4082.000,4049.000
4346.421,4474.000,4455.000,4412.000
4347.559,4853.000,4829.000,4833.000
4348.696,5253.000,5255.000,5197.000
4349.834,5734.000,5729.000,5743.000
4350.970,6373.000,6314.000,6189.000
4352.106,6894.000,6765.000,6861.000
4353.243,7597.000,7489.000,7634.000
4354.378,8385.000,8248.000,8342.000
4355.516,9182.000,9182.000,9130.000
4356.651,10071.000,10037.000,10253.000
4357.786,11078.000,11099.000,11075.000
4358.922,12064.000,12107.000,12173.000
4360.057,12942.000,12972.000,13103.000
4361.193,13708.000,13766.000,13818.000
4362.327,14475.000,14467.000,14468.000
4363.462,15021.000,14888.000,15030.000
4364.597,15118.000,15121.000,15187.000
4365.731,15191.000,15235.000,15255.000
4366.866,15243.000,15174.000,15185.000
4368.000,14928.000,14964.000,14912.000
4369.133,14354.000,14407.000,14208.000
4370.268,13695.000,13855.000,13733.000
4371.401,13255.000,13242.000,13326.000
4372.533,12830.000,12864.000,12960.000
4373.667,12587.000,12498.000,12417.000
4374.800,12320.000,12234.000,12256.000
4375.934,12166.000,12084.000,12133.000
4377.065,12040.000,12064.000,12076.000
4378.198,12167.000,12148.000,12278.000
4379.331,12484.000,12486.000,12573.000
4380.462,13028.000,12884.000,12991.000
4381.595,13451.000,13488.000,13511.000
4382.727,14174.000,14165.000,14234.000
4383.857,14974.000,14931.000,14850.000
4384.990,15890.000,15798.000,15979.000
4386.120,16994.000,16956.000,17001.000
4387.251,18024.000,17948.000,18161.000
4388.382,19234.000,19234.000,19125.000
4389.513,20427.000,20435.000,20439.000
4390.644,21630.000,21461.000,21370.000
4391.775,22483.000,22538.000,22507.000
4392.904,23218.000,23258.000,23239.000
4394.034,23521.000,23385.000,23475.000
4395.163,23330.000,23417.000,23377.000
4396.294,23017.000,23158.000,22934.000
4397.423,22407.000,22476.000,22507.000
4398.552,21699.000,21858.000,21623.000
4399.681,20772.000,20669.000,20835.000
4400.811,19680.000,19552.000,19690.000
4401.940,18525.000,18453.000,18342.000
4403.068,17213.000,17264.000,17402.000
4404.196,16043.000,16108.000,15969.000
4405.324,15033.000,15208.000,15131.000
4406.452,13899.000,14021.000,14031.000
4407.580,13089.000,13067.000,13029.000
4408.708,12054.000,12206.000,12258.000
4409.835,11316.000,11431.000,11374.000
4410.963,10591.000,10615.000,10619.000
4412.090,9969.000,9943.000,9933.000
4413.216,9256.000,9401.000,9231.000
4414.344,8735.000,8778.000,8691.000
4415.470,8179.000,8352.000,8275.000
4416.597,7787.000,7829.000,7776.000
4417.724,7373.000,7367.000,7448.000
4418.848,6947.000,7045.000,6970.000
4419.975,6540.000,6623.000,6582.000
4421.101,6271.000,6284.000,6233.000
4422.226,5984.000,6011.000,6049.000
4423.352,5807.000,5708.000,5736.000
4424.477,5443.000,5479.000,5503.000
4425.602,5223.000,5233.000,5222.000
4426.727,5055.000,4955.000,4995.000
4427.850,4764.000,4760.000,4727.000
4428.976,4613.000,4646.000,4615.000
4430.100,4387.000,4391.000,4346.000
4431.225,4345.000,4246.000,4234.000
4432.349,4149.000,4082.000,4095.000
4433.472,4081.000,4000.000,4004.000
4434.596,3895.000,3858.000,3855.000
4435.719,3751.000,3729.000,3712.000
4436.844,3609.000,3609.000,3632.000
4437.966,3480.000,3489.000,3502.000
4439.088,3345.000,3416.000,3374.000
4440.211,3249.000,3286.000,3280.000
4441.334,3247.000,3202.000,3206.000
4442.457,3094.000,3123.000,3132.000
4443.578,3082.000,3052.000,2995.000
4444.700,2986.000,2959.000,2991.000
4445.823,2910.000,2948.000,2919.000
4446.944,2862.000,2815.000,2869.000
4448.066,2843.000,2758.000,2805.000
4449.187,2733.000,2776.000,2715.000
4450.308,2703.000,2702.000,2725.000
4451.429,2708.000,2669.000,2700.000
4452.550,2595.000,2620.000,2628.000
4453.671,2585.000,2618.000,2543.000
4454.791,2524.000,2525.000,2616.000
4455.911,2517.000,2545.000,2605.000
4457.032,2493.000,2482.000,2505.000
4458.151,2472.000,2462.000,2475.000
4459.271,2384.000,2473.000,2505.000
4460.391,2431.000,2448.000,2471.000
4461.510,2373.000,2402.000,2410.000
4462.630,2377.000,2446.000,2394.000
4463.748,2395.000,2400.000,2386.000
4464.867,2367.000,2368.000,2353.000
4465.987,2347.000,2358.000,2354.000
4467.105,2362.000,2336.000,2367.000
4468.223,2301.000,2329.000,2336.000
4469.341,2318.000,2314.000,2314.000
4470.458,2291.000,2291.000,2240.000
4471.577,2294.000,2275.000,2312.000
4472.695,2258.000,2261.000,2275.000
4473.811,2277.000,2209.000,2243.000
4474.930,2206.000,2291.000,2202.000
4476.046,2196.000,2163.000,2180.000
4477.164,2184.000,2153.000,2157.000
4478.280,2177.000,2178.000,2191.000
4479.397,2124.000,2151.000,2122.000
4480.514,2150.000,2130.000,2137.000
4481.630,2131.000,2152.000,2146.000
4482.746,2139.000,2089.000,2086.000
4483.863,2110.000,2093.000,2099.000
4484.978,2074.000,2062.000,2083.000
4486.093,2087.000,2030.000,2049.000
4487.208,2050.000,2064.000,2094.000
4488.325,2031.000,2016.000,2062.000
4489.439,2038.000,2028.000,2035.000
4490.554,1959.000,2022.000,1990.000
4491.669,2013.000,2033.000,2011.000
4492.783,1975.000,1969.000,1992.000
4493.899,2006.000,2020.000,1979.000
4495.012,1983.000,1985.000,1979.000
4496.126,2040.000,2023.000,2041.000
4497.240,2003.000,1989.000,2036.000
4498.353,1998.000,2014.000,2001.000
4499.466,1961.000,2007.000,2010.000
4500.580,2071.000,2019.000,1991.000
4501.693,2027.000,2008.000,2023.000
4502.807,1997.000,1985.000,2027.000
4503.919,2040.000,1982.000,1975.000
4505.032,2038.000,1974.000,2067.000
4506.144,2014.000,2023.000,2000.000
4507.256,2016.000,1982.000,1982.000
4508.369,2029.000,1975.000,2002.000
4509.481,2009.000,1968.000,1970.000
4510.591,1985.000,1965.000,1957.000
4511.704,1960.000,1955.000,1937.000
4512.815,1979.000,1896.000,1948.000
4513.926,1919.000,1894.000,1900.000
4515.037,1871.000,1864.000,1903.000
4516.148,1899.000,1859.000,1845.000
4517.260,1880.000,1896.000,1852.000
4518.369,1849.000,1834.000,1882.000
4519.480,1813.000,1838.000,1848.000
4520.590,1819.000,1838.000,1796.000
4521.700,1816.000,1810.000,1821.000
4522.810,1825.000,1809.000,1784.000
4523.920,1817.000,1817.000,1789.000
4525.029,1823.000,1802.000,1838.000
4526.139,1825.000,1823.000,1781.000
4527.248,1818.000,1837.000,1828.000
4528.358,1812.000,1835.000,1823.000
4529.466,1799.000,1825.000,1858.000
4530.574,1827.000,1787.000,1863.000
4531.684,1827.000,1856.000,1807.000
4532.791,1867.000,1836.000,1888.000
4533.900,1881.000,1880.000,1866.000
4535.007,1863.000,1850.000,1882.000
4536.114,1899.000,1888.000,1908.000
4537.223,1959.000,1917.000,1891.000
4538.330,1949.000,1968.000,1905.000
4539.437,1959.000,1923.000,1989.000
4540.545,1957.000,1973.000,1991.000
4541.651,2000.000,2000.000,1984.000
4542.759,2012.000,1992.000,1995.000
4543.865,1996.000,1959.000,1967.000