File: Raman/Silica/2025_09_12_12pct_Hydrated_SiO2_Glass_on_DAC_Culet_50X_532nm_74mW_Andor750_600gv_1030wn_6accum_30s_DePol_Loc4.csv
23.130,3556.000,3592.000,3595.000,3580.000,3543.000,3654.000
27.007,3260.000,3267.000,3186.000,3200.000,3226.000,3234.000
30.879,3218.000,3244.000,3201.000,3245.000,3207.000,3223.000
34.751,3267.000,3192.000,3224.000,3210.000,3173.000,3182.000
38.619,3183.000,3252.000,3158.000,3177.000,3171.000,3140.000
42.489,3260.000,3227.000,3313.000,3260.000,3298.000,3187.000
46.355,3281.000,3321.000,3233.000,3209.000,3321.000,3319.000
50.221,3198.000,3122.000,3188.000,3178.000,3222.000,3109.000
54.083,3252.000,3226.000,3233.000,3248.000,3302.000,3219.000
57.946,3179.000,3213.000,3152.000,3131.000,3136.000,3114.000
61.807,3037.000,3046.000,3056.000,2993.000,3020.000,3068.000
65.665,3058.000,3065.000,3023.000,3020.000,3007.000,3054.000
69.523,3083.000,3033.000,2977.000,2984.000,3001.000,3021.000
73.377,2826.000,2804.000,2806.000,2833.000,2840.000,2822.000
77.233,2867.000,2886.000,2863.000,2864.000,2896.000,2859.000
81.084,2760.000,2759.000,2741.000,2792.000,2752.000,2767.000
84.936,2734.000,2746.000,2720.000,2711.000,2755.000,2731.000
88.784,2677.000,2665.000,2618.000,2648.000,2630.000,2640.000
92.632,2598.000,2598.000,2646.000,2615.000,2599.000,2568.000
96.480,2533.000,2531.000,2514.000,2515.000,2525.000,2493.000
100.323,2578.000,2587.000,2621.000,2611.000,2600.000,2550.000
104.167,2415.000,2411.000,2407.000,2405.000,2387.000,2423.000
108.007,2419.000,2467.000,2442.000,2403.000,2446.000,2453.000
111.848,2346.000,2351.000,2321.000,2379.000,2335.000,2335.000
115.685,2346.000,2338.000,2384.000,2366.000,2324.000,2371.000
119.522,2259.000,2257.000,2280.000,2249.000,2219.000,2247.000
123.359,2226.000,2253.000,2237.000,2220.000,2256.000,2232.000
127.190,2193.000,2163.000,2185.000,2151.000,2132.000,2171.000
131.024,2206.000,2190.000,2197.000,2146.000,2170.000,2166.000
134.853,2094.000,2089.000,2080.000,2106.000,2070.000,2097.000
138.683,2049.000,1981.000,2023.000,1973.000,2003.000,2016.000
142.508,2015.000,2012.000,1971.000,1969.000,1948.000,1961.000
146.335,1981.000,1975.000,1927.000,1966.000,1949.000,1920.000
150.158,1923.000,1894.000,1864.000,1876.000,1850.000,1854.000
153.982,1906.000,1933.000,1877.000,1915.000,1874.000,1885.000
157.804,1822.000,1835.000,1844.000,1865.000,1825.000,1835.000
161.621,1789.000,1837.000,1839.000,1809.000,1811.000,1800.000
165.441,1781.000,1790.000,1781.000,1835.000,1798.000,1784.000
169.256,1784.000,1805.000,1725.000,1771.000,1739.000,1769.000
173.071,1722.000,1698.000,1764.000,1715.000,1697.000,1729.000
176.883,1766.000,1739.000,1735.000,1752.000,1757.000,1720.000
180.696,1675.000,1715.000,1695.000,1710.000,1653.000,1693.000
184.504,1669.000,1692.000,1657.000,1635.000,1649.000,1668.000
188.314,1691.000,1656.000,1674.000,1656.000,1675.000,1637.000
192.122,1641.000,1616.000,1645.000,1633.000,1680.000,1612.000
195.925,1629.000,1599.000,1604.000,1597.000,1586.000,1563.000
199.731,1567.000,1610.000,1635.000,1585.000,1592.000,1626.000
203.532,1589.000,1575.000,1587.000,1560.000,1544.000,1583.000
207.333,1574.000,1522.000,1579.000,1559.000,1571.000,1571.000
211.132,1560.000,1581.000,1607.000,1561.000,1579.000,1559.000
214.929,1558.000,1547.000,1536.000,1547.000,1550.000,1541.000
218.724,1489.000,1516.000,1509.000,1515.000,1516.000,1507.000
222.519,1556.000,1545.000,1532.000,1515.000,1545.000,1515.000
226.313,1496.000,1529.000,1524.000,1512.000,1525.000,1501.000
230.104,1495.000,1496.000,1491.000,1503.000,1508.000,1494.000
233.894,1521.000,1515.000,1493.000,1526.000,1525.000,1511.000
237.681,1480.000,1518.000,1438.000,1478.000,1456.000,1499.000
241.469,1459.000,1475.000,1443.000,1442.000,1456.000,1434.000
245.253,1476.000,1477.000,1470.000,1459.000,1459.000,1483.000
249.038,1452.000,1441.000,1456.000,1432.000,1460.000,1396.000
252.819,1440.000,1445.000,1440.000,1432.000,1432.000,1434.000
256.600,1456.000,1418.000,1419.000,1407.000,1440.000,1412.000
260.380,1436.000,1417.000,1403.000,1388.000,1405.000,1389.000
264.156,1394.000,1435.000,1409.000,1411.000,1380.000,1375.000
267.933,1439.000,1409.000,1388.000,1405.000,1410.000,1413.000
271.707,1407.000,1389.000,1412.000,1404.000,1397.000,1421.000
275.480,1389.000,1400.000,1380.000,1391.000,1381.000,1393.000
279.251,1434.000,1413.000,1399.000,1395.000,1390.000,1381.000
283.021,1416.000,1423.000,1392.000,1407.000,1396.000,1395.000
286.790,1386.000,1408.000,1392.000,1376.000,1390.000,1384.000
290.556,1412.000,1384.000,1435.000,1390.000,1400.000,1372.000
294.322,1356.000,1398.000,1403.000,1370.000,1357.000,1324.000
298.084,1389.000,1387.000,1374.000,1382.000,1386.000,1347.000
301.847,1360.000,1396.000,1369.000,1358.000,1389.000,1364.000
305.607,1358.000,1359.000,1356.000,1351.000,1335.000,1310.000
309.367,1346.000,1372.000,1347.000,1350.000,1349.000,1343.000
313.123,1371.000,1360.000,1330.000,1362.000,1351.000,1328.000
316.880,1357.000,1372.000,1374.000,1324.000,1338.000,1348.000
320.635,1365.000,1375.000,1347.000,1407.000,1338.000,1349.000
324.387,1393.000,1345.000,1347.000,1357.000,1311.000,1378.000
328.139,1322.000,1326.000,1348.000,1293.000,1340.000,1313.000
331.888,1307.000,1327.000,1336.000,1320.000,1340.000,1338.000
335.638,1385.000,1344.000,1353.000,1350.000,1326.000,1319.000
339.384,1323.000,1342.000,1343.000,1347.000,1336.000,1332.000
343.130,1389.000,1368.000,1345.000,1356.000,1336.000,1341.000
346.873,1332.000,1359.000,1355.000,1314.000,1341.000,1348.000
350.616,1391.000,1338.000,1342.000,1330.000,1346.000,1339.000
354.357,1332.000,1351.000,1388.000,1358.000,1344.000,1317.000
358.095,1355.000,1363.000,1366.000,1371.000,1360.000,1369.000
361.835,1356.000,1339.000,1345.000,1351.000,1339.000,1357.000
365.569,1350.000,1382.000,1356.000,1347.000,1326.000,1339.000
369.305,1392.000,1363.000,1370.000,1349.000,1366.000,1349.000
373.037,1375.000,1339.000,1356.000,1387.000,1342.000,1345.000
376.770,1367.000,1369.000,1352.000,1349.000,1330.000,1333.000
380.498,1390.000,1329.000,1383.000,1378.000,1342.000,1366.000
384.228,1376.000,1383.000,1366.000,1359.000,1360.000,1325.000
387.956,1364.000,1383.000,1365.000,1328.000,1348.000,1335.000
391.681,1354.000,1379.000,1366.000,1354.000,1371.000,1372.000
395.405,1377.000,1351.000,1330.000,1357.000,1338.000,1329.000
399.127,1363.000,1371.000,1359.000,1355.000,1313.000,1341.000
402.849,1375.000,1370.000,1369.000,1349.000,1353.000,1360.000
406.567,1375.000,1359.000,1363.000,1340.000,1374.000,1337.000
410.287,1368.000,1352.000,1334.000,1338.000,1359.000,1344.000
414.003,1372.000,1394.000,1378.000,1369.000,1395.000,1365.000
417.719,1385.000,1398.000,1341.000,1351.000,1339.000,1371.000
421.432,1369.000,1393.000,1363.000,1368.000,1343.000,1353.000
425.144,1361.000,1370.000,1377.000,1383.000,1355.000,1402.000
428.855,1375.000,1362.000,1356.000,1367.000,1352.000,1372.000
432.563,1397.000,1395.000,1378.000,1332.000,1369.000,1367.000
436.272,1377.000,1375.000,1376.000,1360.000,1359.000,1357.000
439.977,1381.000,1371.000,1375.000,1378.000,1409.000,1363.000
443.683,1377.000,1387.000,1383.000,1384.000,1396.000,1368.000
447.386,1410.000,1418.000,1410.000,1398.000,1416.000,1343.000
451.087,1388.000,1388.000,1391.000,1342.000,1373.000,1390.000
454.788,1380.000,1372.000,1406.000,1376.000,1410.000,1374.000
458.485,1388.000,1419.000,1415.000,1390.000,1387.000,1388.000
462.183,1418.000,1403.000,1422.000,1398.000,1386.000,1423.000
465.879,1427.000,1409.000,1379.000,1403.000,1398.000,1400.000
469.574,1415.000,1422.000,1402.000,1375.000,1390.000,1402.000
473.265,1404.000,1399.000,1413.000,1421.000,1389.000,1366.000
476.957,1392.000,1403.000,1393.000,1407.000,1401.000,1355.000
480.647,1411.000,1404.000,1390.000,1411.000,1391.000,1375.000
484.335,1410.000,1391.000,1371.000,1378.000,1403.000,1384.000
488.022,1371.000,1354.000,1373.000,1390.000,1338.000,1340.000
491.706,1325.000,1350.000,1339.000,1350.000,1350.000,1335.000
495.391,1300.000,1334.000,1324.000,1311.000,1312.000,1333.000
499.072,1230.000,1271.000,1271.000,1266.000,1264.000,1244.000
502.754,1230.000,1219.000,1208.000,1239.000,1209.000,1209.000
506.432,1198.000,1177.000,1194.000,1172.000,1166.000,1163.000
510.111,1156.000,1154.000,1146.000,1133.000,1109.000,1124.000
513.788,1110.000,1100.000,1123.000,1087.000,1103.000,1102.000
517.462,1094.000,1117.000,1100.000,1079.000,1086.000,1086.000
521.136,1062.000,1089.000,1078.000,1085.000,1070.000,1047.000
524.807,1053.000,1038.000,1063.000,1040.000,1044.000,1028.000
528.479,1058.000,1028.000,1047.000,1045.000,1034.000,1017.000
532.147,1025.000,1018.000,1018.000,1038.000,1007.000,1009.000
535.815,1039.000,1036.000,1033.000,1019.000,1044.000,1001.000
539.480,1018.000,1051.000,1005.000,1010.000,995.000,1018.000
543.145,1015.000,1021.000,1017.000,993.000,979.000,989.000
546.809,991.000,995.000,985.000,1003.000,1018.000,990.000
550.469,1011.000,1013.000,993.000,998.000,990.000,961.000
554.131,980.000,989.000,987.000,990.000,967.000,986.000
557.788,981.000,973.000,991.000,982.000,962.000,958.000
561.446,979.000,975.000,996.000,986.000,974.000,970.000
565.100,979.000,983.000,963.000,956.000,945.000,929.000
568.756,987.000,975.000,953.000,932.000,953.000,970.000
572.408,962.000,976.000,969.000,958.000,945.000,935.000
576.060,952.000,974.000,966.000,934.000,966.000,940.000
579.711,954.000,944.000,936.000,945.000,933.000,942.000
583.358,940.000,961.000,965.000,959.000,959.000,940.000
587.006,947.000,941.000,953.000,953.000,934.000,936.000
590.650,960.000,943.000,941.000,928.000,942.000,952.000
594.295,954.000,934.000,932.000,916.000,922.000,923.000
597.937,950.000,926.000,924.000,940.000,931.000,913.000
601.579,956.000,946.000,938.000,942.000,934.000,923.000
605.217,971.000,952.000,957.000,925.000,929.000,906.000
608.856,930.000,927.000,931.000,955.000,923.000,916.000
612.494,960.000,933.000,928.000,927.000,926.000,920.000
616.129,936.000,929.000,924.000,943.000,924.000,928.000
619.763,915.000,928.000,945.000,927.000,915.000,934.000
623.394,928.000,941.000,912.000,916.000,899.000,907.000
627.026,934.000,928.000,901.000,910.000,905.000,905.000
630.655,934.000,934.000,922.000,929.000,890.000,900.000
634.284,913.000,904.000,910.000,928.000,922.000,887.000
637.911,938.000,915.000,912.000,911.000,897.000,912.000
641.535,921.000,918.000,905.000,920.000,885.000,902.000
645.160,925.000,896.000,905.000,901.000,903.000,894.000
648.781,934.000,905.000,895.000,906.000,910.000,899.000
652.403,914.000,927.000,905.000,923.000,908.000,897.000
656.021,918.000,932.000,915.000,920.000,906.000,897.000
659.640,924.000,924.000,938.000,920.000,899.000,896.000
663.256,919.000,926.000,909.000,924.000,907.000,899.000
666.872,902.000,910.000,914.000,901.000,874.000,895.000
670.485,929.000,895.000,920.000,898.000,900.000,907.000
674.097,937.000,910.000,902.000,906.000,893.000,877.000
677.709,917.000,915.000,929.000,912.000,885.000,894.000
681.317,917.000,933.000,897.000,910.000,919.000,895.000
684.926,925.000,934.000,929.000,895.000,897.000,1083.000
688.531,926.000,899.000,904.000,925.000,878.000,935.000
692.136,926.000,916.000,911.000,915.000,894.000,3098.000
695.739,929.000,932.000,918.000,910.000,905.000,1392.000
699.342,916.000,928.000,895.000,901.000,926.000,907.000
702.944,943.000,918.000,915.000,904.000,915.000,899.000
706.542,936.000,928.000,938.000,924.000,915.000,909.000
710.141,927.000,932.000,906.000,911.000,901.000,905.000
713.736,957.000,918.000,938.000,915.000,898.000,908.000
717.332,933.000,921.000,920.000,933.000,916.000,892.000
720.925,952.000,908.000,927.000,927.000,898.000,901.000
724.517,940.000,914.000,923.000,914.000,916.000,913.000
728.106,934.000,922.000,909.000,906.000,915.000,916.000
731.697,933.000,915.000,915.000,924.000,897.000,917.000
735.286,923.000,918.000,941.000,919.000,915.000,934.000
738.871,938.000,928.000,919.000,942.000,930.000,933.000
742.457,936.000,925.000,935.000,919.000,924.000,915.000
746.039,930.000,923.000,937.000,932.000,917.000,933.000
749.622,937.000,940.000,950.000,942.000,907.000,916.000
753.202,951.000,961.000,940.000,925.000,949.000,920.000
756.782,941.000,942.000,932.000,934.000,942.000,924.000
760.360,990.000,958.000,946.000,946.000,945.000,936.000
763.937,979.000,961.000,978.000,981.000,935.000,957.000
767.512,999.000,981.000,958.000,980.000,972.000,968.000
771.085,1019.000,1032.000,1007.000,1018.000,1005.000,987.000
774.657,1054.000,1048.000,1034.000,1035.000,1048.000,1026.000
778.228,1078.000,1077.000,1076.000,1076.000,1043.000,1044.000
781.797,1102.000,1090.000,1099.000,1120.000,1087.000,1096.000
785.364,1121.000,1124.000,1129.000,1139.000,1091.000,1105.000
788.932,1147.000,1136.000,1125.000,1137.000,1111.000,1104.000
792.498,1129.000,1121.000,1093.000,1091.000,1102.000,1114.000
796.060,1113.000,1122.000,1118.000,1121.000,1117.000,1115.000
799.624,1118.000,1100.000,1102.000,1085.000,1088.000,1071.000
803.184,1126.000,1117.000,1086.000,1106.000,1094.000,1091.000
806.744,1098.000,1093.000,1114.000,1080.000,1085.000,1082.000
810.301,1085.000,1072.000,1055.000,1064.000,1078.000,1065.000
813.859,1050.000,1076.000,1065.000,1056.000,1049.000,1043.000
817.413,1064.000,1085.000,1069.000,1046.000,1051.000,1074.000
820.967,1056.000,1053.000,1061.000,1053.000,1056.000,1040.000
824.520,1031.000,1029.000,1021.000,1037.000,1054.000,1029.000
828.071,1038.000,1038.000,1009.000,1007.000,1025.000,1006.000
831.622,1010.000,1008.000,997.000,995.000,1007.000,992.000
835.169,1020.000,1004.000,986.000,986.000,1000.000,973.000
838.716,1004.000,983.000,979.000,958.000,950.000,956.000
842.261,956.000,960.000,960.000,946.000,947.000,950.000
845.806,956.000,980.000,957.000,936.000,932.000,926.000
849.347,947.000,947.000,934.000,928.000,928.000,901.000
852.890,944.000,959.000,926.000,944.000,939.000,935.000
856.430,943.000,923.000,906.000,934.000,908.000,903.000
859.968,947.000,939.000,905.000,924.000,900.000,912.000
863.506,935.000,934.000,916.000,919.000,915.000,900.000
867.040,930.000,940.000,936.000,917.000,935.000,895.000
870.574,918.000,899.000,928.000,911.000,909.000,902.000
874.106,947.000,928.000,924.000,897.000,915.000,914.000
877.640,924.000,925.000,922.000,913.000,916.000,903.000
881.168,952.000,923.000,933.000,911.000,927.000,900.000
884.698,918.000,915.000,924.000,937.000,904.000,911.000
888.226,957.000,954.000,927.000,923.000,922.000,900.000
891.750,934.000,921.000,931.000,923.000,917.000,904.000
895.276,937.000,904.000,913.000,920.000,920.000,913.000
898.798,916.000,933.000,927.000,916.000,935.000,910.000
902.321,960.000,923.000,914.000,925.000,925.000,914.000
905.840,957.000,943.000,942.000,923.000,917.000,901.000
909.360,958.000,965.000,944.000,956.000,932.000,920.000
912.876,937.000,949.000,936.000,947.000,945.000,920.000
916.393,946.000,939.000,951.000,936.000,925.000,925.000
919.909,957.000,962.000,922.000,949.000,959.000,920.000
923.422,959.000,961.000,952.000,948.000,960.000,923.000
926.934,981.000,951.000,944.000,942.000,954.000,920.000
930.444,965.000,955.000,965.000,966.000,945.000,953.000
933.954,995.000,981.000,989.000,963.000,958.000,959.000
937.461,997.000,998.000,963.000,992.000,947.000,957.000
940.968,984.000,1005.000,987.000,978.000,990.000,982.000
944.475,1005.000,1013.000,1006.000,1006.000,1007.000,987.000
947.978,1013.000,1024.000,986.000,1009.000,1005.000,997.000
951.481,988.000,1035.000,1031.000,993.000,995.000,993.000
954.981,1049.000,1017.000,1039.000,1045.000,1009.000,1015.000
958.482,1041.000,1039.000,1047.000,1027.000,1029.000,1012.000
961.979,1042.000,1033.000,1035.000,1048.000,1051.000,1028.000
965.476,1057.000,1045.000,1042.000,1046.000,1057.000,1045.000
968.971,1047.000,1074.000,1051.000,1043.000,1071.000,1044.000
972.466,1047.000,1054.000,1059.000,1024.000,1021.000,1014.000
975.959,1050.000,1063.000,1051.000,1033.000,1019.000,1041.000
979.451,1035.000,1052.000,1023.000,1037.000,1025.000,1023.000
982.941,1010.000,1032.000,1005.000,990.000,1013.000,981.000
986.428,1030.000,1018.000,992.000,1034.000,995.000,1011.000
989.917,1017.000,1028.000,1014.000,999.000,966.000,1002.000
993.402,1008.000,997.000,1003.000,991.000,967.000,964.000
996.887,988.000,1002.000,984.000,961.000,959.000,980.000
1000.369,990.000,958.000,991.000,971.000,951.000,970.000
1003.852,980.000,970.000,960.000,943.000,957.000,925.000
1007.333,966.000,991.000,945.000,968.000,939.000,961.000
1010.812,971.000,969.000,950.000,958.000,950.000,943.000
1014.290,973.000,969.000,947.000,954.000,928.000,920.000
1017.766,982.000,970.000,947.000,946.000,947.000,938.000
1021.241,977.000,960.000,937.000,953.000,966.000,955.000
1024.714,979.000,950.000,978.000,964.000,960.000,938.000
1028.188,947.000,971.000,978.000,939.000,968.000,920.000
1031.658,969.000,978.000,959.000,979.000,967.000,935.000
1035.128,990.000,970.000,963.000,978.000,968.000,946.000
1038.598,1006.000,984.000,983.000,967.000,958.000,964.000
1042.063,1013.000,997.000,994.000,983.000,966.000,974.000
1045.530,1014.000,1012.000,989.000,993.000,1009.000,977.000
1048.994,1008.000,1005.000,994.000,976.000,969.000,977.000
1052.457,998.000,1021.000,1003.000,983.000,1005.000,972.000
1055.917,1014.000,1001.000,1023.000,1003.000,1003.000,985.000
1059.379,1009.000,1008.000,1019.000,1002.000,995.000,988.000
1062.838,1016.000,1031.000,978.000,981.000,978.000,976.000
1066.294,969.000,978.000,1002.000,1002.000,1014.000,975.000
1069.752,1012.000,1010.000,1001.000,1006.000,1001.000,967.000
1073.206,993.000,996.000,992.000,989.000,984.000,966.000
1076.660,1018.000,977.000,1018.000,983.000,984.000,977.000
1080.110,1001.000,1000.000,977.000,983.000,991.000,988.000
1083.562,992.000,1002.000,1021.000,998.000,989.000,981.000
1087.011,981.000,984.000,988.000,973.000,965.000,944.000
1090.460,976.000,952.000,978.000,963.000,926.000,955.000
1093.908,957.000,936.000,943.000,943.000,919.000,924.000
1097.351,940.000,925.000,943.000,920.000,919.000,901.000
1100.796,919.000,937.000,911.000,935.000,909.000,895.000
1104.238,950.000,926.000,925.000,924.000,925.000,918.000
1107.681,923.000,928.000,925.000,902.000,903.000,914.000
1111.120,923.000,912.000,923.000,906.000,916.000,898.000
1114.559,938.000,932.000,919.000,911.000,922.000,897.000
1117.995,933.000,931.000,930.000,921.000,877.000,917.000
1121.432,917.000,903.000,932.000,922.000,907.000,904.000
1124.867,905.000,924.000,938.000,935.000,918.000,909.000
1128.300,930.000,918.000,928.000,925.000,935.000,894.000
1131.733,948.000,936.000,944.000,918.000,894.000,899.000
1135.163,931.000,927.000,913.000,919.000,931.000,918.000
1138.593,974.000,943.000,935.000,918.000,920.000,923.000
1142.020,940.000,957.000,921.000,939.000,911.000,915.000
1145.447,950.000,966.000,944.000,945.000,914.000,910.000
1148.872,966.000,957.000,960.000,935.000,955.000,934.000
1152.297,956.000,941.000,945.000,951.000,930.000,920.000
1155.720,971.000,953.000,953.000,950.000,952.000,935.000
1159.141,958.000,951.000,947.000,948.000,937.000,921.000
1162.561,962.000,951.000,966.000,959.000,958.000,937.000
1165.979,951.000,958.000,938.000,935.000,942.000,938.000
1169.397,949.000,963.000,995.000,936.000,946.000,928.000
1172.813,972.000,940.000,968.000,953.000,956.000,918.000
1176.229,954.000,966.000,960.000,963.000,935.000,948.000
1179.641,954.000,968.000,948.000,935.000,960.000,947.000
1183.054,951.000,972.000,963.000,948.000,948.000,921.000
1186.465,962.000,968.000,968.000,938.000,936.000,926.000
1189.874,978.000,957.000,974.000,966.000,937.000,939.000
1193.282,963.000,959.000,982.000,957.000,952.000,957.000
1196.688,973.000,957.000,937.000,939.000,950.000,950.000
1200.095,955.000,955.000,962.000,953.000,935.000,933.000
1203.498,978.000,956.000,962.000,946.000,954.000,946.000
1206.902,964.000,961.000,938.000,938.000,927.000,929.000
1210.302,944.000,950.000,938.000,955.000,927.000,934.000
1213.703,963.000,957.000,951.000,951.000,936.000,929.000
1217.103,956.000,949.000,970.000,904.000,912.000,940.000
1220.499,965.000,932.000,937.000,950.000,914.000,914.000
1223.897,975.000,954.000,938.000,937.000,932.000,920.000
1227.291,938.000,936.000,940.000,930.000,927.000,915.000
1230.685,931.000,947.000,938.000,927.000,910.000,899.000
1234.076,927.000,948.000,927.000,912.000,931.000,917.000
1237.469,943.000,932.000,928.000,915.000,903.000,906.000
1240.858,931.000,944.000,935.000,915.000,906.000,904.000
1244.246,915.000,937.000,927.000,908.000,899.000,913.000
1247.634,925.000,915.000,902.000,907.000,906.000,901.000
1251.020,920.000,938.000,901.000,919.000,914.000,890.000
1254.405,932.000,899.000,918.000,897.000,905.000,901.000
1257.787,897.000,915.000,906.000,913.000,898.000,886.000
1261.170,901.000,915.000,916.000,909.000,886.000,875.000
1264.549,915.000,923.000,899.000,899.000,876.000,860.000
1267.929,924.000,922.000,897.000,895.000,895.000,903.000
1271.308,909.000,895.000,910.000,895.000,905.000,910.000
1274.683,910.000,895.000,920.000,904.000,871.000,883.000
1278.060,936.000,911.000,904.000,906.000,894.000,904.000
1281.433,923.000,903.000,916.000,910.000,896.000,891.000
1284.807,918.000,940.000,904.000,893.000,883.000,887.000
1288.177,909.000,927.000,895.000,884.000,897.000,893.000
1291.548,922.000,912.000,897.000,910.000,895.000,879.000
1294.916,944.000,915.000,883.000,912.000,892.000,892.000
1298.284,939.000,920.000,897.000,898.000,887.000,896.000
1301.652,909.000,912.000,900.000,900.000,880.000,886.000
1305.015,923.000,923.000,914.000,882.000,907.000,897.000
1308.380,926.000,890.000,906.000,898.000,903.000,900.000
1311.742,921.000,906.000,916.000,883.000,897.000,891.000
1315.104,935.000,922.000,919.000,898.000,896.000,891.000
1318.462,953.000,934.000,919.000,926.000,931.000,901.000
1321.822,1004.000,970.000,966.000,969.000,962.000,951.000
1325.180,1256.000,1262.000,1267.000,1277.000,1254.000,1253.000
1328.535,2108.000,2150.000,2061.000,2076.000,2099.000,2096.000
1331.891,1167.000,1147.000,1127.000,1144.000,1147.000,1138.000
1335.243,955.000,956.000,954.000,934.000,938.000,931.000
1338.595,916.000,953.000,936.000,918.000,914.000,891.000
1341.946,937.000,929.000,942.000,908.000,915.000,889.000
1345.296,934.000,911.000,904.000,916.000,905.000,893.000
1348.643,935.000,910.000,908.000,918.000,895.000,893.000
1351.991,914.000,919.000,914.000,908.000,909.000,906.000
1355.337,916.000,930.000,924.000,900.000,899.000,891.000
1358.680,946.000,928.000,924.000,913.000,889.000,878.000
1362.025,952.000,908.000,909.000,913.000,904.000,918.000
1365.366,945.000,949.000,948.000,922.000,906.000,924.000
1368.707,939.000,958.000,950.000,938.000,920.000,919.000
1372.045,936.000,956.000,937.000,939.000,950.000,926.000
1375.384,969.000,937.000,920.000,918.000,933.000,907.000
1378.720,947.000,922.000,942.000,938.000,921.000,925.000
1382.057,962.000,962.000,942.000,951.000,938.000,905.000
1385.391,932.000,949.000,940.000,926.000,927.000,912.000
1388.723,949.000,944.000,936.000,919.000,901.000,896.000
1392.056,912.000,917.000,917.000,908.000,884.000,889.000
1395.385,919.000,917.000,905.000,907.000,907.000,898.000
1398.714,916.000,934.000,918.000,921.000,909.000,894.000
1402.042,920.000,935.000,915.000,916.000,889.000,891.000
1405.369,914.000,947.000,933.000,899.000,906.000,892.000
1408.692,918.000,921.000,927.000,914.000,890.000,914.000
1412.017,937.000,914.000,914.000,907.000,898.000,893.000
1415.341,926.000,916.000,914.000,912.000,893.000,891.000
1418.662,919.000,915.000,920.000,919.000,903.000,912.000
1421.982,925.000,906.000,915.000,891.000,899.000,891.000
1425.300,914.000,935.000,918.000,884.000,900.000,908.000
1428.619,929.000,924.000,927.000,915.000,906.000,891.000
1431.935,927.000,915.000,909.000,927.000,904.000,901.000
1435.250,927.000,908.000,910.000,918.000,924.000,923.000
1438.563,903.000,929.000,917.000,921.000,913.000,899.000
1441.877,922.000,898.000,924.000,917.000,911.000,874.000
1445.189,925.000,941.000,922.000,888.000,913.000,890.000
1448.497,927.000,911.000,893.000,915.000,909.000,881.000
1451.807,914.000,917.000,925.000,919.000,901.000,885.000
1455.114,931.000,924.000,921.000,905.000,909.000,902.000
1458.420,931.000,936.000,928.000,910.000,898.000,887.000
1461.725,929.000,915.000,910.000,906.000,924.000,891.000
1465.029,934.000,905.000,919.000,918.000,906.000,881.000
1468.331,918.000,917.000,908.000,900.000,902.000,890.000
1471.632,928.000,909.000,911.000,904.000,904.000,873.000
1474.934,929.000,937.000,921.000,887.000,897.000,900.000
1478.232,925.000,929.000,914.000,897.000,884.000,900.000
1481.530,909.000,929.000,904.000,901.000,886.000,890.000
1484.825,924.000,907.000,915.000,896.000,891.000,876.000
1488.120,900.000,919.000,917.000,901.000,892.000,900.000
1491.414,922.000,915.000,905.000,906.000,895.000,895.000
1494.707,927.000,901.000,910.000,903.000,911.000,893.000
1497.997,930.000,916.000,905.000,916.000,886.000,890.000
1501.287,934.000,906.000,927.000,899.000,901.000,886.000
1504.577,935.000,924.000,913.000,915.000,907.000,899.000
1507.863,926.000,900.000,905.000,900.000,893.000,895.000
1511.151,902.000,919.000,913.000,915.000,900.000,894.000
1514.435,924.000,927.000,907.000,901.000,890.000,890.000
1517.719,937.000,929.000,906.000,897.000,895.000,891.000
1521.001,923.000,919.000,922.000,911.000,904.000,892.000
1524.282,905.000,905.000,916.000,900.000,890.000,895.000
1527.561,904.000,930.000,924.000,905.000,908.000,863.000
1530.840,923.000,926.000,928.000,905.000,909.000,889.000
1534.118,924.000,931.000,911.000,936.000,914.000,884.000
1537.394,919.000,920.000,925.000,911.000,909.000,889.000
1540.670,929.000,920.000,923.000,914.000,912.000,911.000
1543.943,942.000,920.000,933.000,898.000,899.000,887.000
1547.216,939.000,927.000,939.000,913.000,915.000,893.000
1550.486,933.000,928.000,931.000,926.000,908.000,902.000
1553.756,918.000,920.000,897.000,899.000,911.000,906.000
1557.027,945.000,936.000,903.000,939.000,933.000,902.000
1560.293,924.000,917.000,938.000,915.000,920.000,910.000
1563.560,946.000,938.000,931.000,912.000,915.000,895.000
1566.824,935.000,944.000,939.000,924.000,896.000,895.000
1570.088,954.000,915.000,932.000,927.000,897.000,910.000
1573.350,923.000,947.000,924.000,926.000,915.000,900.000
1576.612,924.000,941.000,940.000,910.000,901.000,916.000
1579.872,938.000,941.000,930.000,938.000,908.000,907.000
1583.131,955.000,935.000,951.000,915.000,924.000,918.000
1586.390,956.000,950.000,937.000,919.000,909.000,906.000
1589.645,966.000,939.000,941.000,926.000,927.000,924.000
1592.901,975.000,968.000,946.000,928.000,928.000,925.000
1596.154,986.000,974.000,947.000,940.000,931.000,935.000
1599.408,997.000,980.000,948.000,959.000,953.000,936.000
1602.658,970.000,964.000,965.000,967.000,939.000,938.000
1605.909,982.000,966.000,964.000,958.000,955.000,945.000
1609.158,982.000,954.000,947.000,958.000,941.000,947.000
1612.405,967.000,959.000,959.000,951.000,948.000,923.000
1615.653,969.000,943.000,925.000,952.000,945.000,932.000
1618.898,969.000,960.000,954.000,935.000,927.000,920.000
1622.142,939.000,940.000,927.000,940.000,941.000,914.000
1625.384,966.000,970.000,942.000,955.000,898.000,922.000
1628.627,950.000,943.000,937.000,942.000,931.000,929.000
1631.866,961.000,941.000,941.000,934.000,945.000,922.000
1635.106,976.000,965.000,932.000,947.000,916.000,909.000
1638.345,952.000,946.000,910.000,921.000,922.000,915.000
1641.580,942.000,928.000,935.000,930.000,897.000,919.000
1644.816,952.000,919.000,916.000,927.000,906.000,912.000
1648.050,928.000,931.000,919.000,927.000,910.000,891.000
1651.285,931.000,951.000,925.000,918.000,929.000,895.000
1654.515,929.000,932.000,930.000,916.000,913.000,912.000
1657.747,948.000,929.000,913.000,910.000,913.000,891.000
1660.975,940.000,934.000,917.000,919.000,904.000,897.000
1664.204,942.000,927.000,909.000,928.000,904.000,903.000
1667.431,940.000,924.000,908.000,923.000,906.000,892.000
1670.656,946.000,923.000,924.000,928.000,902.000,878.000
1673.882,926.000,943.000,927.000,911.000,919.000,898.000
1677.104,921.000,919.000,916.000,912.000,886.000,902.000
1680.328,941.000,931.000,922.000,897.000,917.000,910.000
1683.548,928.000,918.000,908.000,917.000,894.000,900.000
1686.768,934.000,907.000,921.000,903.000,889.000,887.000
1689.986,932.000,908.000,903.000,895.000,912.000,887.000
1693.203,908.000,916.000,902.000,919.000,892.000,879.000
1696.420,918.000,911.000,918.000,900.000,907.000,870.000
1699.634,922.000,931.000,917.000,902.000,890.000,901.000
1702.848,922.000,927.000,904.000,907.000,880.000,901.000
1706.060,904.000,949.000,914.000,909.000,877.000,886.000
1709.272,932.000,909.000,924.000,920.000,892.000,908.000
1712.482,920.000,916.000,899.000,915.000,903.000,896.000
1715.691,923.000,913.000,909.000,900.000,883.000,881.000
1718.897,917.000,904.000,889.000,901.000,899.000,895.000
1722.105,920.000,907.000,910.000,922.000,900.000,870.000
1725.311,915.000,928.000,895.000,905.000,904.000,881.000
1728.514,942.000,907.000,893.000,888.000,899.000,889.000
1731.718,927.000,913.000,900.000,920.000,898.000,877.000
1734.918,932.000,936.000,910.000,900.000,888.000,878.000
1738.120,913.000,927.000,896.000,905.000,895.000,908.000
1741.318,916.000,895.000,914.000,891.000,901.000,896.000
1744.517,924.000,911.000,911.000,910.000,909.000,891.000
1747.712,910.000,905.000,913.000,909.000,900.000,894.000
1750.909,924.000,914.000,903.000,906.000,885.000,890.000
1754.104,927.000,915.000,899.000,909.000,904.000,896.000
1757.297,939.000,901.000,910.000,898.000,895.000,871.000
1760.489,939.000,894.000,920.000,926.000,889.000,878.000
1763.679,924.000,921.000,923.000,887.000,888.000,873.000
1766.870,922.000,934.000,909.000,915.000,891.000,879.000
1770.057,926.000,949.000,914.000,913.000,885.000,896.000
1773.245,915.000,909.000,899.000,915.000,898.000,886.000
1776.430,928.000,907.000,918.000,918.000,896.000,883.000
1779.616,927.000,923.000,914.000,897.000,883.000,887.000
1782.800,907.000,926.000,912.000,914.000,908.000,900.000
1785.982,934.000,930.000,912.000,908.000,906.000,888.000
1789.164,936.000,934.000,915.000,905.000,908.000,895.000
1792.343,906.000,911.000,920.000,905.000,899.000,898.000
1795.523,905.000,943.000,931.000,899.000,907.000,890.000
1798.700,955.000,917.000,918.000,908.000,902.000,887.000
1801.877,925.000,923.000,936.000,925.000,903.000,892.000
1805.052,946.000,932.000,921.000,929.000,893.000,899.000
1808.226,911.000,937.000,936.000,930.000,902.000,897.000
1811.400,947.000,917.000,915.000,917.000,912.000,895.000
1814.571,939.000,939.000,914.000,903.000,903.000,929.000
1816.157,924.000,930.000,938.000,929.000,915.000,914.000