File: Raman/Silica/2025_08_22_29Si17O2_Fumed_ssNMR_50X_532nm_6mW_Andor750_600gv_3400wn_3accum_30s_UnPol_Pos1.csv
2654.492,3243.000,3105.000,2977.000
2655.914,3289.000,3147.000,3011.000
2657.338,3245.000,3100.000,2963.000
2658.758,3323.000,3104.000,2966.000
2660.180,3282.000,3109.000,2986.000
2661.602,3275.000,3104.000,2994.000
2663.023,3305.000,3157.000,2989.000
2664.444,3309.000,3159.000,2983.000
2665.866,3306.000,3163.000,2996.000
2667.285,3323.000,3107.000,2999.000
2668.704,3240.000,3131.000,2985.000
2670.126,3354.000,3192.000,2991.000
2671.545,3327.000,3114.000,3005.000
2672.965,3283.000,3085.000,2949.000
2674.383,3295.000,3120.000,2996.000
2675.803,3316.000,3113.000,2993.000
2677.221,3327.000,3111.000,3005.000
2678.640,3308.000,3136.000,2980.000
2680.058,3305.000,3142.000,3020.000
2681.477,3227.000,3098.000,3025.000
2682.894,3344.000,3158.000,2980.000
2684.311,3321.000,3115.000,3012.000
2685.729,3320.000,3098.000,2983.000
2687.145,3331.000,3061.000,2990.000
2688.562,3299.000,3090.000,3024.000
2689.978,3340.000,3098.000,3017.000
2691.395,3298.000,3109.000,2985.000
2692.810,3258.000,3165.000,3072.000
2694.227,3252.000,3147.000,2970.000
2695.642,3290.000,3153.000,2982.000
2697.056,3261.000,3052.000,3027.000
2698.473,3337.000,3111.000,3005.000
2699.886,3271.000,3116.000,3012.000
2701.302,3356.000,3149.000,2995.000
2702.715,3330.000,3188.000,3031.000
2704.130,3286.000,3107.000,2965.000
2705.543,3273.000,3079.000,3025.000
2706.957,3333.000,3104.000,3005.000
2708.369,3253.000,3094.000,2959.000
2709.783,3334.000,3139.000,2981.000
2711.196,3325.000,3089.000,2951.000
2712.608,3308.000,3129.000,3000.000
2714.020,3291.000,3104.000,3004.000
2715.432,3248.000,3149.000,2957.000
2716.844,3262.000,3098.000,3004.000
2718.255,3285.000,3070.000,3039.000
2719.668,3336.000,3092.000,2977.000
2721.077,3252.000,3128.000,3024.000
2722.488,3217.000,3091.000,2975.000
2723.899,3240.000,3161.000,2996.000
2725.309,3243.000,3059.000,3055.000
2726.720,3293.000,3102.000,2933.000
2728.129,3303.000,3135.000,2985.000
2729.540,3306.000,3073.000,2965.000
2730.947,3319.000,3094.000,2957.000
2732.358,3277.000,3106.000,2982.000
2733.765,3289.000,3119.000,3016.000
2735.175,3288.000,3169.000,2993.000
2736.583,3212.000,3147.000,2964.000
2737.990,3281.000,3132.000,2992.000
2739.399,3302.000,3135.000,2991.000
2740.805,3253.000,3092.000,3012.000
2742.214,3311.000,3053.000,3007.000
2743.620,3325.000,3086.000,2995.000
2745.027,3231.000,3111.000,2975.000
2746.434,3260.000,3075.000,2976.000
2747.840,3295.000,3091.000,2945.000
2749.246,3260.000,3130.000,3030.000
2750.650,3284.000,3112.000,2961.000
2752.058,3292.000,3079.000,2990.000
2753.462,3261.000,3044.000,2956.000
2754.868,3259.000,3075.000,2980.000
2756.272,3278.000,3131.000,2948.000
2757.677,3292.000,3072.000,3013.000
2759.081,3279.000,3085.000,2943.000
2760.486,3275.000,3088.000,2963.000
2761.889,3278.000,3084.000,2978.000
2763.292,3290.000,3106.000,2999.000
2764.696,3274.000,3080.000,2911.000
2766.099,3273.000,3118.000,2932.000
2767.503,3256.000,3090.000,3009.000
2768.904,3259.000,3088.000,2993.000
2770.307,3247.000,3175.000,2997.000
2771.709,3243.000,3132.000,3018.000
2773.111,3254.000,3075.000,2960.000
2774.512,3256.000,3131.000,2949.000
2775.915,3258.000,3125.000,3015.000
2777.315,3248.000,3114.000,2948.000
2778.716,3257.000,3061.000,2950.000
2780.117,3294.000,3110.000,2999.000
2781.517,3277.000,3117.000,2963.000
2782.917,3241.000,3103.000,3008.000
2784.316,3289.000,3238.000,2959.000
2785.717,3284.000,3137.000,2981.000
2787.116,3211.000,3072.000,2975.000
2788.517,3262.000,3094.000,2944.000
2789.915,3247.000,3090.000,2976.000
2791.312,3253.000,3111.000,2980.000
2792.711,3254.000,3099.000,3015.000
2794.109,3303.000,3079.000,2971.000
2795.507,3270.000,3074.000,2931.000
2796.904,3209.000,3086.000,3004.000
2798.304,3260.000,3145.000,2992.000
2799.700,3266.000,3065.000,2952.000
2801.098,3246.000,3112.000,2990.000
2802.494,3206.000,3100.000,2968.000
2803.889,3271.000,3097.000,2992.000
2805.286,3283.000,3099.000,2991.000
2806.682,3232.000,3089.000,2971.000
2808.079,3214.000,3046.000,2944.000
2809.474,3240.000,3101.000,2947.000
2810.870,3204.000,3028.000,2926.000
2812.264,3246.000,3053.000,2998.000
2813.659,3249.000,3028.000,2986.000
2815.054,3262.000,3092.000,2959.000
2816.447,3230.000,3100.000,2973.000
2817.842,3329.000,3077.000,2965.000
2819.235,3259.000,3059.000,2988.000
2820.630,3198.000,3082.000,2996.000
2822.022,3256.000,3131.000,2968.000
2823.416,3295.000,3173.000,2938.000
2824.808,3264.000,3107.000,2987.000
2826.201,3255.000,3112.000,2982.000
2827.593,3162.000,3121.000,3003.000
2828.986,3253.000,3064.000,2961.000
2830.377,3254.000,3116.000,2998.000
2831.768,3286.000,3150.000,3013.000
2833.161,3258.000,3064.000,2977.000
2834.551,3218.000,3055.000,2956.000
2835.943,3207.000,3098.000,2934.000
2837.333,3243.000,3072.000,2981.000
2838.724,3232.000,3059.000,3000.000
2840.113,3254.000,3100.000,3035.000
2841.504,3282.000,3124.000,2992.000
2842.893,3239.000,3076.000,2969.000
2844.282,3241.000,3110.000,2956.000
2845.672,3245.000,3128.000,2986.000
2847.061,3235.000,3047.000,2975.000
2848.450,3245.000,3122.000,3012.000
2849.837,3271.000,3135.000,2936.000
2851.227,3269.000,3075.000,3021.000
2852.614,3231.000,3136.000,2966.000
2854.003,3280.000,3106.000,3007.000
2855.389,3274.000,3138.000,3048.000
2856.776,3336.000,3107.000,2995.000
2858.164,3280.000,3121.000,2997.000
2859.550,3329.000,3139.000,3047.000
2860.937,3307.000,3077.000,3016.000
2862.323,3315.000,3191.000,2982.000
2863.711,3332.000,3177.000,3022.000
2865.095,3351.000,3124.000,3041.000
2866.481,3346.000,3163.000,3068.000
2867.867,3356.000,3196.000,3076.000
2869.252,3335.000,3157.000,3070.000
2870.636,3369.000,3206.000,3056.000
2872.020,3325.000,3193.000,3043.000
2873.406,3306.000,3166.000,3028.000
2874.789,3328.000,3188.000,3069.000
2876.174,3328.000,3152.000,3019.000
2877.557,3308.000,3226.000,3068.000
2878.941,3383.000,3270.000,3026.000
2880.323,3366.000,3181.000,3101.000
2881.707,3361.000,3185.000,3046.000
2883.089,3350.000,3197.000,3130.000
2884.471,3378.000,3181.000,3080.000
2885.854,3295.000,3169.000,3088.000
2887.236,3366.000,3193.000,3125.000
2888.618,3370.000,3216.000,3130.000
2889.998,3410.000,3225.000,3083.000
2891.381,3312.000,3197.000,3061.000
2892.761,3406.000,3192.000,3108.000
2894.143,3378.000,3262.000,3059.000
2895.522,3378.000,3221.000,3083.000
2896.902,3370.000,3185.000,3161.000
2898.284,3372.000,3203.000,3089.000
2899.662,3354.000,3135.000,3045.000
2901.043,3329.000,3146.000,3020.000
2902.421,3383.000,3205.000,3051.000
2903.802,3314.000,3209.000,3079.000
2905.180,3387.000,3254.000,3094.000
2906.558,3312.000,3252.000,3068.000
2907.937,3386.000,3176.000,3117.000
2909.314,3351.000,3178.000,3081.000
2910.692,3406.000,3219.000,3112.000
2912.069,3389.000,3248.000,3089.000
2913.448,3390.000,3290.000,3087.000
2914.825,3377.000,3212.000,3108.000
2916.202,3428.000,3233.000,3098.000
2917.578,3374.000,3268.000,3102.000
2918.955,3394.000,3217.000,3098.000
2920.331,3377.000,3227.000,3105.000
2921.707,3403.000,3186.000,3119.000
2923.083,3401.000,3295.000,3101.000
2924.458,3399.000,3224.000,3146.000
2925.834,3356.000,3260.000,3136.000
2927.208,3409.000,3211.000,3142.000
2928.584,3413.000,3289.000,3136.000
2929.958,3395.000,3229.000,3182.000
2931.333,3371.000,3259.000,3138.000
2932.706,3395.000,3280.000,3166.000
2934.081,3451.000,3241.000,3150.000
2935.454,3365.000,3155.000,3155.000
2936.826,3415.000,3267.000,3158.000
2938.201,3412.000,3281.000,3161.000
2939.573,3454.000,3267.000,3101.000
2940.946,3418.000,3278.000,3162.000
2942.319,3385.000,3233.000,3118.000
2943.691,3418.000,3297.000,3152.000
2945.063,3462.000,3293.000,3209.000
2946.435,3362.000,3270.000,3116.000
2947.805,3391.000,3232.000,3172.000
2949.177,3452.000,3286.000,3128.000
2950.548,3451.000,3295.000,3167.000
2951.918,3420.000,3249.000,3108.000
2953.290,3419.000,3247.000,3111.000
2954.659,3463.000,3230.000,3120.000
2956.030,3462.000,3269.000,3130.000
2957.399,3368.000,3218.000,3185.000
2958.769,3419.000,3258.000,3154.000
2960.138,3435.000,3235.000,3130.000
2961.509,3447.000,3235.000,3150.000
2962.877,3426.000,3259.000,3066.000
2964.244,3403.000,3235.000,3107.000
2965.613,3358.000,3234.000,3131.000
2966.981,3395.000,3244.000,3104.000
2968.350,3385.000,3199.000,3140.000
2969.717,3388.000,3254.000,3113.000
2971.085,3357.000,3211.000,3101.000
2972.452,3440.000,3203.000,3130.000
2973.820,3409.000,3197.000,3143.000
2975.185,3392.000,3237.000,3139.000
2976.552,3438.000,3253.000,3116.000
2977.919,3327.000,3227.000,3074.000
2979.284,3399.000,3206.000,3140.000
2980.651,3304.000,3171.000,3048.000
2982.015,3331.000,3222.000,3102.000
2983.382,3369.000,3229.000,3047.000
2984.746,3335.000,3186.000,3107.000
2986.112,3337.000,3203.000,3041.000
2987.475,3353.000,3141.000,3036.000
2988.840,3370.000,3171.000,2999.000
2990.204,3319.000,3208.000,3109.000
2991.567,3348.000,3139.000,3058.000
2992.932,3417.000,3180.000,3094.000
2994.295,3309.000,3209.000,3085.000
2995.659,3390.000,3205.000,3052.000
2997.021,3331.000,3126.000,3002.000
2998.384,3331.000,3168.000,3069.000
2999.746,3347.000,3127.000,3057.000
3001.109,3315.000,3153.000,3017.000
3002.471,3357.000,3151.000,2979.000
3003.831,3328.000,3164.000,3007.000
3005.195,3331.000,3156.000,3053.000
3006.556,3344.000,3183.000,3020.000
3007.916,3357.000,3161.000,3109.000
3009.277,3303.000,3169.000,3023.000
3010.638,3356.000,3127.000,3051.000
3011.998,3329.000,3160.000,3051.000
3013.358,3272.000,3083.000,3027.000
3014.719,3242.000,3149.000,2978.000
3016.077,3298.000,3124.000,3050.000
3017.438,3337.000,3164.000,3012.000
3018.797,3360.000,3178.000,3043.000
3020.156,3308.000,3134.000,3011.000
3021.514,3315.000,3135.000,2995.000
3022.874,3238.000,3141.000,3005.000
3024.231,3243.000,3174.000,3024.000
3025.590,3277.000,3162.000,3045.000
3026.947,3338.000,3151.000,3018.000
3028.304,3301.000,3178.000,3018.000
3029.662,3308.000,3125.000,2958.000
3031.019,3299.000,3099.000,3049.000
3032.377,3323.000,3153.000,2996.000
3033.733,3301.000,3133.000,3029.000
3035.089,3258.000,3154.000,3037.000
3036.445,3265.000,3159.000,3048.000
3037.801,3301.000,3127.000,3029.000
3039.157,3312.000,3106.000,3030.000
3040.512,3294.000,3084.000,3030.000
3041.868,3312.000,3144.000,2972.000
3043.222,3269.000,3203.000,3051.000
3044.578,3290.000,3152.000,2998.000
3045.932,3278.000,3153.000,3051.000
3047.287,3294.000,3105.000,3001.000
3048.640,3283.000,3156.000,3002.000
3049.995,3247.000,3084.000,2981.000
3051.348,3276.000,3110.000,3069.000
3052.700,3324.000,3124.000,3024.000
3054.054,3291.000,3143.000,3015.000
3055.407,3282.000,3171.000,3013.000
3056.760,3307.000,3140.000,3040.000
3058.112,3278.000,3177.000,3055.000
3059.465,3277.000,3136.000,2980.000
3060.817,3378.000,3149.000,3021.000
3062.168,3286.000,3115.000,3003.000
3063.520,3312.000,3133.000,3054.000
3064.872,3296.000,3132.000,2992.000
3066.222,3297.000,3152.000,3007.000
3067.572,3311.000,3187.000,2992.000
3068.924,3281.000,3131.000,2980.000
3070.273,3303.000,3116.000,2971.000
3071.625,3247.000,3182.000,3058.000
3072.974,3316.000,3112.000,3011.000
3074.324,3275.000,3158.000,3072.000
3075.673,3297.000,3116.000,3042.000
3077.023,3293.000,3066.000,3097.000
3078.371,3256.000,3117.000,3003.000
3079.719,3328.000,3131.000,3044.000
3081.068,3224.000,3180.000,2999.000
3082.416,3291.000,3082.000,3058.000
3083.765,3252.000,3134.000,2986.000
3085.113,3309.000,3111.000,2978.000
3086.461,3243.000,3099.000,2975.000
3087.808,3253.000,3172.000,3023.000
3089.156,3287.000,3046.000,3013.000
3090.502,3328.000,3136.000,3029.000
3091.847,3314.000,3136.000,3000.000
3093.194,3297.000,3046.000,3050.000
3094.540,3283.000,3114.000,3006.000
3095.887,3281.000,3094.000,2995.000
3097.231,3262.000,3106.000,2967.000
3098.578,3245.000,3169.000,3029.000
3099.923,3262.000,3101.000,3058.000
3101.269,3273.000,3101.000,2973.000
3102.613,3279.000,3124.000,2998.000
3103.957,3258.000,3102.000,2978.000
3105.303,3263.000,3110.000,2995.000
3106.646,3283.000,3144.000,3015.000
3107.991,3222.000,3108.000,2963.000
3109.333,3253.000,3059.000,2995.000
3110.677,3203.000,3120.000,2956.000
3112.020,3223.000,3117.000,2961.000
3113.363,3237.000,3101.000,3000.000
3114.705,3255.000,3065.000,2946.000
3116.049,3230.000,3059.000,3025.000
3117.391,3270.000,3064.000,2991.000
3118.732,3271.000,3097.000,2966.000
3120.075,3227.000,3102.000,2945.000
3121.416,3238.000,3110.000,2975.000
3122.758,3299.000,3063.000,3034.000
3124.098,3222.000,3040.000,3006.000
3125.440,3273.000,3068.000,2967.000
3126.780,3267.000,3085.000,2975.000
3128.121,3242.000,3047.000,3014.000
3129.461,3283.000,3081.000,3028.000
3130.800,3538.000,3067.000,3003.000
3132.141,3277.000,3106.000,2946.000
3133.480,3228.000,3130.000,2993.000
3134.820,3201.000,3035.000,2964.000
3136.158,3195.000,3080.000,2984.000
3137.497,3226.000,3076.000,2950.000
3138.836,3265.000,3067.000,2952.000
3140.175,3235.000,3042.000,2979.000
3141.512,3273.000,3068.000,2952.000
3142.850,3222.000,3008.000,2956.000
3144.188,3202.000,3061.000,2913.000
3145.525,3216.000,3042.000,2966.000
3146.863,3208.000,3074.000,2976.000
3148.199,3235.000,3100.000,3008.000
3149.537,3182.000,3079.000,2999.000
3150.873,3203.000,3044.000,2966.000
3152.210,3216.000,3069.000,2961.000
3153.545,3215.000,3071.000,3003.000
3154.883,3199.000,3100.000,2970.000
3156.217,3228.000,3084.000,3048.000
3157.552,3165.000,3109.000,2954.000
3158.887,3202.000,3046.000,2933.000
3160.223,3149.000,3009.000,2961.000
3161.558,3182.000,3035.000,2939.000
3162.892,3215.000,3041.000,2956.000
3164.226,3121.000,3036.000,2924.000
3165.560,3171.000,3055.000,2958.000
3166.894,3142.000,3108.000,2936.000
3168.227,3191.000,2988.000,2895.000
3169.560,3203.000,3069.000,2933.000
3170.894,3204.000,3068.000,2945.000
3172.226,3211.000,3008.000,2911.000
3173.560,3181.000,2978.000,2929.000
3174.892,3163.000,2964.000,2963.000
3176.225,3166.000,3007.000,2926.000
3177.556,3226.000,3028.000,2942.000
3178.889,3149.000,3060.000,2970.000
3180.219,3214.000,3023.000,2932.000
3181.550,3168.000,3076.000,2929.000
3182.882,3152.000,3068.000,2915.000
3184.212,3185.000,3028.000,2879.000
3185.544,3157.000,3012.000,2942.000
3186.874,3211.000,3078.000,2903.000
3188.204,3135.000,3025.000,2974.000
3189.534,3198.000,3070.000,2947.000
3190.864,3232.000,3008.000,2950.000
3192.193,3159.000,3003.000,2911.000
3193.522,3192.000,2969.000,2895.000
3194.852,3121.000,2990.000,2914.000
3196.180,3159.000,3033.000,2927.000
3197.509,3184.000,3009.000,2930.000
3198.836,3175.000,3060.000,2883.000
3200.166,3197.000,3056.000,2927.000
3201.493,3163.000,2992.000,2876.000
3202.821,3204.000,3029.000,2905.000
3204.148,3167.000,3044.000,2850.000
3205.477,3177.000,3056.000,2939.000
3206.803,3185.000,2969.000,2931.000
3208.129,3188.000,3052.000,2959.000
3209.456,3168.000,2973.000,2878.000
3210.782,3156.000,2993.000,2922.000
3212.109,3160.000,3075.000,2968.000
3213.434,3234.000,3008.000,2870.000
3214.761,3163.000,3004.000,2890.000
3216.086,3114.000,2976.000,2941.000
3217.412,3188.000,3027.000,2938.000
3218.735,3138.000,3034.000,2907.000
3220.060,3155.000,3019.000,2880.000
3221.385,3184.000,3000.000,2900.000
3222.709,3171.000,3021.000,2898.000
3224.033,3140.000,3070.000,2903.000
3225.357,3182.000,3031.000,2881.000
3226.682,3194.000,3002.000,2893.000
3228.004,3158.000,2993.000,2943.000
3229.328,3107.000,3003.000,2877.000
3230.650,3174.000,2968.000,2904.000
3231.973,3120.000,3066.000,2869.000
3233.295,3115.000,3009.000,2950.000
3234.618,3185.000,2959.000,2850.000
3235.940,3160.000,2972.000,2896.000
3237.262,3137.000,3018.000,2906.000
3238.584,3162.000,3047.000,2946.000
3239.904,3193.000,2952.000,2883.000
3241.227,3154.000,2957.000,2893.000
3242.547,3177.000,2978.000,2955.000
3243.868,3167.000,2966.000,2904.000
3245.188,3118.000,3039.000,2905.000
3246.507,3168.000,3011.000,2945.000
3247.829,3133.000,2948.000,2968.000
3249.148,3085.000,3040.000,2923.000
3250.468,3172.000,3009.000,2881.000
3251.787,3187.000,2971.000,2894.000
3253.107,3161.000,3032.000,2934.000
3254.425,3213.000,2962.000,2859.000
3255.745,3142.000,2995.000,2887.000
3257.063,3072.000,3012.000,2910.000
3258.381,3150.000,2988.000,2928.000
3259.698,3112.000,3020.000,2831.000
3261.016,3103.000,3025.000,2944.000
3262.334,3108.000,2976.000,2859.000
3263.651,3193.000,2952.000,2948.000
3264.969,3144.000,2979.000,2883.000
3266.285,3090.000,2971.000,2860.000
3267.603,3139.000,2933.000,2922.000
3268.918,3098.000,3018.000,2909.000
3270.234,3107.000,2990.000,2852.000
3271.551,3203.000,3000.000,2930.000
3272.866,3180.000,3025.000,2910.000
3274.183,3114.000,3000.000,2918.000
3275.497,3211.000,3026.000,2926.000
3276.813,3143.000,3019.000,2900.000
3278.127,3109.000,2970.000,2844.000
3279.442,3101.000,2985.000,2945.000
3280.757,3087.000,3009.000,2917.000
3282.070,3139.000,3021.000,2851.000
3283.385,3144.000,2991.000,2895.000
3284.699,3156.000,3008.000,2897.000
3286.013,3109.000,2993.000,2975.000
3287.325,3156.000,2966.000,2884.000
3288.639,3167.000,3002.000,2871.000
3289.951,3079.000,3025.000,2933.000
3291.264,3139.000,2996.000,2829.000
3292.576,3184.000,3019.000,2862.000
3293.890,3076.000,2994.000,2928.000
3295.200,3138.000,3036.000,2900.000
3296.512,3107.000,3018.000,2893.000
3297.824,3130.000,3034.000,2904.000
3299.135,3134.000,3002.000,2865.000
3300.447,3144.000,2994.000,2869.000
3301.757,3099.000,2973.000,2908.000
3303.069,3127.000,2975.000,2922.000
3304.379,3139.000,2987.000,2895.000
3305.689,3113.000,3012.000,2915.000
3306.999,3087.000,2939.000,2885.000
3308.308,3120.000,2911.000,2829.000
3309.618,3113.000,3033.000,2903.000
3310.927,3160.000,2954.000,2921.000
3312.237,3109.000,3047.000,2850.000
3313.545,3113.000,2960.000,2917.000
3314.855,3120.000,2997.000,2856.000
3316.162,3146.000,2945.000,2895.000
3317.472,3133.000,2967.000,2911.000
3318.779,3151.000,3014.000,2893.000
3320.087,3129.000,2974.000,2883.000
3321.395,3102.000,2942.000,2870.000
3322.701,3144.000,2997.000,2860.000
3324.010,3150.000,2948.000,2898.000
3325.316,3198.000,2943.000,2891.000
3326.623,3117.000,3012.000,2919.000
3327.928,3107.000,3010.000,2910.000
3329.236,3143.000,3019.000,2866.000
3330.542,3096.000,3034.000,2827.000
3331.848,3103.000,2939.000,2829.000
3333.153,3162.000,2953.000,2852.000
3334.458,3148.000,2986.000,2915.000
3335.763,3084.000,3062.000,2911.000
3337.068,3111.000,3042.000,2877.000
3338.373,3134.000,3011.000,2868.000
3339.677,3132.000,2996.000,2869.000
3340.982,3112.000,2980.000,2897.000
3342.286,3105.000,2967.000,2903.000
3343.591,3106.000,2947.000,2900.000
3344.893,3141.000,3076.000,2885.000
3346.196,3087.000,3028.000,2898.000
3347.500,3118.000,2998.000,2919.000
3348.803,3176.000,2971.000,2909.000
3350.105,3138.000,2980.000,2880.000
3351.408,3169.000,2943.000,2858.000
3352.711,3074.000,3009.000,2913.000
3354.012,3116.000,3023.000,2899.000
3355.315,3109.000,3020.000,2886.000
3356.615,3081.000,2943.000,2848.000
3357.917,3113.000,3022.000,2809.000
3359.218,3072.000,2961.000,2913.000
3360.519,3109.000,3024.000,2895.000
3361.820,3136.000,2998.000,2863.000
3363.121,3116.000,2966.000,2914.000
3364.421,3109.000,2966.000,2880.000
3365.721,3057.000,2992.000,2883.000
3367.022,3142.000,2935.000,2909.000
3368.321,3143.000,2959.000,2931.000
3369.619,3141.000,2943.000,2834.000
3370.919,3157.000,2958.000,2853.000
3372.217,3119.000,2926.000,2875.000
3373.518,3102.000,3015.000,2850.000
3374.815,3124.000,2959.000,2855.000
3376.114,3120.000,2962.000,2896.000
3377.412,3132.000,2944.000,2881.000
3378.711,3004.000,2958.000,2872.000
3380.008,3099.000,2960.000,2892.000
3381.306,3134.000,2930.000,2898.000
3382.603,3037.000,2932.000,2849.000
3383.898,3083.000,2982.000,2903.000
3385.196,3107.000,2970.000,2853.000
3386.492,3173.000,2937.000,2904.000
3387.789,3127.000,2957.000,2861.000
3389.085,3077.000,2961.000,2903.000
3390.382,3097.000,2985.000,2866.000
3391.677,3103.000,2945.000,2879.000
3392.973,3056.000,2896.000,2877.000
3394.268,3124.000,3003.000,2862.000
3395.562,3085.000,2966.000,2884.000
3396.858,3104.000,2922.000,2885.000
3398.152,3125.000,2959.000,2903.000
3399.447,3092.000,2964.000,2872.000
3400.740,3108.000,2982.000,2893.000
3402.036,3082.000,3041.000,2843.000
3403.328,3088.000,2964.000,2851.000
3404.623,3038.000,2907.000,2834.000
3405.916,3143.000,2927.000,2794.000
3407.208,3071.000,2927.000,2894.000
3408.502,3050.000,2971.000,2849.000
3409.794,3053.000,2955.000,2905.000
3411.087,3072.000,2952.000,2820.000
3412.378,3088.000,2884.000,2903.000
3413.672,3105.000,2930.000,2885.000
3414.963,3104.000,2970.000,2876.000
3416.255,3060.000,2961.000,2874.000
3417.546,3086.000,2895.000,2888.000
3418.838,3063.000,2924.000,2835.000
3420.128,3092.000,2905.000,2872.000
3421.418,3082.000,2980.000,2867.000
3422.709,3033.000,2925.000,2860.000
3423.999,3048.000,2938.000,2890.000
3425.290,3043.000,2883.000,2826.000
3426.579,3030.000,2964.000,2877.000
3427.870,3021.000,2960.000,2821.000
3429.158,2988.000,2889.000,2802.000
3430.448,3074.000,2929.000,2843.000
3431.737,3052.000,2930.000,2823.000
3433.025,3037.000,2918.000,2835.000
3434.314,3025.000,2894.000,2857.000
3435.602,3023.000,2906.000,2855.000
3436.891,3006.000,2923.000,2832.000
3438.178,3005.000,2879.000,2830.000
3439.467,3005.000,2896.000,2820.000
3440.753,3038.000,2884.000,2816.000
3442.041,3051.000,2915.000,2835.000
3443.327,2996.000,2891.000,2808.000
3444.614,3061.000,2891.000,2827.000
3445.901,2984.000,2887.000,2785.000
3447.188,2997.000,2899.000,2780.000
3448.474,2979.000,2931.000,2822.000
3449.759,2985.000,2887.000,2803.000
3451.046,3003.000,2885.000,2816.000
3452.331,3012.000,2859.000,2750.000
3453.617,2943.000,2868.000,2764.000
3454.901,2983.000,2893.000,2858.000
3456.185,3021.000,2929.000,2804.000
3457.472,3042.000,2838.000,2824.000
3458.755,3012.000,2946.000,2832.000
3460.040,2945.000,2866.000,2816.000
3461.324,3037.000,2913.000,2778.000
3462.608,2972.000,2916.000,2801.000
3463.891,3027.000,2886.000,2772.000
3465.175,2985.000,2831.000,2798.000
3466.458,3049.000,2888.000,2756.000
3467.740,2992.000,2897.000,2764.000
3469.024,2976.000,2906.000,2776.000
3470.305,3007.000,2847.000,2789.000
3471.588,2958.000,2833.000,2777.000
3472.870,2981.000,2825.000,2743.000
3474.153,3015.000,2850.000,2778.000
3475.433,3031.000,2849.000,2776.000
3476.716,3000.000,2866.000,2768.000
3477.997,2990.000,2840.000,2746.000
3479.279,2984.000,2814.000,2761.000
3480.559,2993.000,2857.000,2787.000
3481.839,2997.000,2845.000,2758.000
3483.120,2947.000,2812.000,2804.000
3484.400,2913.000,2790.000,2742.000
3485.680,2921.000,2845.000,2721.000
3486.960,3010.000,2855.000,2806.000
3488.239,2963.000,2787.000,2705.000
3489.519,2938.000,2835.000,2754.000
3490.798,2971.000,2923.000,2734.000
3492.076,3023.000,2828.000,2693.000
3493.354,2968.000,2770.000,2738.000
3494.634,2948.000,2847.000,2756.000
3495.911,2938.000,2825.000,2705.000
3497.190,2928.000,2806.000,2771.000
3498.467,2997.000,2865.000,2772.000
3499.746,2983.000,2872.000,2743.000
3501.023,2958.000,2848.000,2749.000
3502.300,2920.000,2827.000,2771.000
3503.577,2909.000,2838.000,2726.000
3504.854,2946.000,2787.000,2687.000
3506.130,2981.000,2870.000,2729.000
3507.406,2970.000,2807.000,2788.000
3508.683,2963.000,2822.000,2693.000
3509.958,2896.000,2854.000,2731.000
3511.235,2923.000,2792.000,2702.000
3512.509,2947.000,2819.000,2798.000
3513.785,2910.000,2853.000,2714.000
3515.060,2979.000,2840.000,2756.000
3516.336,2999.000,2830.000,2749.000
3517.610,2886.000,2807.000,2721.000
3518.883,2944.000,2804.000,2689.000
3520.158,2923.000,2801.000,2685.000
3521.431,2959.000,2797.000,2721.000
3522.706,2923.000,2845.000,2707.000
3523.979,2924.000,2798.000,2761.000
3525.253,2913.000,2771.000,2730.000
3526.526,2902.000,2811.000,2720.000
3527.799,2956.000,2843.000,2691.000
3529.072,2937.000,2730.000,2717.000
3530.343,2946.000,2809.000,2675.000
3531.617,2913.000,2785.000,2724.000
3532.888,2949.000,2819.000,2685.000
3534.160,2873.000,2716.000,2693.000
3535.432,2864.000,2824.000,2736.000
3536.704,2952.000,2861.000,2718.000
3537.974,2880.000,2833.000,2675.000
3539.246,2900.000,2805.000,2720.000
3540.517,2951.000,2789.000,2745.000
3541.787,2921.000,2800.000,2698.000
3543.058,2899.000,2791.000,2680.000
3544.327,2912.000,2798.000,2691.000
3545.598,2913.000,2775.000,2646.000
3546.867,2897.000,2799.000,2735.000
3548.137,2936.000,2818.000,2664.000
3549.406,2899.000,2775.000,2694.000
3550.676,2846.000,2807.000,2678.000
3551.944,2881.000,2800.000,2643.000
3553.212,2897.000,2793.000,2663.000
3554.482,2903.000,2732.000,2707.000
3555.748,2848.000,2770.000,2698.000
3557.017,2877.000,2816.000,2711.000
3558.285,2852.000,2772.000,2680.000
3559.553,2850.000,2740.000,2677.000
3560.821,2889.000,2732.000,2701.000
3562.088,2954.000,2795.000,2721.000
3563.355,2884.000,2879.000,2691.000
3564.623,2894.000,2798.000,2699.000
3565.888,2868.000,2786.000,2706.000
3567.154,2870.000,2756.000,2608.000
3568.421,2852.000,2789.000,2694.000
3569.686,2921.000,2771.000,2673.000
3570.952,2869.000,2764.000,2742.000
3572.218,2889.000,2794.000,2724.000
3573.483,2923.000,2741.000,2679.000
3574.749,2924.000,2800.000,2727.000
3576.014,2872.000,2718.000,2647.000
3577.278,2888.000,2784.000,2755.000
3578.541,2908.000,2808.000,2661.000
3579.807,2883.000,2765.000,2653.000
3581.070,2894.000,2772.000,2626.000
3582.335,2883.000,2723.000,2662.000
3583.597,2903.000,2757.000,2674.000
3584.862,2896.000,2754.000,2681.000
3586.125,2828.000,2726.000,2642.000
3587.389,2876.000,2743.000,2690.000
3588.651,2819.000,2770.000,2694.000
3589.914,2879.000,2719.000,2695.000
3591.176,2882.000,2725.000,2655.000
3592.437,2903.000,2723.000,2639.000
3593.700,2861.000,2800.000,2675.000
3594.961,2849.000,2731.000,2658.000
3596.224,2851.000,2727.000,2655.000
3597.484,2863.000,2794.000,2693.000
3598.746,2871.000,2740.000,2665.000
3600.006,2816.000,2780.000,2648.000
3601.268,2897.000,2753.000,2652.000
3602.528,2857.000,2788.000,2685.000
3603.787,2896.000,2798.000,2700.000
3605.048,2934.000,2753.000,2682.000
3606.308,2889.000,2737.000,2712.000
3607.568,2922.000,2747.000,2704.000
3608.827,2847.000,2743.000,2683.000
3610.086,2891.000,2757.000,2627.000
3611.345,2824.000,2694.000,2667.000
3612.604,2891.000,2815.000,2652.000
3613.863,2891.000,2710.000,2662.000
3615.120,2838.000,2755.000,2659.000
3616.380,2861.000,2742.000,2700.000
3617.637,2836.000,2757.000,2660.000
3618.896,2801.000,2733.000,2687.000
3620.153,2855.000,2719.000,2681.000
3621.410,2837.000,2760.000,2693.000
3622.667,2856.000,2676.000,2670.000
3623.925,2803.000,2749.000,2665.000
3625.181,2841.000,2755.000,2615.000
3626.437,2849.000,2743.000,2687.000
3627.694,2879.000,2771.000,2688.000
3628.949,2821.000,2703.000,2666.000
3630.206,2881.000,2766.000,2617.000
3631.461,2823.000,2762.000,2685.000
3632.718,2916.000,2711.000,2680.000
3633.972,2830.000,2778.000,2644.000
3635.227,2846.000,2669.000,2620.000
3636.482,2851.000,2693.000,2627.000
3637.736,2849.000,2716.000,2631.000
3638.991,2837.000,2758.000,2631.000
3640.245,2843.000,2728.000,2676.000
3641.500,2869.000,2725.000,2635.000
3642.753,2822.000,2724.000,2653.000
3644.007,2805.000,2695.000,2633.000
3645.260,2805.000,2744.000,2647.000
3646.514,2815.000,2732.000,2686.000
3647.767,2810.000,2709.000,2623.000
3649.019,2794.000,2655.000,2605.000
3650.272,2811.000,2703.000,2631.000
3651.523,2798.000,2721.000,2645.000
3652.777,2813.000,2730.000,2656.000
3654.029,2840.000,2688.000,2650.000
3655.281,2770.000,2655.000,2626.000
3656.531,2819.000,2676.000,2602.000
3657.784,2837.000,2709.000,2637.000
3659.034,2862.000,2617.000,2634.000
3660.286,2807.000,2729.000,2657.000
3661.536,2793.000,2699.000,2707.000
3662.786,2827.000,2735.000,2605.000
3664.037,2864.000,2776.000,2590.000
3665.286,2810.000,2698.000,2676.000
3666.537,2815.000,2685.000,2674.000
3667.786,2814.000,2725.000,2662.000
3669.037,2808.000,2701.000,2677.000
3670.285,2796.000,2725.000,2612.000
3671.535,2818.000,2672.000,2600.000
3672.783,2840.000,2657.000,2657.000
3674.032,2827.000,2676.000,2603.000
3675.280,2786.000,2705.000,2631.000
3676.528,2809.000,2660.000,2597.000
3677.777,2795.000,2633.000,2571.000
3679.024,2805.000,2687.000,2640.000
3680.272,2838.000,2654.000,2611.000
3681.519,2757.000,2635.000,2633.000
3682.767,2789.000,2648.000,2589.000
3684.014,2733.000,2717.000,2611.000
3685.262,2819.000,2676.000,2599.000
3686.507,2781.000,2669.000,2597.000
3687.753,2834.000,2662.000,2643.000
3689.000,2787.000,2657.000,2569.000
3690.245,2789.000,2691.000,2633.000
3691.492,2735.000,2689.000,2639.000
3692.737,2807.000,2643.000,2588.000
3693.983,2796.000,2646.000,2594.000
3695.228,2784.000,2693.000,2590.000
3696.474,2796.000,2676.000,2607.000
3697.717,2779.000,2701.000,2582.000
3698.961,2788.000,2628.000,2518.000
3700.206,2808.000,2647.000,2607.000
3701.450,2752.000,2634.000,2544.000
3702.695,2728.000,2663.000,2554.000
3703.938,2779.000,2627.000,2543.000
3705.181,2715.000,2637.000,2610.000
3706.425,2771.000,2634.000,2553.000
3707.668,2791.000,2682.000,2541.000
3708.911,2731.000,2663.000,2553.000
3710.152,2767.000,2597.000,2593.000
3711.396,2751.000,2637.000,2641.000
3712.638,2780.000,2686.000,2555.000
3713.881,2735.000,2619.000,2583.000
3715.122,2714.000,2687.000,2592.000
3716.364,2756.000,2618.000,2508.000
3717.605,2763.000,2619.000,2550.000
3718.847,2765.000,2622.000,2595.000
3720.087,2762.000,2603.000,2548.000
3721.328,2744.000,2618.000,2547.000
3722.569,2725.000,2656.000,2590.000
3723.809,2656.000,2605.000,2550.000
3725.050,2681.000,2598.000,2562.000
3726.290,2740.000,2592.000,2557.000
3727.531,2742.000,2632.000,2536.000
3728.769,2714.000,2596.000,2597.000
3730.009,2701.000,2599.000,2511.000
3731.248,2687.000,2638.000,2522.000
3732.487,2743.000,2584.000,2516.000
3733.726,2752.000,2597.000,2553.000
3734.964,2744.000,2648.000,2532.000
3736.204,2753.000,2620.000,2545.000
3737.441,2753.000,2651.000,2539.000
3738.680,2713.000,2614.000,2596.000
3739.917,2712.000,2636.000,2510.000
3741.155,2671.000,2646.000,2532.000
3742.392,2722.000,2627.000,2548.000
3743.630,2727.000,2645.000,2537.000
3744.866,2713.000,2566.000,2553.000
3746.103,2710.000,2618.000,2524.000
3747.340,2709.000,2630.000,2513.000
3748.575,2739.000,2623.000,2527.000
3749.813,2727.000,2529.000,2529.000
3751.048,2709.000,2595.000,2484.000
3752.284,2749.000,2580.000,2517.000
3753.519,2695.000,2625.000,2452.000
3754.756,2699.000,2640.000,2573.000
3755.990,2730.000,2607.000,2527.000
3757.226,2705.000,2596.000,2482.000
3758.460,2689.000,2529.000,2546.000
3759.694,2683.000,2629.000,2446.000
3760.929,2727.000,2567.000,2540.000
3762.162,2707.000,2555.000,2542.000
3763.397,2708.000,2627.000,2525.000
3764.630,2697.000,2622.000,2483.000
3765.864,2722.000,2609.000,2516.000
3767.097,2708.000,2605.000,2507.000
3768.331,2733.000,2566.000,2563.000
3769.564,2662.000,2566.000,2499.000
3770.795,2678.000,2577.000,2446.000
3772.029,2715.000,2572.000,2516.000
3773.261,2694.000,2655.000,2517.000
3774.494,2684.000,2584.000,2517.000
3775.724,2735.000,2579.000,2536.000
3776.957,2675.000,2584.000,2478.000
3778.188,2663.000,2548.000,2487.000
3779.421,2657.000,2594.000,2536.000
3780.651,2672.000,2534.000,2507.000
3781.882,2675.000,2545.000,2485.000
3783.112,2678.000,2563.000,2475.000
3784.343,2662.000,2584.000,2548.000
3785.573,2643.000,2579.000,2477.000
3786.803,2642.000,2568.000,2471.000
3788.034,2676.000,2543.000,2485.000
3789.262,2694.000,2554.000,2469.000
3790.493,2640.000,2571.000,2466.000
3791.722,2629.000,2571.000,2463.000
3792.950,2676.000,2542.000,2462.000
3794.180,2621.000,2519.000,2480.000
3795.408,2652.000,2573.000,2453.000
3796.637,2619.000,2517.000,2464.000
3797.865,2709.000,2562.000,2417.000
3799.094,2639.000,2606.000,2482.000
3800.321,2653.000,2513.000,2511.000
3801.550,2648.000,2504.000,2442.000
3802.776,2656.000,2509.000,2420.000
3804.003,2634.000,2454.000,2471.000
3805.231,2660.000,2557.000,2448.000
3806.457,2661.000,2521.000,2453.000
3807.685,2625.000,2496.000,2455.000
3808.911,2665.000,2489.000,2441.000
3810.138,2615.000,2531.000,2441.000
3811.363,2621.000,2515.000,2468.000
3812.590,2632.000,2531.000,2423.000
3813.814,2667.000,2507.000,2480.000
3815.039,2604.000,2460.000,2439.000
3816.266,2592.000,2550.000,2411.000
3817.490,2597.000,2490.000,2452.000
3818.715,2608.000,2464.000,2403.000
3819.940,2593.000,2500.000,2405.000
3821.165,2631.000,2535.000,2422.000
3822.388,2588.000,2523.000,2450.000
3823.613,2572.000,2489.000,2409.000
3824.837,2593.000,2484.000,2414.000
3826.061,2592.000,2481.000,2412.000
3827.284,2612.000,2482.000,2403.000
3828.507,2593.000,2529.000,2426.000
3829.731,2624.000,2493.000,2369.000
3830.953,2579.000,2486.000,2381.000
3832.177,2594.000,2536.000,2437.000
3833.398,2574.000,2501.000,2367.000
3834.621,2561.000,2524.000,2381.000
3835.842,2523.000,2507.000,2419.000
3837.065,2581.000,2490.000,2394.000
3838.286,2539.000,2479.000,2400.000
3839.508,2573.000,2439.000,2349.000
3840.730,2573.000,2495.000,2405.000
3841.950,2545.000,2491.000,2384.000
3843.172,2538.000,2469.000,2386.000
3844.392,2594.000,2443.000,2463.000
3845.613,2546.000,2482.000,2345.000
3846.832,2552.000,2439.000,2361.000
3848.053,2531.000,2478.000,2409.000
3849.272,2536.000,2463.000,2349.000
3850.493,2538.000,2456.000,2415.000
3851.712,2539.000,2435.000,2361.000
3852.931,2538.000,2418.000,2381.000
3854.150,2555.000,2467.000,2418.000
3855.369,2540.000,2460.000,2364.000
3856.588,2541.000,2467.000,2404.000
3857.807,2616.000,2444.000,2379.000
3859.025,2569.000,2471.000,2386.000
3860.243,2553.000,2424.000,2363.000
3861.461,2517.000,2457.000,2329.000
3862.679,2574.000,2415.000,2381.000
3863.895,2506.000,2459.000,2368.000
3865.113,2598.000,2424.000,2402.000
3866.329,2540.000,2432.000,2409.000
3867.547,2524.000,2431.000,2332.000
3868.764,2614.000,2395.000,2366.000
3869.981,2562.000,2447.000,2391.000
3871.197,2521.000,2471.000,2342.000
3872.413,2554.000,2447.000,2324.000
3873.629,2523.000,2407.000,2349.000
3874.844,2519.000,2437.000,2357.000
3876.060,2562.000,2498.000,2382.000
3877.275,2509.000,2451.000,2367.000
3878.490,2509.000,2404.000,2399.000
3879.705,2547.000,2375.000,2380.000
3880.921,2515.000,2407.000,2387.000
3882.134,2542.000,2437.000,2365.000
3883.349,2517.000,2459.000,2308.000
3884.563,2516.000,2404.000,2427.000
3885.776,2474.000,2441.000,2344.000
3886.991,2491.000,2414.000,2317.000
3888.204,2520.000,2402.000,2402.000
3889.418,2518.000,2414.000,2317.000
3890.630,2493.000,2403.000,2330.000
3891.844,2530.000,2422.000,2295.000
3893.056,2518.000,2389.000,2373.000
3894.269,2504.000,2377.000,2307.000
3895.481,2513.000,2390.000,2350.000
3896.693,2547.000,2381.000,2367.000
3897.906,2500.000,2398.000,2333.000
3899.117,2494.000,2404.000,2319.000
3900.328,2476.000,2410.000,2353.000
3901.540,2505.000,2374.000,2265.000
3902.752,2491.000,2409.000,2368.000
3903.962,2480.000,2386.000,2357.000
3905.174,2459.000,2368.000,2291.000
3906.383,2483.000,2390.000,2331.000
3907.595,2512.000,2382.000,2296.000
3908.805,2479.000,2454.000,2367.000
3910.014,2480.000,2357.000,2298.000
3911.224,2455.000,2404.000,2305.000
3912.433,2498.000,2403.000,2293.000
3913.643,2443.000,2389.000,2370.000
3914.852,2916.000,2363.000,2315.000
3916.062,3006.000,2323.000,2319.000
3917.270,2438.000,2378.000,2314.000
3918.479,2466.000,2386.000,2272.000
3919.687,2441.000,2359.000,2318.000
3920.897,2509.000,2343.000,2369.000
3922.104,2469.000,2355.000,2298.000
3923.311,2498.000,2348.000,2274.000
3924.520,2494.000,2376.000,2278.000
3925.726,2497.000,2399.000,2354.000
3926.934,2483.000,2344.000,2334.000
3928.140,2490.000,2406.000,2335.000
3929.348,2472.000,2333.000,2318.000
3930.554,2441.000,2361.000,2303.000
3931.762,2409.000,2353.000,2333.000
3932.967,2451.000,2384.000,2311.000
3934.173,2483.000,2358.000,2320.000
3935.379,2436.000,2394.000,2330.000
3936.584,2458.000,2370.000,2264.000
3937.791,2495.000,2393.000,2277.000
3938.995,2478.000,2381.000,2303.000
3940.201,2435.000,2402.000,2302.000
3941.406,2451.000,2359.000,2289.000
3942.610,2433.000,2343.000,2303.000
3943.814,2530.000,2373.000,2323.000
3945.018,2496.000,2377.000,2301.000
3946.223,2406.000,2342.000,2283.000
3947.427,2431.000,2355.000,2301.000
3948.630,2428.000,2356.000,2273.000
3949.834,2457.000,2354.000,2277.000
3951.038,2425.000,2382.000,2298.000
3952.240,2479.000,2387.000,2323.000
3953.444,2432.000,2393.000,2301.000
3954.647,2440.000,2359.000,2265.000
3955.848,2445.000,2338.000,2291.000
3957.052,2437.000,2320.000,2328.000
3958.253,2401.000,2353.000,2265.000
3959.456,2430.000,2350.000,2267.000
3960.657,2407.000,2353.000,2295.000
3961.859,2433.000,2368.000,2237.000
3963.060,2425.000,2345.000,2228.000
3964.261,2440.000,2371.000,2345.000
3965.462,2423.000,2311.000,2304.000
3966.662,2438.000,2335.000,2296.000
3967.863,2428.000,2322.000,2273.000
3969.064,2410.000,2356.000,2302.000
3970.265,2466.000,2350.000,2289.000
3971.464,2466.000,2367.000,2295.000
3972.664,2428.000,2297.000,2231.000
3973.863,2465.000,2339.000,2303.000
3975.064,2374.000,2340.000,2291.000
3976.263,2392.000,2340.000,2287.000
3977.461,2441.000,2313.000,2202.000
3978.661,2421.000,2291.000,2253.000
3979.859,2451.000,2312.000,2292.000
3981.058,2402.000,2352.000,2271.000
3982.256,2438.000,2346.000,2303.000
3983.454,2422.000,2360.000,2298.000
3984.652,2398.000,2365.000,2297.000
3985.849,2384.000,2359.000,2250.000
3987.047,2451.000,2321.000,2286.000
3988.245,2406.000,2296.000,2270.000
3989.441,2389.000,2378.000,2281.000