File: Raman/Silica/2025_09_09_8pct_Hydrated_SiO2_Glass_50X_532nm_74mW_Andor750_600gv_1030wn_6accum_30s_Pol_Loc1.csv
23.130,7396.000,7336.000,7379.000,7331.000,7273.000,7370.000
27.007,6981.000,7053.000,6976.000,6981.000,6942.000,6975.000
30.879,7359.000,7323.000,7289.000,7269.000,7388.000,7345.000
34.751,7806.000,7867.000,7780.000,7763.000,7741.000,7779.000
38.619,8399.000,8303.000,8277.000,8293.000,8350.000,8240.000
42.489,9050.000,9104.000,8995.000,9002.000,8983.000,8997.000
46.355,9530.000,9612.000,9577.000,9563.000,9610.000,9577.000
50.221,9777.000,9828.000,9650.000,9714.000,9748.000,9631.000
54.083,10124.000,10279.000,10302.000,10230.000,10268.000,10245.000
57.946,10223.000,10102.000,10224.000,10267.000,10213.000,10233.000
61.807,10151.000,10006.000,10165.000,10107.000,10118.000,10161.000
65.665,10200.000,10232.000,10199.000,10362.000,10254.000,10216.000
69.523,10224.000,10123.000,10155.000,10160.000,10183.000,10173.000
73.377,9890.000,9907.000,9808.000,9818.000,9920.000,9875.000
77.233,10127.000,10084.000,10072.000,10037.000,10019.000,9958.000
81.084,9680.000,9717.000,9669.000,9623.000,9648.000,9631.000
84.936,9646.000,9709.000,9795.000,9692.000,9709.000,9593.000
88.784,9520.000,9640.000,9633.000,9591.000,9599.000,9516.000
92.632,9351.000,9290.000,9278.000,9343.000,9369.000,9381.000
96.480,9188.000,9062.000,9008.000,9178.000,9023.000,9138.000
100.323,9261.000,9191.000,9332.000,9073.000,9183.000,9141.000
104.167,8720.000,8716.000,8701.000,8770.000,8786.000,8695.000
108.007,8694.000,8687.000,8733.000,8660.000,8581.000,8690.000
111.848,8674.000,8672.000,8704.000,8736.000,8749.000,8628.000
115.685,8286.000,8252.000,8262.000,8341.000,8254.000,8347.000
119.522,8241.000,8267.000,8138.000,8347.000,8237.000,8244.000
123.359,8223.000,8275.000,8235.000,8213.000,8255.000,8148.000
127.190,7947.000,7877.000,7886.000,7830.000,7871.000,7860.000
131.024,7897.000,7834.000,7877.000,7849.000,7708.000,7794.000
134.853,7791.000,7813.000,7716.000,7720.000,7747.000,7764.000
138.683,7472.000,7392.000,7423.000,7428.000,7422.000,7308.000
142.508,7381.000,7400.000,7403.000,7463.000,7388.000,7385.000
146.335,7367.000,7395.000,7365.000,7400.000,7356.000,7272.000
150.158,7083.000,7115.000,7160.000,6998.000,6951.000,7145.000
153.982,7081.000,7030.000,7054.000,7066.000,7156.000,7031.000
157.804,7058.000,7104.000,7034.000,7043.000,7009.000,7105.000
161.621,6889.000,6862.000,6875.000,6854.000,6861.000,6764.000
165.441,6797.000,6852.000,6793.000,6860.000,6931.000,6820.000
169.256,6860.000,6758.000,6752.000,6733.000,6797.000,6841.000
173.071,6599.000,6561.000,6672.000,6687.000,6620.000,6584.000
176.883,6642.000,6676.000,6695.000,6549.000,6566.000,6620.000
180.696,6652.000,6569.000,6568.000,6579.000,6527.000,6600.000
184.504,6459.000,6401.000,6497.000,6368.000,6375.000,6444.000
188.314,6603.000,6515.000,6638.000,6479.000,6533.000,6539.000
192.122,6493.000,6437.000,6573.000,6471.000,6408.000,6433.000
195.925,6411.000,6424.000,6325.000,6423.000,6432.000,6278.000
199.731,6519.000,6414.000,6456.000,6395.000,6347.000,6459.000
203.532,6471.000,6307.000,6387.000,6467.000,6411.000,6497.000
207.333,6422.000,6372.000,6349.000,6320.000,6263.000,6310.000
211.132,6439.000,6450.000,6444.000,6457.000,6480.000,6381.000
214.929,6389.000,6471.000,6426.000,6393.000,6426.000,6333.000
218.724,6298.000,6356.000,6311.000,6259.000,6279.000,6298.000
222.519,6430.000,6404.000,6394.000,6429.000,6483.000,6386.000
226.313,6430.000,6380.000,6397.000,6411.000,6360.000,6383.000
230.104,6257.000,6382.000,6413.000,6332.000,6284.000,6389.000
233.894,6441.000,6455.000,6427.000,6428.000,6463.000,6479.000
237.681,6502.000,6481.000,6461.000,6424.000,6533.000,6419.000
241.469,6366.000,6482.000,6428.000,6477.000,6361.000,6308.000
245.253,6516.000,6580.000,6554.000,6551.000,6648.000,6666.000
249.038,6545.000,6509.000,6506.000,6566.000,6569.000,6556.000
252.819,6458.000,6531.000,6515.000,6490.000,6485.000,6409.000
256.600,6668.000,6667.000,6710.000,6569.000,6574.000,6672.000
260.380,6593.000,6514.000,6546.000,6650.000,6509.000,6613.000
264.156,6562.000,6601.000,6553.000,6523.000,6584.000,6582.000
267.933,6755.000,6776.000,6693.000,6707.000,6715.000,6741.000
271.707,6752.000,6845.000,6817.000,6705.000,6843.000,6699.000
275.480,6762.000,6725.000,6687.000,6641.000,6750.000,6648.000
279.251,6942.000,6900.000,6948.000,6919.000,6897.000,6980.000
283.021,6939.000,6897.000,6852.000,6914.000,6918.000,6944.000
286.790,6918.000,7006.000,6830.000,6895.000,6969.000,6945.000
290.556,7144.000,7113.000,7122.000,7038.000,7048.000,7064.000
294.322,7151.000,7145.000,7170.000,7125.000,7156.000,7050.000
298.084,7099.000,7061.000,7159.000,7038.000,7090.000,7249.000
301.847,7395.000,7323.000,7279.000,7247.000,7472.000,7306.000
305.607,7365.000,7428.000,7288.000,7370.000,7397.000,7366.000
309.367,7446.000,7469.000,7476.000,7483.000,7349.000,7463.000
313.123,7711.000,7661.000,7790.000,7670.000,7724.000,7682.000
316.880,7750.000,7804.000,7759.000,7760.000,7709.000,7725.000
320.635,7749.000,7719.000,7844.000,7780.000,7749.000,7745.000
324.387,8004.000,7966.000,8007.000,7865.000,7969.000,7903.000
328.139,7949.000,7793.000,7808.000,7786.000,7789.000,7783.000
331.888,7965.000,8029.000,8037.000,7932.000,7908.000,7979.000
335.638,8297.000,8379.000,8255.000,8328.000,8233.000,8230.000
339.384,8407.000,8320.000,8321.000,8395.000,8298.000,8299.000
343.130,8412.000,8405.000,8459.000,8436.000,8359.000,8353.000
346.873,8633.000,8720.000,8612.000,8669.000,8635.000,8637.000
350.616,8779.000,8827.000,8873.000,8745.000,8843.000,8750.000
354.357,8935.000,8776.000,8901.000,8850.000,8858.000,8705.000
358.095,9128.000,9215.000,9049.000,9084.000,9239.000,9108.000
361.835,9319.000,9260.000,9213.000,9345.000,9247.000,9267.000
365.569,9255.000,9271.000,9270.000,9229.000,9250.000,9184.000
369.305,9550.000,9631.000,9625.000,9633.000,9478.000,9471.000
373.037,9529.000,9644.000,9513.000,9534.000,9508.000,9556.000
376.770,9582.000,9597.000,9482.000,9625.000,9732.000,9582.000
380.498,10016.000,9898.000,9967.000,9936.000,9790.000,9864.000
384.228,10043.000,10075.000,10027.000,9993.000,9948.000,10009.000
387.956,10030.000,9930.000,9946.000,9912.000,9931.000,9927.000
391.681,10306.000,10299.000,10342.000,10260.000,10270.000,10133.000
395.405,10409.000,10275.000,10332.000,10360.000,10325.000,10276.000
399.127,10298.000,10293.000,10303.000,10331.000,10213.000,10342.000
402.849,10502.000,10652.000,10619.000,10439.000,10500.000,10415.000
406.567,10587.000,10445.000,10471.000,10618.000,10445.000,10606.000
410.287,10571.000,10681.000,10635.000,10560.000,10519.000,10663.000
414.003,10835.000,10933.000,10944.000,10865.000,10986.000,10934.000
417.719,11016.000,10976.000,10926.000,11093.000,11074.000,11070.000
421.432,10972.000,10984.000,11026.000,11090.000,11081.000,10975.000
425.144,11483.000,11407.000,11494.000,11399.000,11400.000,11467.000
428.855,11604.000,11579.000,11475.000,11638.000,11556.000,11601.000
432.563,11584.000,11699.000,11596.000,11684.000,11546.000,11542.000
436.272,12018.000,11918.000,11812.000,11853.000,11935.000,11928.000
439.977,11976.000,11935.000,12069.000,12023.000,12011.000,12070.000
443.683,12087.000,12123.000,12044.000,12024.000,11958.000,11953.000
447.386,12454.000,12532.000,12514.000,12439.000,12551.000,12401.000
451.087,12582.000,12569.000,12507.000,12530.000,12564.000,12610.000
454.788,12731.000,12801.000,12691.000,12507.000,12652.000,12602.000
458.485,13325.000,13189.000,13205.000,13300.000,13163.000,13256.000
462.183,13469.000,13421.000,13491.000,13500.000,13407.000,13384.000
465.879,13606.000,13683.000,13735.000,13517.000,13524.000,13632.000
469.574,14152.000,14246.000,14131.000,14157.000,14111.000,14082.000
473.265,14219.000,14234.000,14238.000,14203.000,14253.000,14140.000
476.957,14285.000,14305.000,14279.000,14252.000,14297.000,14246.000
480.647,14676.000,14572.000,14613.000,14708.000,14663.000,14624.000
484.335,14556.000,14533.000,14423.000,14410.000,14352.000,14455.000
488.022,14455.000,14378.000,14506.000,14481.000,14322.000,14452.000
491.706,14043.000,14115.000,14266.000,14023.000,14290.000,14141.000
495.391,13475.000,13440.000,13473.000,13459.000,13418.000,13338.000
499.072,12544.000,12574.000,12507.000,12428.000,12483.000,12415.000
502.754,11671.000,11589.000,11721.000,11576.000,11596.000,11551.000
506.432,10378.000,10479.000,10428.000,10409.000,10470.000,10408.000
510.111,9476.000,9354.000,9343.000,9398.000,9283.000,9308.000
513.788,8354.000,8500.000,8517.000,8581.000,8479.000,8510.000
517.462,7594.000,7709.000,7664.000,7617.000,7611.000,7537.000
521.136,7126.000,7060.000,7013.000,6996.000,7068.000,6984.000
524.807,6540.000,6576.000,6485.000,6560.000,6516.000,6483.000
528.479,6036.000,6079.000,6128.000,6161.000,6122.000,6157.000
532.147,5813.000,5867.000,5832.000,5781.000,5792.000,5777.000
535.815,5569.000,5645.000,5595.000,5602.000,5510.000,5547.000
539.480,5340.000,5283.000,5361.000,5332.000,5299.000,5303.000
543.145,5170.000,5091.000,5150.000,5127.000,5246.000,5184.000
546.809,5024.000,5022.000,4936.000,4960.000,4977.000,4946.000
550.469,4787.000,4865.000,4822.000,4786.000,4819.000,4769.000
554.131,4573.000,4652.000,4696.000,4626.000,4671.000,4664.000
557.788,4419.000,4428.000,4482.000,4473.000,4403.000,4469.000
561.446,4352.000,4312.000,4383.000,4304.000,4392.000,4343.000
565.100,4196.000,4227.000,4288.000,4262.000,4123.000,4189.000
568.756,4058.000,4041.000,3983.000,4090.000,4022.000,3974.000
572.408,3933.000,3957.000,3996.000,3872.000,3960.000,3943.000
576.060,3907.000,3849.000,3863.000,3817.000,3831.000,3876.000
579.711,3724.000,3764.000,3668.000,3666.000,3708.000,3687.000
583.358,3632.000,3641.000,3589.000,3633.000,3588.000,3660.000
587.006,3536.000,3558.000,3525.000,3547.000,3498.000,3530.000
590.650,3451.000,3378.000,3391.000,3388.000,3409.000,3386.000
594.295,3361.000,3396.000,3389.000,3319.000,3352.000,3395.000
597.937,3327.000,3239.000,3243.000,3305.000,3305.000,3283.000
601.579,3192.000,3199.000,3195.000,3160.000,3204.000,3167.000
605.217,3140.000,3146.000,3221.000,3148.000,3128.000,3153.000
608.856,3063.000,3053.000,3058.000,3057.000,3013.000,3015.000
612.494,2974.000,2953.000,2883.000,2958.000,2967.000,2958.000
616.129,3030.000,2932.000,2971.000,2915.000,2869.000,2887.000
619.763,2879.000,2829.000,2843.000,2812.000,2856.000,2783.000
623.394,2766.000,2763.000,2747.000,2728.000,2774.000,2783.000
627.026,2703.000,2752.000,2694.000,2686.000,2752.000,2747.000
630.655,2662.000,2655.000,2584.000,2631.000,2599.000,2601.000
634.284,2568.000,2614.000,2591.000,2596.000,2600.000,2585.000
637.911,2585.000,2592.000,2603.000,2529.000,2535.000,2567.000
641.535,2500.000,2489.000,2478.000,2486.000,2467.000,2510.000
645.160,2449.000,2523.000,2448.000,2496.000,2431.000,2443.000
648.781,2444.000,2515.000,2473.000,2456.000,2473.000,2441.000
652.403,2368.000,2363.000,2383.000,2382.000,2423.000,2387.000
656.021,2451.000,2389.000,2381.000,2369.000,2351.000,2398.000
659.640,2353.000,2367.000,2395.000,2343.000,2330.000,2342.000
663.256,2345.000,2364.000,2362.000,2354.000,2328.000,2305.000
666.872,2351.000,2379.000,2315.000,2303.000,2321.000,2267.000
670.485,2269.000,2325.000,2206.000,2281.000,2268.000,2289.000
674.097,2348.000,2296.000,2259.000,2293.000,2334.000,2235.000
677.709,2272.000,2291.000,2244.000,2278.000,2292.000,2269.000
681.317,2215.000,2236.000,2240.000,2244.000,2197.000,2195.000
684.926,2272.000,2249.000,2199.000,2188.000,2261.000,2210.000
688.531,2251.000,2203.000,2197.000,2213.000,2164.000,2147.000
692.136,2170.000,2153.000,2178.000,2173.000,2142.000,2182.000
695.739,2189.000,2251.000,2202.000,2174.000,2175.000,2162.000
699.342,2161.000,2157.000,2183.000,2150.000,2163.000,2122.000
702.944,2131.000,2144.000,2147.000,2068.000,2130.000,2106.000
706.542,2108.000,2170.000,2145.000,2142.000,2139.000,2103.000
710.141,2083.000,2080.000,2075.000,2107.000,2076.000,2051.000
713.736,2090.000,2091.000,2061.000,2107.000,2094.000,2080.000
717.332,2055.000,2086.000,2071.000,2070.000,2058.000,2034.000
720.925,2052.000,2064.000,2026.000,2029.000,2005.000,2015.000
724.517,2042.000,2005.000,2032.000,2051.000,2041.000,1988.000
728.106,2056.000,2062.000,2048.000,2075.000,2051.000,2052.000
731.697,2063.000,2069.000,2008.000,2051.000,2008.000,2005.000
735.286,2030.000,2015.000,1971.000,2049.000,2007.000,2016.000
738.871,2019.000,2010.000,2037.000,2041.000,1970.000,1996.000
742.457,1996.000,1972.000,1971.000,1977.000,1958.000,2004.000
746.039,1953.000,2000.000,1988.000,1995.000,1963.000,1989.000
749.622,1976.000,1987.000,1983.000,1952.000,1987.000,1929.000
753.202,1974.000,1971.000,1963.000,1998.000,1993.000,1955.000
756.782,1984.000,1996.000,1984.000,1961.000,1969.000,1969.000
760.360,1987.000,1973.000,1966.000,2016.000,1988.000,1962.000
763.937,2053.000,2048.000,2050.000,2070.000,2051.000,2054.000
767.512,2108.000,2099.000,2130.000,2072.000,2085.000,2131.000
771.085,2282.000,2216.000,2235.000,2216.000,2212.000,2216.000
774.657,2399.000,2386.000,2357.000,2364.000,2397.000,2366.000
778.228,2492.000,2484.000,2484.000,2498.000,2496.000,2458.000
781.797,2578.000,2597.000,2653.000,2601.000,2608.000,2573.000
785.364,2657.000,2689.000,2686.000,2692.000,2656.000,2734.000
788.932,2663.000,2689.000,2715.000,2665.000,2668.000,2650.000
792.498,2725.000,2739.000,2762.000,2753.000,2687.000,2717.000
796.060,2752.000,2759.000,2739.000,2807.000,2752.000,2776.000
799.624,2736.000,2697.000,2686.000,2705.000,2695.000,2696.000
803.184,2722.000,2723.000,2727.000,2670.000,2685.000,2694.000
806.744,2708.000,2647.000,2704.000,2713.000,2689.000,2691.000
810.301,2648.000,2621.000,2625.000,2655.000,2640.000,2600.000
813.859,2579.000,2623.000,2555.000,2540.000,2521.000,2587.000
817.413,2514.000,2571.000,2513.000,2524.000,2489.000,2496.000
820.967,2492.000,2465.000,2497.000,2483.000,2466.000,2496.000
824.520,2384.000,2431.000,2404.000,2417.000,2359.000,2341.000
828.071,2333.000,2319.000,2302.000,2312.000,2322.000,2317.000
831.622,2231.000,2241.000,2202.000,2259.000,2221.000,2214.000
835.169,2110.000,2146.000,2153.000,2100.000,2123.000,2131.000
838.716,2042.000,2023.000,1986.000,2069.000,1998.000,2014.000
842.261,1958.000,1923.000,1941.000,1930.000,1923.000,1911.000
845.806,1800.000,1877.000,1884.000,1897.000,1803.000,1829.000
849.347,1765.000,1784.000,1756.000,1777.000,1761.000,1794.000
852.890,1762.000,1773.000,1755.000,1776.000,1763.000,1791.000
856.430,1776.000,1701.000,1710.000,1721.000,1739.000,1745.000
859.968,1705.000,1731.000,1730.000,1711.000,1727.000,1723.000
863.506,1737.000,1783.000,1737.000,1730.000,1740.000,1720.000
867.040,1741.000,1726.000,1736.000,1728.000,1707.000,1721.000
870.574,1777.000,1752.000,1696.000,1702.000,1763.000,1758.000
874.106,1799.000,1783.000,1772.000,1769.000,1753.000,1755.000
877.640,1791.000,1782.000,1788.000,1824.000,1781.000,1799.000
881.168,1793.000,1792.000,1791.000,1803.000,1784.000,1799.000
884.698,1843.000,1858.000,1898.000,1886.000,1859.000,1860.000
888.226,1939.000,1911.000,1909.000,1923.000,1914.000,1912.000
891.750,1946.000,1951.000,1950.000,1931.000,1930.000,1933.000
895.276,1994.000,1982.000,1977.000,1980.000,1970.000,1972.000
898.798,2051.000,2067.000,2021.000,2052.000,2011.000,2055.000
902.321,2048.000,2113.000,2074.000,2077.000,2085.000,2063.000
905.840,2162.000,2125.000,2103.000,2113.000,2084.000,2111.000
909.360,2187.000,2204.000,2174.000,2201.000,2198.000,2199.000
912.876,2245.000,2197.000,2218.000,2200.000,2153.000,2166.000
916.393,2267.000,2257.000,2271.000,2255.000,2211.000,2265.000
919.909,2353.000,2276.000,2386.000,2303.000,2300.000,2331.000
923.422,2413.000,2421.000,2382.000,2379.000,2311.000,2383.000
926.934,2400.000,2392.000,2424.000,2400.000,2432.000,2439.000
930.444,2512.000,2502.000,2512.000,2510.000,2489.000,2540.000
933.954,2596.000,2601.000,2587.000,2694.000,2657.000,2620.000
937.461,2662.000,2672.000,2661.000,2684.000,2660.000,2680.000
940.968,2827.000,2847.000,2811.000,2774.000,2873.000,2779.000
944.475,2954.000,2972.000,2983.000,2953.000,2939.000,2978.000
947.978,3157.000,3079.000,3118.000,3099.000,3106.000,3036.000
951.481,3252.000,3286.000,3240.000,3197.000,3259.000,3150.000
954.981,3423.000,3421.000,3453.000,3442.000,3419.000,3450.000
958.482,3579.000,3617.000,3558.000,3570.000,3529.000,3573.000
961.979,3611.000,3604.000,3594.000,3704.000,3636.000,3659.000
965.476,3785.000,3780.000,3744.000,3796.000,3740.000,3745.000
968.971,3809.000,3777.000,3815.000,3810.000,3766.000,3778.000
972.466,3759.000,3757.000,3706.000,3669.000,3709.000,3705.000
975.959,3714.000,3744.000,3731.000,3686.000,3715.000,3694.000
979.451,3581.000,3600.000,3584.000,3607.000,3581.000,3589.000
982.941,3355.000,3367.000,3382.000,3340.000,3338.000,3319.000
986.428,3204.000,3116.000,3166.000,3174.000,3175.000,3181.000
989.917,2949.000,2961.000,2984.000,2986.000,2937.000,2891.000
993.402,2701.000,2726.000,2737.000,2695.000,2629.000,2681.000
996.887,2510.000,2496.000,2529.000,2488.000,2492.000,2501.000
1000.369,2332.000,2312.000,2358.000,2357.000,2364.000,2360.000
1003.852,2217.000,2204.000,2200.000,2225.000,2186.000,2192.000
1007.333,2081.000,2084.000,2061.000,2036.000,2080.000,2109.000
1010.812,1988.000,2026.000,1981.000,1963.000,2021.000,1964.000
1014.290,1921.000,1929.000,1902.000,1895.000,1939.000,1909.000
1017.766,1837.000,1811.000,1841.000,1854.000,1837.000,1834.000
1021.241,1849.000,1796.000,1830.000,1815.000,1815.000,1821.000
1024.714,1809.000,1793.000,1845.000,1867.000,1803.000,1828.000
1028.188,1774.000,1760.000,1820.000,1770.000,1767.000,1771.000
1031.658,1790.000,1785.000,1794.000,1750.000,1840.000,1783.000
1035.128,1764.000,1797.000,1751.000,1778.000,1759.000,1791.000
1038.598,1810.000,1769.000,1749.000,1789.000,1781.000,1745.000
1042.063,1753.000,1777.000,1764.000,1762.000,1749.000,1741.000
1045.530,1774.000,1766.000,1798.000,1751.000,1767.000,1780.000
1048.994,1772.000,1761.000,1812.000,1754.000,1761.000,1748.000
1052.457,1758.000,1724.000,1711.000,1713.000,1743.000,1730.000
1055.917,1735.000,1751.000,1805.000,1806.000,1774.000,1759.000
1059.379,1792.000,1773.000,1792.000,1734.000,1811.000,1744.000
1062.838,1720.000,1782.000,1747.000,1708.000,1702.000,1687.000
1066.294,1739.000,1788.000,1759.000,1709.000,1721.000,1695.000
1069.752,1721.000,1747.000,1742.000,1750.000,1696.000,1724.000
1073.206,1694.000,1671.000,1682.000,1708.000,1709.000,1701.000
1076.660,1733.000,1695.000,1679.000,1677.000,1702.000,1685.000
1080.110,1666.000,1628.000,1649.000,1659.000,1646.000,1680.000
1083.562,1620.000,1627.000,1666.000,1616.000,1638.000,1668.000
1087.011,1610.000,1604.000,1588.000,1626.000,1599.000,1600.000
1090.460,1582.000,1609.000,1591.000,1574.000,1542.000,1550.000
1093.908,1583.000,1576.000,1531.000,1575.000,1562.000,1556.000
1097.351,1533.000,1549.000,1516.000,1541.000,1525.000,1517.000
1100.796,1542.000,1530.000,1513.000,1586.000,1498.000,1523.000
1104.238,1505.000,1516.000,1525.000,1502.000,1471.000,1503.000
1107.681,1456.000,1459.000,1472.000,1452.000,1487.000,1438.000
1111.120,1463.000,1449.000,1471.000,1474.000,1436.000,1464.000
1114.559,1448.000,1441.000,1429.000,1427.000,1434.000,1414.000
1117.995,1475.000,1444.000,1459.000,1446.000,1436.000,1449.000
1121.432,1407.000,1437.000,1433.000,1449.000,1451.000,1400.000
1124.867,1414.000,1440.000,1442.000,1438.000,1411.000,1411.000
1128.300,1444.000,1439.000,1451.000,1461.000,1462.000,1417.000
1131.733,1414.000,1401.000,1410.000,1427.000,1415.000,1402.000
1135.163,1431.000,1430.000,1424.000,1432.000,1426.000,1443.000
1138.593,1412.000,1440.000,1445.000,1473.000,1434.000,1457.000
1142.020,1436.000,1438.000,1436.000,1405.000,1452.000,1391.000
1145.447,1480.000,1456.000,1456.000,1467.000,1468.000,1487.000
1148.872,1454.000,1419.000,1461.000,1417.000,1460.000,1416.000
1152.297,1414.000,1438.000,1424.000,2992.000,1426.000,1459.000
1155.720,1450.000,1462.000,1466.000,1522.000,1415.000,1397.000
1159.141,1449.000,1423.000,1439.000,1442.000,1432.000,1432.000
1162.561,1463.000,1452.000,1471.000,1449.000,1420.000,1450.000
1165.979,1392.000,1437.000,1376.000,1429.000,1432.000,1396.000
1169.397,1436.000,1419.000,1427.000,1417.000,1432.000,1427.000
1172.813,1461.000,1425.000,1449.000,1409.000,1460.000,1451.000
1176.229,1398.000,1422.000,1415.000,1398.000,1399.000,1377.000
1179.641,1456.000,1412.000,1419.000,1412.000,1437.000,1408.000
1183.054,1418.000,1429.000,1419.000,1412.000,1421.000,1406.000
1186.465,1407.000,1403.000,1404.000,1409.000,1392.000,1401.000
1189.874,1407.000,1387.000,1381.000,1374.000,1386.000,1388.000
1193.282,1365.000,1383.000,1395.000,1377.000,1395.000,1341.000
1196.688,1373.000,1347.000,1378.000,1413.000,1379.000,1374.000
1200.095,1325.000,1324.000,1351.000,1353.000,1335.000,1316.000
1203.498,1347.000,1326.000,1345.000,1330.000,1335.000,1355.000
1206.902,1376.000,1329.000,1351.000,1352.000,1347.000,1340.000
1210.302,1386.000,1296.000,1289.000,1301.000,1306.000,1283.000
1213.703,1350.000,1332.000,1322.000,1339.000,1325.000,1341.000
1217.103,1304.000,1318.000,1303.000,1317.000,1305.000,1283.000
1220.499,1261.000,1294.000,1273.000,1286.000,1252.000,1307.000
1223.897,1254.000,1275.000,1268.000,1244.000,1262.000,1270.000
1227.291,1247.000,1269.000,1233.000,1237.000,1229.000,1246.000
1230.685,1251.000,1255.000,1251.000,1260.000,1229.000,1258.000
1234.076,1196.000,1210.000,1212.000,1212.000,1203.000,1197.000
1237.469,1219.000,1210.000,1219.000,1214.000,1173.000,1174.000
1240.858,1205.000,1224.000,1217.000,1197.000,1193.000,1202.000
1244.246,1178.000,1157.000,1177.000,1159.000,1144.000,1157.000
1247.634,1216.000,1157.000,1172.000,1198.000,1191.000,1171.000
1251.020,1205.000,1163.000,1172.000,1173.000,1154.000,1159.000
1254.405,1162.000,1151.000,1160.000,1175.000,1133.000,1154.000
1257.787,1141.000,1155.000,1168.000,1139.000,1136.000,1150.000
1261.170,1186.000,1156.000,1143.000,1143.000,1131.000,1126.000
1264.549,1211.000,1195.000,1191.000,1182.000,1165.000,1179.000
1267.929,1185.000,1192.000,1185.000,1186.000,1188.000,1179.000
1271.308,1245.000,1245.000,1221.000,1229.000,1229.000,1234.000
1274.683,1195.000,1189.000,1173.000,1174.000,1168.000,1188.000
1278.060,1125.000,1101.000,1112.000,1101.000,1111.000,1109.000
1281.433,1129.000,1097.000,1146.000,1105.000,1080.000,1107.000
1284.807,1101.000,1089.000,1082.000,1078.000,1120.000,1098.000
1288.177,1092.000,1089.000,1093.000,1091.000,1081.000,1083.000
1291.548,1100.000,1101.000,1101.000,1103.000,1087.000,1090.000
1294.916,1109.000,1085.000,1111.000,1101.000,1082.000,1095.000
1298.284,1105.000,1091.000,1110.000,1085.000,1113.000,1100.000
1301.652,1088.000,1102.000,1078.000,1086.000,1081.000,1066.000
1305.015,1099.000,1080.000,1101.000,1111.000,1081.000,1080.000
1308.380,1101.000,1071.000,1098.000,1067.000,1068.000,1092.000
1311.742,1103.000,1062.000,1098.000,1085.000,1083.000,1075.000
1315.104,1095.000,1095.000,1079.000,1079.000,1045.000,1082.000
1318.462,1089.000,1075.000,1057.000,1060.000,1059.000,1058.000
1321.822,1093.000,1083.000,1063.000,1084.000,1073.000,1065.000
1325.180,1091.000,1070.000,1066.000,1073.000,1055.000,1076.000
1328.535,1083.000,1081.000,1071.000,1055.000,1046.000,1083.000
1331.891,1080.000,1103.000,1095.000,1095.000,1096.000,1065.000
1335.243,1087.000,1057.000,1080.000,1078.000,1089.000,1024.000
1338.595,1078.000,1078.000,1090.000,1078.000,1091.000,1067.000
1341.946,1099.000,1115.000,1063.000,1073.000,1065.000,1077.000
1345.296,1086.000,1080.000,1091.000,1064.000,1058.000,1073.000
1348.643,1064.000,1078.000,1101.000,1069.000,1083.000,1085.000
1351.991,1084.000,1083.000,1066.000,1078.000,1042.000,1068.000
1355.337,1108.000,1087.000,1097.000,1108.000,1068.000,1061.000
1358.680,1069.000,1082.000,1080.000,1068.000,1074.000,1090.000
1362.025,1115.000,1067.000,1076.000,1083.000,1106.000,1067.000
1365.366,1099.000,1125.000,1108.000,1111.000,1096.000,1092.000
1368.707,1113.000,1110.000,1103.000,1124.000,1122.000,1089.000
1372.045,1234.000,1244.000,1260.000,1254.000,1239.000,1236.000
1375.384,1546.000,1548.000,1518.000,1522.000,1548.000,1505.000
1378.720,1374.000,1426.000,1362.000,1336.000,1360.000,1375.000
1382.057,1166.000,1143.000,1158.000,1156.000,1127.000,1151.000
1385.391,1116.000,1100.000,1093.000,1090.000,1111.000,1091.000
1388.723,1088.000,1103.000,1126.000,1111.000,1112.000,1094.000
1392.056,1067.000,1077.000,1099.000,1093.000,1094.000,1062.000
1395.385,1106.000,1100.000,1109.000,1103.000,1091.000,1092.000
1398.714,1088.000,1072.000,1111.000,1094.000,1101.000,1047.000
1402.042,1084.000,1084.000,1096.000,1113.000,1068.000,1084.000
1405.369,1088.000,1087.000,1091.000,1082.000,1096.000,1046.000
1408.692,1096.000,1068.000,1096.000,1061.000,1072.000,1045.000
1412.017,1085.000,1101.000,1096.000,1095.000,1052.000,1066.000
1415.341,1071.000,1067.000,1063.000,1059.000,1066.000,1062.000
1418.662,1100.000,1103.000,1071.000,1108.000,1071.000,1047.000
1421.982,1095.000,1081.000,1085.000,1080.000,1056.000,1095.000
1425.300,1073.000,1079.000,1087.000,1095.000,1067.000,1060.000
1428.619,1066.000,1093.000,1062.000,1095.000,1067.000,1067.000
1431.935,1086.000,1074.000,1065.000,1061.000,1068.000,1075.000
1435.250,1093.000,1066.000,1064.000,1073.000,1083.000,1068.000
1438.563,1114.000,1074.000,1076.000,1076.000,1082.000,1054.000
1441.877,1104.000,1102.000,1074.000,1095.000,1066.000,1104.000
1445.189,1106.000,1078.000,1101.000,1094.000,1080.000,1082.000
1448.497,1096.000,1071.000,1095.000,1086.000,1067.000,1067.000
1451.807,1100.000,1081.000,1046.000,1077.000,1066.000,1061.000
1455.114,1100.000,1078.000,1076.000,1111.000,1090.000,1096.000
1458.420,1093.000,1086.000,1081.000,1062.000,1088.000,1063.000
1461.725,1101.000,1074.000,1057.000,1069.000,1067.000,1064.000
1465.029,1099.000,1106.000,1082.000,1067.000,1072.000,1065.000
1468.331,1089.000,1093.000,1097.000,1111.000,1092.000,1059.000
1471.632,1088.000,1090.000,1088.000,1059.000,1089.000,1073.000
1474.934,1101.000,1115.000,1082.000,1087.000,1121.000,1076.000
1478.232,1100.000,1083.000,1102.000,1074.000,1081.000,1063.000
1481.530,1091.000,1099.000,1075.000,1107.000,1103.000,1083.000
1484.825,1102.000,1089.000,1097.000,1099.000,1092.000,1095.000
1488.120,1096.000,1108.000,1117.000,1113.000,1085.000,1105.000
1491.414,1110.000,1090.000,1101.000,1106.000,1089.000,1107.000
1494.707,1104.000,1104.000,1095.000,1093.000,1086.000,1096.000
1497.997,1105.000,1112.000,1091.000,1123.000,1098.000,1087.000
1501.287,1119.000,1090.000,1105.000,1088.000,1101.000,1085.000
1504.577,1113.000,1111.000,1104.000,1089.000,1101.000,1117.000
1507.863,1105.000,1131.000,1131.000,1085.000,1092.000,1109.000
1511.151,1123.000,1122.000,1105.000,1105.000,1093.000,1131.000
1514.435,1155.000,1118.000,1116.000,1088.000,1114.000,1108.000
1517.719,1116.000,1106.000,1120.000,1124.000,1122.000,1133.000
1521.001,1151.000,1138.000,1105.000,1124.000,1122.000,1113.000
1524.282,1134.000,1124.000,1150.000,1141.000,1136.000,1105.000
1527.561,1129.000,1133.000,1135.000,1118.000,1120.000,1106.000
1530.840,1129.000,1141.000,1126.000,1130.000,1126.000,1133.000
1534.118,1151.000,1132.000,1133.000,1124.000,1115.000,1101.000
1537.394,1159.000,1155.000,1119.000,1134.000,1127.000,1108.000
1540.670,1140.000,1139.000,1122.000,1130.000,1108.000,1145.000
1543.943,1148.000,1151.000,1134.000,1168.000,1163.000,1147.000
1547.216,1132.000,1150.000,1156.000,1118.000,1126.000,1127.000
1550.486,1198.000,1152.000,1166.000,1173.000,1149.000,1186.000
1553.756,1153.000,1153.000,1193.000,1151.000,1136.000,1149.000
1557.027,1180.000,1178.000,1157.000,1159.000,1146.000,1140.000
1560.293,1194.000,1161.000,1177.000,1127.000,1159.000,1151.000
1563.560,1171.000,1178.000,1176.000,1146.000,1147.000,1164.000
1566.824,1173.000,1177.000,1169.000,1177.000,1182.000,1186.000
1570.088,1183.000,1204.000,1187.000,1181.000,1177.000,1166.000
1573.350,1201.000,1172.000,1169.000,1172.000,1195.000,1160.000
1576.612,1181.000,1173.000,1159.000,1171.000,1204.000,1177.000
1579.872,1216.000,1189.000,1182.000,1196.000,1179.000,1169.000
1583.131,1232.000,1172.000,1203.000,1186.000,1153.000,1196.000
1586.390,1189.000,1220.000,1206.000,1204.000,1192.000,1179.000
1589.645,1217.000,1206.000,1247.000,1201.000,1211.000,1206.000
1592.901,1241.000,1197.000,1213.000,1221.000,1198.000,1224.000
1596.154,1273.000,1236.000,1233.000,1227.000,1217.000,1218.000
1599.408,1232.000,1243.000,1233.000,1244.000,1233.000,1218.000
1602.658,1266.000,1259.000,1238.000,1268.000,1257.000,1252.000
1605.909,1286.000,1263.000,1271.000,1253.000,1256.000,1288.000
1609.158,1256.000,1283.000,1257.000,1232.000,1283.000,1267.000
1612.405,1277.000,1227.000,1246.000,1273.000,1236.000,1250.000
1615.653,1247.000,1231.000,1233.000,1258.000,1243.000,1224.000
1618.898,1260.000,1231.000,1265.000,1240.000,1224.000,1215.000
1622.142,1268.000,1249.000,1252.000,1224.000,1232.000,1208.000
1625.384,1263.000,1245.000,1241.000,1265.000,1237.000,1215.000
1628.627,1244.000,1232.000,1250.000,1230.000,1208.000,1223.000
1631.866,1209.000,1228.000,1217.000,1203.000,1208.000,1202.000
1635.106,1220.000,1222.000,1205.000,1210.000,1213.000,1220.000
1638.345,1179.000,1222.000,1172.000,1200.000,1209.000,1178.000
1641.580,1210.000,1185.000,1213.000,1184.000,1194.000,1157.000
1644.816,1168.000,1182.000,1173.000,1181.000,1168.000,1148.000
1648.050,1215.000,1155.000,1189.000,1179.000,1174.000,1179.000
1651.285,1160.000,1193.000,1175.000,1157.000,1139.000,1156.000
1654.515,1179.000,1142.000,1155.000,1164.000,1154.000,1155.000
1657.747,1143.000,1168.000,1166.000,1129.000,1128.000,1132.000
1660.975,1139.000,1131.000,1119.000,1144.000,1143.000,1156.000
1664.204,1128.000,1134.000,1123.000,1158.000,1148.000,1129.000
1667.431,1154.000,1138.000,1109.000,1133.000,1112.000,1106.000
1670.656,1171.000,1152.000,1140.000,1120.000,1128.000,1134.000
1673.882,1135.000,1128.000,1110.000,1108.000,1115.000,1088.000
1677.104,1127.000,1117.000,1123.000,1117.000,1102.000,1118.000
1680.328,1123.000,1128.000,1120.000,1128.000,1127.000,1120.000
1683.548,1111.000,1119.000,1117.000,1110.000,1075.000,1085.000
1686.768,1124.000,1080.000,1124.000,1122.000,1115.000,1105.000
1689.986,1091.000,1092.000,1084.000,1075.000,1082.000,1078.000
1693.203,1109.000,1115.000,1085.000,1095.000,1115.000,1097.000
1696.420,1076.000,1094.000,1088.000,1087.000,1075.000,1059.000
1699.634,1084.000,1105.000,1089.000,1102.000,1105.000,1127.000
1702.848,1108.000,1106.000,1088.000,1105.000,1083.000,1082.000
1706.060,1106.000,1071.000,1111.000,1118.000,1102.000,1087.000
1709.272,1123.000,1096.000,1086.000,1108.000,1097.000,1069.000
1712.482,1090.000,1104.000,1095.000,1091.000,1074.000,1082.000
1715.691,1116.000,1071.000,1110.000,1117.000,1080.000,1097.000
1718.897,1097.000,1082.000,1091.000,1093.000,1083.000,1068.000
1722.105,1097.000,1112.000,1115.000,1111.000,1092.000,1074.000
1725.311,1085.000,1099.000,1065.000,1081.000,1071.000,1058.000
1728.514,1122.000,1083.000,1095.000,1121.000,1089.000,1063.000
1731.718,1120.000,1069.000,1077.000,1079.000,1072.000,1069.000
1734.918,1103.000,1084.000,1083.000,1075.000,1094.000,1068.000
1738.120,1090.000,1097.000,1081.000,1106.000,1080.000,1091.000
1741.318,1077.000,1083.000,1092.000,1066.000,1079.000,1050.000
1744.517,1100.000,1103.000,1090.000,1111.000,1119.000,1106.000
1747.712,1087.000,1080.000,1087.000,1079.000,1099.000,1081.000
1750.909,1086.000,1105.000,1108.000,1087.000,1087.000,1114.000
1754.104,1090.000,1096.000,1088.000,1065.000,1089.000,1056.000
1757.297,1103.000,1118.000,1087.000,1080.000,1048.000,1079.000
1760.489,1095.000,1085.000,1092.000,1081.000,1119.000,1057.000
1763.679,1101.000,1073.000,1092.000,1104.000,1067.000,1070.000
1766.870,1092.000,1094.000,1077.000,1077.000,1073.000,1074.000
1770.057,1069.000,1082.000,1070.000,1074.000,1079.000,1076.000
1773.245,1100.000,1120.000,1126.000,1098.000,1066.000,1089.000
1776.430,1096.000,1080.000,1099.000,1069.000,1099.000,1066.000
1779.616,1109.000,1096.000,1088.000,1110.000,1088.000,1080.000
1782.800,1117.000,1111.000,1075.000,1094.000,1066.000,1067.000
1785.982,1095.000,1093.000,1105.000,1105.000,1098.000,1090.000
1789.164,1111.000,1081.000,1084.000,1111.000,1081.000,1094.000
1792.343,1098.000,1105.000,1075.000,1093.000,1080.000,1086.000
1795.523,1111.000,1099.000,1075.000,1081.000,1116.000,1106.000
1798.700,1094.000,1087.000,1107.000,1081.000,1083.000,1095.000
1801.877,1127.000,1140.000,1115.000,1099.000,1091.000,1114.000
1805.052,1099.000,1103.000,1108.000,1082.000,1091.000,1084.000
1808.226,1097.000,1106.000,1090.000,1108.000,1096.000,1086.000
1811.400,1109.000,1089.000,1111.000,1083.000,1081.000,1093.000
1814.571,1107.000,1084.000,1123.000,1113.000,1110.000,1096.000
1816.157,1101.000,1076.000,1120.000,1107.000,1092.000,1084.000