File: Raman/Silica/2025_08_22_BB1392_SiO2_8wtPctH2O_Glass_50X_532nm_750uW_Kymera328_600gv_2100wn_3accum_60s_Unpol.csv
145.788,3610.000,3586.000,3630.000
150.037,3595.000,3591.000,3626.000
154.285,3597.000,3593.000,3573.000
158.530,3575.000,3566.000,3620.000
162.775,3560.000,3572.000,3582.000
167.017,3563.000,3587.000,3567.000
171.257,3556.000,3561.000,3551.000
175.494,3551.000,3559.000,3548.000
179.731,3531.000,3549.000,3521.000
183.965,3549.000,3540.000,3519.000
188.198,3513.000,3537.000,3539.000
192.428,3529.000,3523.000,3528.000
196.656,3514.000,3526.000,3519.000
200.883,3536.000,3518.000,3523.000
205.108,3510.000,3523.000,3529.000
209.331,3519.000,3523.000,3535.000
213.551,3533.000,3517.000,3528.000
217.770,3488.000,3526.000,3535.000
221.987,3532.000,3520.000,3527.000
226.201,3512.000,3522.000,3504.000
230.416,3503.000,3517.000,3531.000
234.626,3493.000,3505.000,3523.000
238.836,3521.000,3548.000,3524.000
243.043,3520.000,3548.000,3515.000
247.248,3511.000,3502.000,3536.000
251.454,3513.000,3517.000,3523.000
255.656,3506.000,3533.000,3500.000
259.856,3512.000,3540.000,3514.000
264.054,3529.000,3514.000,3526.000
268.250,3512.000,3570.000,3499.000
272.444,3515.000,3520.000,3525.000
276.636,3509.000,3542.000,3502.000
280.826,3519.000,3497.000,3534.000
285.015,3518.000,3554.000,3549.000
289.201,3539.000,3534.000,3542.000
293.386,3513.000,3564.000,3555.000
297.569,3543.000,3538.000,3518.000
301.749,3564.000,3544.000,3553.000
305.929,3547.000,3569.000,3578.000
310.105,3573.000,3564.000,3581.000
314.280,3583.000,3585.000,3551.000
318.454,3576.000,3557.000,3555.000
322.625,3588.000,3582.000,3610.000
326.795,3591.000,3585.000,3559.000
330.962,3557.000,3565.000,3601.000
335.128,3603.000,3602.000,3591.000
339.292,3594.000,3571.000,3619.000
343.454,3628.000,3616.000,3619.000
347.615,3584.000,3583.000,3617.000
351.773,3613.000,3604.000,3635.000
355.929,3627.000,3618.000,3632.000
360.084,3637.000,3629.000,3629.000
364.236,3646.000,3641.000,3625.000
368.387,3658.000,3615.000,3670.000
372.536,3634.000,3632.000,3628.000
376.682,3660.000,3662.000,3662.000
380.828,3687.000,3658.000,3663.000
384.971,3657.000,3664.000,3684.000
389.112,3671.000,3682.000,3686.000
393.252,3680.000,3672.000,3629.000
397.389,3690.000,3699.000,3658.000
401.525,3715.000,3691.000,3666.000
405.659,3720.000,3705.000,3690.000
409.792,3706.000,3716.000,3729.000
413.922,3692.000,3701.000,3722.000
418.050,3747.000,3728.000,3711.000
422.176,3724.000,3735.000,3722.000
426.302,3752.000,3771.000,3734.000
430.424,3720.000,3751.000,3755.000
434.545,3745.000,3759.000,3741.000
438.664,3781.000,3778.000,3754.000
442.782,3766.000,3748.000,3762.000
446.897,3779.000,3778.000,3767.000
451.011,3820.000,3773.000,3786.000
455.125,3834.000,3840.000,3825.000
459.235,3835.000,3879.000,3856.000
463.343,3831.000,3829.000,3873.000
467.449,3815.000,3819.000,3831.000
471.554,3856.000,3858.000,3879.000
475.656,3856.000,3855.000,3867.000
479.756,3860.000,3859.000,3867.000
483.855,3835.000,3816.000,3808.000
487.952,3835.000,3811.000,3844.000
492.048,3797.000,3839.000,3805.000
496.141,3757.000,3752.000,3770.000
500.233,3735.000,3713.000,3729.000
504.322,3688.000,3683.000,3698.000
508.411,3643.000,3671.000,3667.000
512.497,3630.000,3583.000,3624.000
516.581,3579.000,3584.000,3573.000
520.664,3541.000,3543.000,3538.000
524.744,3514.000,3516.000,3513.000
528.823,3489.000,3472.000,3484.000
532.900,3446.000,3495.000,3462.000
536.975,3447.000,3450.000,3454.000
541.048,3438.000,3451.000,3425.000
545.120,3412.000,3445.000,3433.000
549.189,3417.000,3416.000,3419.000
553.258,3404.000,3411.000,3423.000
557.323,3403.000,3406.000,3416.000
561.388,3378.000,3386.000,3376.000
565.450,3385.000,3385.000,3378.000
569.510,3375.000,3349.000,3363.000
573.570,3338.000,3377.000,3395.000
577.627,3343.000,3365.000,3360.000
581.681,3358.000,3382.000,3367.000
585.735,3358.000,3363.000,3343.000
589.786,3335.000,3346.000,3352.000
593.836,3342.000,3337.000,3366.000
597.884,3329.000,3373.000,3328.000
601.931,3326.000,3349.000,3319.000
605.975,3329.000,3326.000,3349.000
610.018,3319.000,3316.000,3356.000
614.059,3325.000,3315.000,3326.000
618.097,3328.000,3332.000,3314.000
622.135,3313.000,3309.000,3301.000
626.170,3297.000,3305.000,3299.000
630.203,3310.000,3317.000,3291.000
634.236,3303.000,3315.000,3294.000
638.265,3292.000,3292.000,3287.000
642.294,3302.000,3305.000,3302.000
646.320,3302.000,3306.000,3309.000
650.347,3295.000,3295.000,3302.000
654.370,3294.000,3303.000,3296.000
658.391,3289.000,3302.000,3301.000
662.411,3295.000,3305.000,3314.000
666.428,3276.000,3287.000,3298.000
670.444,3281.000,3311.000,3295.000
674.458,3293.000,3287.000,3280.000
678.470,3283.000,3288.000,3264.000
682.481,3287.000,3274.000,3301.000
686.489,3298.000,3290.000,3315.000
690.496,3317.000,3285.000,3301.000
694.501,3297.000,3303.000,3291.000
698.504,3304.000,3287.000,3307.000
702.507,3307.000,3300.000,3293.000
706.505,3264.000,3294.000,3300.000
710.504,3298.000,3298.000,3293.000
714.501,3291.000,3282.000,3274.000
718.495,3292.000,3280.000,3280.000
722.488,3293.000,3302.000,3273.000
726.479,3311.000,3271.000,3291.000
730.468,3289.000,3276.000,3288.000
734.456,3286.000,3282.000,3291.000
738.441,3297.000,3306.000,3258.000
742.425,3301.000,3293.000,3282.000
746.407,3282.000,3271.000,3286.000
750.387,3296.000,3279.000,3291.000
754.366,3302.000,3292.000,3295.000
758.343,3301.000,3301.000,3281.000
762.318,3294.000,3310.000,3310.000
766.292,3325.000,3301.000,3295.000
770.264,3296.000,3296.000,3312.000
774.234,3321.000,3325.000,3334.000
778.202,3316.000,3319.000,3324.000
782.168,3314.000,3329.000,3314.000
786.132,3331.000,3339.000,3328.000
790.095,3329.000,3330.000,3331.000
794.057,3326.000,3353.000,3344.000
798.016,3319.000,3344.000,3337.000
801.974,3350.000,3348.000,3333.000
805.930,3356.000,3340.000,3360.000
809.885,3329.000,3340.000,3353.000
813.837,3342.000,3306.000,3334.000
817.788,3334.000,3322.000,3321.000
821.737,3321.000,3300.000,3312.000
825.683,3320.000,3338.000,3323.000
829.630,3312.000,3309.000,3309.000
833.573,3267.000,3298.000,3325.000
837.516,3298.000,3316.000,3317.000
841.455,3308.000,3299.000,3328.000
845.395,3289.000,3290.000,3281.000
849.333,3294.000,3312.000,3271.000
853.268,3287.000,3281.000,3292.000
857.202,3281.000,3273.000,3281.000
861.133,3286.000,3277.000,3277.000
865.063,3278.000,3289.000,3287.000
868.992,3275.000,3274.000,3268.000
872.919,3298.000,3273.000,3280.000
876.843,3278.000,3280.000,3284.000
880.766,3293.000,3281.000,3285.000
884.687,3297.000,3298.000,3308.000
888.607,3272.000,3285.000,3279.000
892.526,3303.000,3286.000,3276.000
896.442,3314.000,3289.000,3297.000
900.357,3303.000,3317.000,3313.000
904.270,3320.000,3317.000,3319.000
908.180,3302.000,3319.000,3306.000
912.089,3316.000,3313.000,3317.000
915.997,3299.000,3320.000,3321.000
919.903,3317.000,3328.000,3330.000
923.807,3327.000,3310.000,3324.000
927.710,3320.000,3334.000,3330.000
931.611,3332.000,3348.000,3359.000
935.511,3354.000,3354.000,3350.000
939.408,3333.000,3345.000,3378.000
943.304,3366.000,3351.000,3364.000
947.198,3382.000,3370.000,3401.000
951.091,3395.000,3391.000,3404.000
954.981,3400.000,3384.000,3394.000
958.869,3397.000,3391.000,3399.000
962.757,3405.000,3387.000,3391.000
966.643,3382.000,3382.000,3413.000
970.526,3403.000,3375.000,3422.000
974.409,3391.000,3403.000,3660.000
978.290,3403.000,3401.000,4711.000
982.168,3404.000,3391.000,3421.000
986.045,3376.000,3381.000,3377.000
989.921,3394.000,3357.000,3372.000
993.794,3402.000,3355.000,3355.000
997.667,3350.000,3357.000,3356.000
1001.537,3344.000,3369.000,3351.000
1005.405,3338.000,3337.000,3327.000
1009.273,3328.000,3338.000,3331.000
1013.138,3333.000,3340.000,3326.000
1017.001,3328.000,3338.000,3345.000
1020.864,3332.000,3330.000,3325.000
1024.724,3310.000,3312.000,3302.000
1028.582,3312.000,3311.000,3339.000
1032.442,3313.000,3331.000,3312.000
1036.297,3304.000,3307.000,3312.000
1040.151,3317.000,3317.000,3329.000
1044.003,3292.000,3330.000,3320.000
1047.853,3325.000,3335.000,3320.000
1051.701,3307.000,3315.000,3310.000
1055.549,3308.000,3360.000,3331.000
1059.394,3336.000,3332.000,3306.000
1063.237,3325.000,3328.000,3307.000
1067.080,3335.000,3329.000,3349.000
1070.919,3341.000,3321.000,3304.000
1074.759,3323.000,3311.000,3327.000
1078.596,3314.000,3281.000,3329.000
1082.430,3331.000,3338.000,3324.000
1086.264,3322.000,9526.000,3320.000
1090.096,3319.000,4478.000,3318.000
1093.926,3314.000,3321.000,3299.000
1097.755,3307.000,3342.000,3301.000
1101.582,3311.000,3316.000,3315.000
1105.407,3312.000,3320.000,3333.000
1109.231,3311.000,3318.000,3320.000
1113.053,3439.000,3308.000,3315.000
1116.873,5584.000,3299.000,3343.000
1120.693,4009.000,3309.000,3306.000
1124.510,3320.000,3276.000,3313.000
1128.325,3292.000,3309.000,3328.000
1132.139,3305.000,3318.000,3331.000
1135.951,3291.000,3321.000,3316.000
1139.761,3305.000,3320.000,3305.000
1143.571,3322.000,3325.000,3311.000
1147.377,3312.000,3308.000,3305.000
1151.183,3311.000,3324.000,3298.000
1154.987,3334.000,3305.000,3289.000
1158.789,3311.000,3311.000,3322.000
1162.590,3310.000,3299.000,3303.000
1166.389,3316.000,3305.000,3306.000
1170.187,3312.000,3306.000,3328.000
1173.982,3319.000,3300.000,3310.000
1177.776,3319.000,3304.000,3300.000
1181.568,3322.000,3326.000,3321.000
1185.359,3332.000,3300.000,3309.000
1189.148,3314.000,3307.000,3299.000
1192.936,3310.000,3309.000,3300.000
1196.722,3304.000,3311.000,3305.000
1200.507,3298.000,3323.000,3295.000
1204.289,3319.000,3295.000,3297.000
1208.070,3303.000,3302.000,3307.000
1211.850,3298.000,3311.000,3293.000
1215.628,3302.000,3306.000,3307.000
1219.403,3303.000,3300.000,3313.000
1223.179,3320.000,3319.000,3294.000
1226.953,3292.000,3290.000,3287.000
1230.725,3309.000,3296.000,3288.000
1234.494,3286.000,3296.000,3293.000
1238.263,3279.000,3311.000,3316.000
1242.029,3300.000,3312.000,3287.000
1245.794,3282.000,3299.000,3319.000
1249.557,3316.000,3294.000,3293.000
1253.319,3296.000,3293.000,3293.000
1257.079,3321.000,3291.000,3300.000
1260.837,3305.000,3280.000,3317.000
1264.594,3291.000,3292.000,3289.000
1268.349,3306.000,3318.000,3309.000
1272.102,3299.000,3295.000,3312.000
1275.854,3302.000,3289.000,3309.000
1279.605,3295.000,3304.000,3309.000
1283.354,3296.000,3295.000,3289.000
1287.101,3295.000,3283.000,3297.000
1290.846,3296.000,3294.000,3296.000
1294.590,3299.000,3298.000,3310.000
1298.333,3289.000,3288.000,3282.000
1302.073,3309.000,3283.000,3295.000
1305.813,3286.000,3299.000,3304.000
1309.551,3308.000,3291.000,3295.000
1313.287,3295.000,3293.000,3286.000
1317.021,3312.000,3304.000,3300.000
1320.753,3288.000,3309.000,3299.000
1324.485,3286.000,3300.000,3315.000
1328.215,3288.000,3304.000,3293.000
1331.942,3305.000,3294.000,3273.000
1335.669,3303.000,3282.000,3296.000
1339.394,3299.000,3307.000,3302.000
1343.117,3304.000,3276.000,3296.000
1346.839,3298.000,3301.000,3288.000
1350.559,3292.000,3293.000,3294.000
1354.278,3309.000,3320.000,3293.000
1357.994,3328.000,3297.000,3300.000
1361.710,3319.000,3294.000,3305.000
1365.423,3310.000,3326.000,3291.000
1369.136,3313.000,3332.000,3298.000
1372.846,3301.000,3307.000,3281.000
1376.555,3310.000,3311.000,3315.000
1380.263,3299.000,3316.000,3279.000
1383.968,3319.000,3312.000,3327.000
1387.672,3317.000,3322.000,3308.000
1391.374,3293.000,3291.000,3308.000
1395.077,3302.000,3306.000,3322.000
1398.777,3328.000,3332.000,3314.000
1402.476,3321.000,3331.000,3326.000
1406.172,3310.000,3312.000,3302.000
1409.867,3305.000,3303.000,3318.000
1413.560,3314.000,3310.000,3306.000
1417.251,3317.000,3325.000,3305.000
1420.942,3328.000,3316.000,3329.000
1424.630,3298.000,3306.000,3309.000
1428.317,3323.000,3332.000,3297.000
1432.002,3300.000,3320.000,3327.000
1435.687,3312.000,3308.000,3336.000
1439.369,3327.000,3305.000,3316.000
1443.049,3299.000,3314.000,3305.000
1446.729,3307.000,3325.000,3343.000
1450.406,3307.000,3308.000,3323.000
1454.082,3331.000,3303.000,3303.000
1457.757,3313.000,3327.000,3342.000
1461.430,3330.000,3338.000,3325.000
1465.101,3316.000,3310.000,3321.000
1468.771,3328.000,3324.000,3306.000
1472.439,3328.000,3324.000,3323.000
1476.106,3333.000,3328.000,3299.000
1479.771,3316.000,3333.000,3314.000
1483.435,3330.000,3317.000,3353.000
1487.097,3348.000,3322.000,3326.000
1490.757,3327.000,3336.000,3331.000
1494.416,3316.000,3341.000,3313.000
1498.074,3318.000,3335.000,3339.000
1501.729,3338.000,3347.000,3340.000
1505.384,3344.000,3334.000,3339.000
1509.037,3305.000,3349.000,3334.000
1512.687,3356.000,3343.000,3334.000
1516.337,3324.000,3329.000,3338.000
1519.985,3353.000,3345.000,3339.000
1523.632,3324.000,3343.000,3338.000
1527.277,3331.000,3343.000,3334.000
1530.920,3325.000,3335.000,3324.000
1534.563,3322.000,3364.000,3319.000
1538.203,3357.000,3340.000,3346.000
1541.842,3347.000,3327.000,3320.000
1545.479,3356.000,3333.000,3349.000
1549.115,3352.000,3370.000,3317.000
1552.749,3337.000,3366.000,3338.000
1556.383,3348.000,3343.000,3347.000
1560.014,3347.000,3333.000,3351.000
1563.644,3347.000,3350.000,3347.000
1567.271,3344.000,3346.000,3343.000
1570.899,3358.000,3355.000,3363.000
1574.524,3340.000,3348.000,3342.000
1578.147,3333.000,3346.000,3340.000
1581.769,3363.000,3375.000,3334.000
1585.390,3326.000,3370.000,3344.000
1589.010,3345.000,3358.000,3355.000
1592.629,3358.000,3353.000,3328.000
1596.245,3367.000,3363.000,3364.000
1599.859,3357.000,3354.000,3350.000
1603.472,3376.000,3350.000,3368.000
1607.083,3351.000,3349.000,3351.000
1610.693,3351.000,3373.000,3347.000
1614.302,3378.000,3354.000,3366.000
1617.908,3349.000,3366.000,3352.000
1621.514,3345.000,3357.000,3356.000
1625.118,3353.000,3353.000,3343.000
1628.720,3354.000,3354.000,3384.000
1632.320,3363.000,3370.000,3364.000
1635.920,3350.000,3357.000,3347.000
1639.518,3366.000,3379.000,3351.000
1643.114,3345.000,3363.000,3362.000
1646.709,3341.000,3344.000,3346.000
1650.303,3338.000,3373.000,3355.000
1653.895,3340.000,3358.000,3363.000
1657.485,3342.000,3355.000,3346.000
1661.074,3361.000,3366.000,3359.000
1664.661,3361.000,3357.000,3372.000
1668.246,3348.000,3388.000,3371.000
1671.831,3348.000,3341.000,3365.000
1675.414,3373.000,3345.000,3371.000
1678.995,3346.000,3344.000,3355.000
1682.575,3368.000,3353.000,3353.000
1686.153,3363.000,3362.000,3350.000
1689.730,3332.000,3361.000,3356.000
1693.306,3329.000,3357.000,3330.000
1696.879,3346.000,3356.000,3331.000
1700.451,3371.000,3367.000,3370.000
1704.022,3371.000,3356.000,3366.000
1707.591,3349.000,3365.000,3336.000
1711.159,3358.000,3358.000,3360.000
1714.726,3373.000,3368.000,3337.000
1718.291,3351.000,3365.000,3362.000
1721.854,3367.000,3363.000,3362.000
1725.415,3362.000,3327.000,3352.000
1728.977,3343.000,3338.000,3359.000
1732.535,3343.000,3334.000,3347.000
1736.093,3346.000,3356.000,3363.000
1739.648,3362.000,3349.000,3372.000
1743.204,3372.000,3366.000,3360.000
1746.757,3353.000,3370.000,3357.000
1750.310,3360.000,3338.000,3354.000
1753.859,3330.000,3362.000,3350.000
1757.408,3360.000,3363.000,3373.000
1760.955,3325.000,3374.000,3346.000
1764.501,3347.000,3368.000,3368.000
1768.044,3356.000,3357.000,3362.000
1771.588,3363.000,3363.000,3355.000
1775.128,3353.000,3358.000,3362.000
1778.668,3342.000,3361.000,3368.000
1782.206,3347.000,3350.000,3355.000
1785.743,3359.000,3364.000,3361.000
1789.279,3354.000,3363.000,3351.000
1792.813,3371.000,3388.000,3375.000
1796.345,3349.000,3355.000,3363.000
1799.876,3349.000,3370.000,3354.000
1803.406,3366.000,3367.000,3370.000
1806.933,3349.000,3355.000,3348.000
1810.460,3374.000,3377.000,3380.000
1813.984,3344.000,3375.000,3360.000
1817.508,3357.000,3362.000,3381.000
1821.031,3362.000,3369.000,3360.000
1824.551,3368.000,3365.000,3359.000
1828.070,3361.000,3394.000,3376.000
1831.589,3370.000,3719.000,3359.000
1835.104,3367.000,4347.000,3356.000
1838.619,3386.000,5086.000,3360.000
1842.132,3368.000,3386.000,3386.000
1845.645,3333.000,3356.000,3350.000
1849.154,3376.000,3353.000,3366.000
1852.664,3393.000,3373.000,3389.000
1856.172,3410.000,3370.000,3374.000
1859.677,3381.000,3368.000,3380.000
1863.183,3353.000,3376.000,3376.000
1866.685,3361.000,3378.000,3370.000
1870.187,3390.000,3361.000,3401.000
1873.688,3365.000,3379.000,3371.000
1877.186,3376.000,3375.000,3388.000
1880.683,3360.000,3374.000,3382.000
1884.179,3381.000,3395.000,3379.000
1887.674,3412.000,3393.000,3370.000
1891.168,3399.000,3383.000,3419.000
1894.659,3409.000,3407.000,3412.000
1898.149,3397.000,3396.000,3388.000
1901.638,3399.000,3399.000,3392.000
1905.125,3379.000,3391.000,3388.000
1908.611,3396.000,3357.000,3401.000
1912.096,3390.000,3393.000,3400.000
1915.579,3406.000,3361.000,3377.000
1919.060,3401.000,3390.000,3379.000
1922.540,3397.000,3396.000,3374.000
1926.019,3388.000,3402.000,3410.000
1929.496,3408.000,3394.000,3392.000
1932.974,3399.000,3406.000,3396.000
1936.447,3395.000,3398.000,3418.000
1939.921,3378.000,3372.000,3388.000
1943.393,3403.000,3386.000,3403.000
1946.862,3385.000,3399.000,3392.000
1950.331,3403.000,3375.000,3381.000
1953.798,3395.000,3405.000,3409.000
1957.264,3398.000,3414.000,3415.000
1960.728,3395.000,3409.000,3430.000
1964.191,3388.000,3396.000,3382.000
1967.652,3415.000,3392.000,3404.000
1971.113,3392.000,3411.000,3401.000
1974.571,3416.000,3404.000,3376.000
1978.029,3405.000,3399.000,3388.000
1981.485,3424.000,3397.000,3393.000
1984.939,3421.000,3421.000,3380.000
1988.392,3401.000,3390.000,3395.000
1991.844,3372.000,3414.000,3403.000
1995.294,3414.000,3415.000,3410.000
1998.742,3380.000,3402.000,3412.000
2002.189,3414.000,3404.000,3401.000
2005.635,3406.000,3410.000,3411.000
2009.080,3423.000,3399.000,3395.000
2012.524,3400.000,3427.000,3376.000
2015.965,3413.000,3404.000,3393.000
2019.405,3397.000,3383.000,3406.000
2022.844,3380.000,3412.000,3409.000
2026.282,3406.000,3388.000,3390.000
2029.718,3403.000,3404.000,3390.000
2033.152,3410.000,3369.000,3406.000
2036.585,3405.000,3424.000,3412.000
2040.017,3409.000,3408.000,3393.000
2043.448,3394.000,3434.000,3401.000
2046.877,3418.000,3391.000,3409.000
2050.305,3402.000,3419.000,3421.000
2053.731,3409.000,3406.000,3438.000
2057.155,3402.000,3390.000,3414.000
2060.579,3403.000,3420.000,3418.000
2064.001,3430.000,3398.000,3443.000
2067.422,3399.000,3423.000,3435.000
2070.841,3403.000,3415.000,3404.000
2074.259,3454.000,3444.000,3406.000
2077.675,3436.000,3398.000,3422.000
2081.090,3432.000,3420.000,3420.000
2084.503,3429.000,3450.000,3411.000
2087.915,3410.000,3446.000,3418.000
2091.329,3415.000,3426.000,3410.000
2094.737,3423.000,3445.000,3416.000
2098.146,3424.000,3421.000,3424.000
2101.552,3431.000,3410.000,3414.000
2104.957,3433.000,3401.000,3416.000
2108.361,3444.000,3411.000,3416.000
2111.764,3428.000,3416.000,3409.000
2115.165,3417.000,3405.000,3418.000
2118.565,3443.000,3412.000,3434.000
2121.963,3425.000,3435.000,3429.000
2125.360,3429.000,3445.000,3428.000
2128.756,3408.000,3426.000,3427.000
2132.150,3431.000,3408.000,3412.000
2135.543,3431.000,3429.000,3442.000
2138.934,3451.000,3441.000,3421.000
2142.324,3439.000,3422.000,3426.000
2145.713,3423.000,3439.000,3407.000
2149.100,3436.000,3444.000,3426.000
2152.486,3433.000,3432.000,3432.000
2155.870,3453.000,3413.000,3403.000
2159.253,3430.000,3397.000,3435.000
2162.635,3417.000,3432.000,3444.000
2166.016,3445.000,3420.000,3406.000
2169.394,3447.000,3407.000,3436.000
2172.773,3427.000,3427.000,3437.000
2176.149,3414.000,3435.000,3414.000
2179.524,3431.000,3456.000,3424.000
2182.897,3449.000,3447.000,3449.000
2186.270,3433.000,3416.000,3429.000
2189.640,3405.000,3424.000,3428.000
2193.009,3435.000,3455.000,3430.000
2196.377,3418.000,3437.000,3440.000
2199.744,3456.000,3442.000,3439.000
2203.109,3425.000,3451.000,3438.000
2206.474,3441.000,3443.000,3452.000
2209.836,3441.000,3437.000,3435.000
2213.198,3460.000,3444.000,3429.000
2216.558,3456.000,3459.000,3436.000
2219.916,3437.000,3444.000,3437.000
2223.273,3431.000,3430.000,3421.000
2226.629,3428.000,3413.000,3426.000
2229.984,3471.000,3471.000,3442.000
2233.337,3458.000,3445.000,3450.000
2236.688,3443.000,3449.000,3416.000
2240.039,3432.000,3451.000,3458.000
2243.388,3435.000,3452.000,3434.000
2246.735,3441.000,3458.000,3456.000
2250.082,3442.000,3467.000,3437.000
2253.426,3450.000,3445.000,3438.000
2256.770,3424.000,3464.000,3452.000
2260.112,3443.000,3436.000,3439.000
2263.453,3437.000,3450.000,3451.000
2266.793,3439.000,3470.000,3481.000
2270.133,3470.000,3455.000,3454.000
2273.470,3437.000,3450.000,3428.000
2276.805,3443.000,3458.000,3448.000
2280.139,3453.000,3461.000,3443.000
2283.472,3448.000,3445.000,3450.000
2286.804,3450.000,3455.000,3454.000
2290.133,3446.000,3460.000,3446.000
2293.463,3467.000,3458.000,3467.000
2296.790,3450.000,3428.000,3466.000
2300.116,3472.000,3440.000,3455.000
2303.441,3473.000,3466.000,3477.000
2306.764,3458.000,3437.000,3461.000
2310.086,3453.000,3456.000,3473.000
2313.407,3464.000,3458.000,3455.000
2316.726,3490.000,3472.000,3476.000
2320.044,3469.000,3478.000,3465.000
2323.361,3483.000,3478.000,3469.000
2326.676,3446.000,3472.000,3485.000
2329.990,3446.000,3488.000,3481.000
2333.304,3478.000,3459.000,3464.000
2336.615,3478.000,3472.000,3465.000
2339.924,3471.000,3479.000,3464.000
2343.234,3449.000,3480.000,3462.000
2346.541,3495.000,3472.000,3467.000
2349.847,3455.000,3485.000,3495.000
2353.151,3471.000,3447.000,3474.000
2356.455,3478.000,3506.000,3486.000
2359.757,3477.000,3453.000,3460.000
2363.058,3486.000,3484.000,3479.000
2366.357,3465.000,3475.000,3476.000
2369.656,3493.000,3511.000,3476.000
2372.952,3474.000,3468.000,3491.000
2376.248,3500.000,3465.000,3508.000
2379.542,3462.000,3472.000,3472.000
2382.835,3501.000,3480.000,3496.000
2386.126,3488.000,3477.000,3487.000
2389.416,3501.000,3495.000,3504.000
2392.706,3494.000,3468.000,3503.000
2395.993,3478.000,3520.000,3513.000
2399.279,3486.000,3491.000,3501.000
2402.564,3482.000,3466.000,3473.000
2405.848,3487.000,3467.000,3494.000
2409.130,3472.000,3505.000,3490.000
2412.413,3489.000,3473.000,3484.000
2415.692,3503.000,3484.000,3486.000
2418.970,3466.000,3458.000,3500.000
2422.247,3487.000,3481.000,3474.000
2425.523,3511.000,3508.000,3488.000
2428.798,3504.000,3515.000,3502.000
2432.070,3505.000,3481.000,3481.000
2435.343,3476.000,3488.000,3499.000
2438.613,3492.000,3493.000,3470.000
2441.882,3506.000,3516.000,3491.000
2445.150,3475.000,3494.000,3495.000
2448.416,3506.000,3495.000,3483.000
2451.682,3491.000,3472.000,3494.000
2454.946,3513.000,3480.000,3488.000
2458.208,3477.000,3510.000,3527.000
2461.470,3494.000,3507.000,3501.000
2464.730,3510.000,3512.000,3483.000
2467.988,3492.000,3499.000,3503.000
2471.247,3514.000,3493.000,3516.000
2474.503,3487.000,3498.000,3515.000
2477.756,3508.000,3482.000,3493.000
2481.010,3512.000,3507.000,3515.000
2484.263,3496.000,3506.000,3496.000
2487.513,3497.000,3497.000,3497.000
2490.764,3492.000,3478.000,3521.000
2494.012,3515.000,3499.000,3517.000
2497.258,3509.000,3488.000,3527.000
2500.505,3500.000,3490.000,3516.000
2503.750,3497.000,3516.000,3513.000
2506.992,3512.000,3524.000,3493.000
2510.234,3525.000,3516.000,3500.000
2513.475,3496.000,3487.000,3477.000
2516.714,3515.000,3518.000,3496.000
2519.952,3554.000,3528.000,3521.000
2523.189,3505.000,3518.000,3516.000
2526.424,3523.000,3499.000,3520.000
2529.659,3510.000,3524.000,3499.000
2532.892,3484.000,3548.000,3519.000
2536.124,3550.000,3538.000,3526.000
2539.353,3526.000,3520.000,3513.000
2542.582,3524.000,3529.000,3515.000
2545.811,3524.000,3525.000,3544.000
2549.036,3538.000,3525.000,3524.000
2552.262,3540.000,3522.000,3532.000
2555.486,3533.000,3515.000,3518.000
2558.708,3522.000,3529.000,3535.000
2561.929,3524.000,3549.000,3520.000
2565.149,3513.000,3560.000,3520.000
2568.368,3508.000,3530.000,3538.000
2571.586,3554.000,3539.000,3543.000
2574.803,3528.000,3521.000,3513.000
2578.017,3534.000,3563.000,3561.000
2581.231,3547.000,3513.000,3517.000
2584.443,3497.000,3558.000,3560.000
2587.655,3519.000,3556.000,3517.000
2590.866,3530.000,3527.000,3507.000
2594.075,3545.000,3541.000,3524.000
2597.282,3528.000,3516.000,3531.000
2600.488,3551.000,3531.000,3521.000
2603.693,3553.000,3534.000,3542.000
2606.896,3543.000,3544.000,3523.000
2610.099,3547.000,3549.000,3530.000
2613.300,3563.000,3537.000,3547.000
2616.499,3546.000,3568.000,3566.000
2619.698,3563.000,3545.000,3521.000
2622.895,3565.000,3552.000,3540.000
2626.091,3563.000,3529.000,3531.000
2629.286,3542.000,3526.000,3550.000
2632.479,3529.000,3562.000,3547.000
2635.672,3547.000,3537.000,3540.000
2638.862,3560.000,3544.000,3540.000
2642.052,3570.000,3565.000,3566.000
2645.240,3545.000,3540.000,3535.000
2648.427,3534.000,3538.000,3554.000
2651.613,3550.000,3555.000,3558.000
2654.797,3553.000,3571.000,3555.000
2657.981,3571.000,3547.000,3566.000
2661.163,3547.000,3561.000,3557.000
2664.343,3548.000,3534.000,3555.000
2667.524,3553.000,3534.000,3570.000
2670.702,3545.000,3561.000,3562.000
2673.879,3564.000,3551.000,3554.000
2677.055,3572.000,3578.000,3523.000
2680.229,3582.000,3565.000,3550.000
2683.403,3578.000,3546.000,3543.000
2686.575,3558.000,3568.000,3555.000
2689.745,3540.000,3547.000,3555.000
2692.915,3567.000,3557.000,3588.000
2696.083,3578.000,3558.000,3573.000
2699.251,3556.000,3563.000,3582.000
2702.416,3586.000,3559.000,3587.000
2705.581,3578.000,3583.000,3563.000
2708.744,3593.000,3577.000,3576.000
2711.906,3574.000,3557.000,3573.000
2715.067,3572.000,3589.000,3544.000
2718.227,3583.000,3593.000,3561.000
2721.386,3615.000,3580.000,3577.000
2724.544,3572.000,3607.000,3571.000
2727.700,3573.000,3559.000,3559.000
2730.855,3591.000,3555.000,3569.000
2734.008,3538.000,3576.000,3547.000
2737.160,3557.000,3575.000,3573.000
2740.311,3575.000,3594.000,3554.000
2743.460,3574.000,3579.000,3574.000
2746.609,3529.000,3577.000,3571.000
2749.756,3540.000,3576.000,3605.000
2752.903,3576.000,3570.000,3569.000
2756.047,3569.000,3567.000,3565.000
2759.191,3580.000,3589.000,3583.000
2762.334,3575.000,3572.000,3602.000
2765.475,3586.000,3571.000,3598.000
2768.614,3575.000,3600.000,3585.000
2771.753,3594.000,3585.000,3572.000
2774.890,3574.000,3607.000,3581.000
2778.027,3569.000,3563.000,3587.000
2781.162,3589.000,3560.000,3599.000
2784.295,3617.000,3573.000,3553.000
2787.427,3614.000,3593.000,3591.000
2790.559,3584.000,3567.000,3581.000
2793.689,3584.000,3570.000,3563.000
2796.817,3593.000,3555.000,3572.000
2799.945,3566.000,3597.000,3559.000
2803.071,3614.000,3569.000,3600.000
2806.197,3574.000,3620.000,3610.000
2809.320,3607.000,3604.000,3581.000
2812.444,3592.000,3602.000,3584.000
2815.565,3586.000,3611.000,3587.000
2818.685,3585.000,3588.000,3630.000
2821.804,3624.000,3635.000,3594.000
2824.922,3578.000,3598.000,3576.000
2828.039,3618.000,3557.000,3552.000
2831.154,3610.000,3614.000,3608.000
2834.268,3595.000,3608.000,3597.000
2837.381,3602.000,3662.000,3635.000
2840.493,3603.000,3600.000,3615.000
2843.603,3604.000,3608.000,3647.000
2846.713,3614.000,3634.000,3619.000
2849.821,3640.000,3598.000,3606.000
2852.927,3612.000,3601.000,3632.000
2856.033,3628.000,3602.000,3608.000
2859.138,3606.000,3582.000,3627.000
2862.241,3656.000,3611.000,3618.000
2865.343,3634.000,3619.000,3619.000
2868.444,3627.000,3611.000,3622.000
2871.543,3651.000,3619.000,3641.000
2874.642,3630.000,3613.000,3632.000
2877.740,3626.000,3655.000,3683.000
2880.835,3634.000,3660.000,3655.000
2883.930,3639.000,3641.000,3659.000
2887.024,3657.000,3657.000,3648.000
2890.116,3666.000,3632.000,3618.000
2893.208,3633.000,3673.000,3625.000
2896.299,3634.000,3650.000,3647.000
2899.387,3658.000,3653.000,3637.000
2902.476,3631.000,3642.000,3627.000
2905.562,3661.000,3675.000,3674.000
2908.647,3684.000,3660.000,3652.000
2911.731,3672.000,3628.000,3671.000
2914.813,3652.000,3699.000,3643.000
2917.895,3681.000,3680.000,3679.000
2920.976,3679.000,3667.000,3644.000
2924.056,3685.000,3655.000,3659.000
2927.134,3659.000,3687.000,3645.000
2930.210,3669.000,3701.000,3692.000
2933.286,3696.000,3673.000,3672.000
2936.359,3696.000,3652.000,3669.000
2939.433,3680.000,3700.000,3686.000
2942.505,3666.000,3665.000,3684.000
2945.576,3689.000,3693.000,3652.000
2948.646,3693.000,3697.000,3684.000
2951.715,3689.000,3711.000,3678.000
2954.782,3674.000,3684.000,3703.000
2957.847,3694.000,3674.000,3667.000
2960.913,3657.000,3694.000,3710.000
2963.977,3684.000,3678.000,3692.000
2967.040,3719.000,3710.000,3735.000
2970.100,3683.000,3729.000,3685.000
2973.161,3693.000,3692.000,3673.000
2976.220,3700.000,3662.000,3677.000
2979.277,3691.000,3697.000,3696.000
2982.334,3676.000,3691.000,3701.000
2985.390,3735.000,3724.000,3713.000
2988.444,3703.000,3696.000,3715.000
2991.497,3687.000,3704.000,3730.000
2994.550,3720.000,3739.000,3707.000
2997.600,3678.000,3700.000,3685.000
3000.650,3700.000,3731.000,3719.000
3003.698,3733.000,3691.000,3685.000
3006.745,3745.000,3713.000,3693.000
3009.791,3699.000,3708.000,3709.000
3012.836,3698.000,3702.000,3696.000
3015.880,3699.000,3742.000,3708.000
3018.922,3729.000,3714.000,3692.000
3021.964,3717.000,3707.000,3727.000
3025.004,3707.000,3731.000,3699.000
3028.045,3715.000,3719.000,3711.000
3031.082,3739.000,3762.000,3697.000
3034.119,3717.000,3736.000,3730.000
3037.154,3765.000,3701.000,3705.000
3040.189,3748.000,3738.000,3710.000
3043.222,3713.000,3741.000,3714.000
3046.254,3737.000,3723.000,3728.000
3049.285,3741.000,3745.000,3746.000
3052.315,3737.000,3764.000,3751.000
3055.343,3747.000,3754.000,3726.000
3058.371,3723.000,3763.000,3760.000
3061.397,3789.000,3738.000,3783.000
3064.422,3766.000,3735.000,3758.000
3067.445,3775.000,3754.000,3752.000
3070.468,3763.000,3745.000,3746.000
3073.490,3775.000,3784.000,3729.000
3076.510,3740.000,3782.000,3777.000
3079.529,3742.000,3738.000,3756.000
3082.547,3756.000,3768.000,3734.000
3085.564,3799.000,3782.000,3758.000
3088.580,3787.000,3761.000,3779.000
3091.595,3807.000,3779.000,3774.000
3094.607,3787.000,3764.000,3800.000
3097.620,3794.000,3735.000,3760.000
3100.631,3780.000,3762.000,3779.000
3103.641,3803.000,3775.000,3751.000
3106.649,3792.000,3773.000,3782.000
3109.658,3797.000,3810.000,3801.000
3112.665,3791.000,3794.000,3792.000
3115.669,3816.000,3782.000,3807.000
3118.674,3781.000,3746.000,3795.000
3121.676,3785.000,3801.000,3804.000
3124.679,3755.000,3803.000,3809.000
3127.679,3783.000,3812.000,3788.000
3130.679,3803.000,3817.000,3774.000
3133.678,3823.000,3807.000,3801.000
3136.674,3818.000,3811.000,3798.000
3139.671,3826.000,3814.000,3824.000
3142.666,3810.000,3835.000,3854.000
3145.659,3827.000,3848.000,3808.000
3148.652,3831.000,3786.000,3841.000
3151.644,3825.000,3819.000,3843.000
3154.635,3815.000,3804.000,3797.000
3157.623,3834.000,3841.000,3841.000
3160.611,3828.000,3849.000,3841.000
3163.599,3868.000,3863.000,3823.000
3166.585,3829.000,3788.000,3803.000
3169.570,3844.000,3827.000,3817.000
3172.552,3820.000,3841.000,3841.000
3175.535,3841.000,3803.000,3793.000
3178.516,3812.000,3842.000,3854.000
3181.496,3828.000,3843.000,3835.000
3184.475,3870.000,3834.000,3849.000
3187.453,3855.000,3842.000,3835.000
3190.430,3864.000,3840.000,3871.000
3193.407,3887.000,3884.000,3840.000
3196.381,3840.000,3822.000,3835.000
3199.356,3898.000,3840.000,3868.000
3202.328,3884.000,3831.000,3857.000
3205.299,3869.000,3877.000,3867.000
3208.268,3879.000,3884.000,3880.000
3211.237,3872.000,3855.000,3851.000
3214.204,3867.000,3869.000,3875.000
3217.172,3850.000,3875.000,3865.000
3220.137,3908.000,3879.000,3857.000
3223.101,3878.000,3853.000,3902.000
3226.065,3917.000,3896.000,3875.000
3229.026,3878.000,3877.000,3901.000
3231.987,3924.000,3913.000,3897.000
3234.947,3881.000,3883.000,3887.000
3237.905,3901.000,3910.000,3901.000
3240.864,3901.000,3891.000,3947.000
3243.819,3882.000,3895.000,3907.000
3246.775,3945.000,3904.000,3885.000
3249.729,3909.000,3919.000,3895.000
3252.682,3959.000,3924.000,3935.000
3255.634,3923.000,3915.000,3918.000
3258.584,3923.000,3912.000,3931.000
3261.534,3943.000,3890.000,3928.000
3264.483,3916.000,3897.000,3872.000
3267.431,3906.000,3908.000,3899.000
3270.377,3926.000,3904.000,3912.000
3273.322,3974.000,3944.000,3966.000
3276.267,3942.000,3948.000,3931.000
3279.210,3940.000,3925.000,3956.000
3282.151,3959.000,3940.000,3939.000
3285.092,3960.000,3941.000,3922.000
3288.032,3971.000,3936.000,3951.000
3290.970,3953.000,3912.000,3940.000
3293.907,3914.000,3969.000,3941.000
3296.843,3983.000,3964.000,3941.000
3299.779,3982.000,3941.000,3940.000
3302.713,3961.000,3970.000,3938.000
3305.645,3938.000,3923.000,3996.000
3308.578,3949.000,3965.000,3966.000
3311.508,3939.000,3967.000,3971.000
3314.438,3968.000,3924.000,3952.000
3317.366,3952.000,3989.000,3951.000
3320.295,3988.000,3960.000,3935.000
3323.222,3999.000,3973.000,3962.000
3326.147,3943.000,3977.000,3932.000
3329.070,4025.000,4005.000,3972.000
3331.993,3994.000,3990.000,3994.000
3334.915,3991.000,3948.000,4000.000
3337.836,3976.000,4021.000,3999.000
3340.756,3980.000,3946.000,3983.000
3343.675,3972.000,4024.000,3969.000
3346.592,4025.000,4001.000,4008.000
3349.508,4021.000,3969.000,3979.000
3352.424,3982.000,3979.000,3980.000
3355.338,4006.000,4005.000,3996.000
3358.251,3986.000,4015.000,3996.000
3361.162,4007.000,3983.000,4004.000
3364.074,4003.000,3946.000,3979.000
3366.983,4033.000,4000.000,4025.000
3369.892,4009.000,4002.000,4010.000
3372.799,4045.000,4036.000,4012.000
3375.706,4031.000,4054.000,4016.000
3378.612,4011.000,4028.000,4003.000
3381.517,4020.000,4012.000,4058.000
3384.419,4003.000,4045.000,4013.000
3387.321,4010.000,4036.000,4012.000
3390.222,4039.000,4017.000,4032.000
3393.122,4052.000,4039.000,4018.000
3396.021,4058.000,4051.000,4037.000
3398.918,4043.000,4045.000,4030.000
3401.816,4070.000,4017.000,4075.000
3404.711,4039.000,4047.000,4060.000
3407.605,4040.000,4064.000,4083.000
3410.499,4024.000,4046.000,4088.000
3413.391,4080.000,4036.000,4061.000
3416.283,4064.000,4076.000,4055.000
3419.172,4068.000,4035.000,4015.000
3422.062,4056.000,4029.000,4059.000
3424.950,4083.000,4076.000,4081.000
3427.836,4071.000,4084.000,4078.000
3430.722,4033.000,4051.000,4054.000
3433.607,4060.000,4072.000,4063.000
3436.490,4060.000,4074.000,4061.000
3439.373,4083.000,4069.000,4041.000
3442.254,4080.000,4060.000,4117.000
3445.135,4078.000,4119.000,4065.000
3448.014,4047.000,4059.000,4017.000
3450.892,4080.000,4078.000,4096.000
3453.770,4093.000,4094.000,4146.000
3456.645,4106.000,4083.000,4083.000
3459.521,4057.000,4083.000,4077.000
3462.394,4112.000,4085.000,4072.000
3465.267,4070.000,4072.000,4066.000
3468.139,4098.000,4085.000,4069.000
3471.010,4100.000,4066.000,4097.000
3473.879,4120.000,4116.000,4113.000
3476.749,4147.000,4150.000,4104.000
3479.616,4082.000,4106.000,4140.000
3482.482,4094.000,4119.000,4115.000
3485.349,4106.000,4119.000,4150.000
3488.212,4101.000,4110.000,4122.000
3491.075,4115.000,4119.000,4116.000
3493.938,4119.000,4131.000,4113.000
3496.798,4099.000,4099.000,4084.000
3499.658,4121.000,4128.000,4069.000
3502.517,4131.000,4089.000,4134.000
3505.375,4136.000,4114.000,4157.000
3508.232,4124.000,4128.000,4134.000
3511.088,4137.000,4134.000,4178.000
3513.942,4158.000,4126.000,4140.000
3516.796,4137.000,4117.000,4096.000
3519.648,4120.000,4148.000,4125.000
3522.499,4186.000,4114.000,4139.000
3525.350,4175.000,4110.000,4135.000
3528.199,4140.000,4133.000,4177.000
3531.047,4175.000,4144.000,4214.000
3533.895,4123.000,4138.000,4168.000
3536.740,4205.000,4131.000,4160.000
3539.585,4180.000,4163.000,4157.000
3542.429,4153.000,4154.000,4118.000
3545.272,4169.000,4202.000,4164.000
3548.114,4194.000,4171.000,4162.000
3550.956,4194.000,4148.000,4179.000
3553.795,4167.000,4163.000,4180.000
3556.633,4201.000,4200.000,4219.000
3559.471,4188.000,4194.000,4179.000
3562.307,4214.000,4236.000,4233.000
3565.143,4228.000,4161.000,4232.000
3567.978,4223.000,4229.000,4203.000
3570.811,4213.000,4267.000,4241.000
3573.644,4229.000,4250.000,4262.000
3576.475,4210.000,4248.000,4196.000
3579.305,4256.000,4251.000,4269.000
3582.134,4266.000,4247.000,4250.000
3584.963,4282.000,4256.000,4291.000
3587.789,4306.000,4289.000,4296.000
3590.616,4282.000,4261.000,4287.000
3593.440,4266.000,4297.000,4272.000
3596.264,4280.000,4278.000,4293.000
3599.089,4311.000,4287.000,4295.000
3601.911,4293.000,4312.000,4296.000
3604.731,4303.000,4276.000,4345.000
3607.551,4292.000,4295.000,4278.000
3610.369,4297.000,4224.000,4288.000
3613.188,4303.000,4274.000,4289.000
3616.004,4263.000,4268.000,4269.000
3618.820,4260.000,4250.000,4258.000
3621.634,4246.000,4259.000,4268.000
3624.447,4221.000,4234.000,4219.000
3627.260,4222.000,4226.000,4256.000
3630.071,4295.000,4223.000,4257.000
3632.882,4248.000,4232.000,4251.000
3635.691,4247.000,4276.000,4223.000
3638.499,4238.000,4286.000,4268.000
3641.307,4241.000,4211.000,4258.000
3644.112,4243.000,4253.000,4255.000
3646.918,4272.000,4251.000,4244.000
3649.721,4256.000,4274.000,4251.000
3652.524,4248.000,4272.000,4253.000
3655.327,4273.000,4271.000,4259.000
3658.127,4249.000,4281.000,4274.000
3660.927,4297.000,4273.000,4265.000
3663.727,4288.000,4306.000,4268.000
3666.525,4280.000,4274.000,4223.000
3669.321,4288.000,4294.000,4277.000
3672.117,4242.000,4259.000,4249.000