File: Raman/Silica/2025_09_12_12pct_Hydrated_SiO2_Glass_on_DAC_Culet_50X_532nm_74mW_Andor750_600gv_1030wn_6accum_30s_DePol_Loc5_DAC2.csv
23.130,2801.000,2751.000,2720.000,2742.000,2704.000,2717.000
27.007,2394.000,2396.000,2454.000,2428.000,2383.000,2408.000
30.879,2468.000,2333.000,2392.000,2424.000,2397.000,2376.000
34.751,2464.000,2428.000,2485.000,2483.000,2435.000,2456.000
38.619,2461.000,2460.000,2468.000,2441.000,2407.000,2442.000
42.489,2507.000,2455.000,2479.000,2459.000,2473.000,2483.000
46.355,2590.000,2643.000,2596.000,2594.000,2563.000,2555.000
50.221,2469.000,2496.000,2476.000,2475.000,2479.000,2428.000
54.083,2585.000,2502.000,2596.000,2572.000,2598.000,2537.000
57.946,2532.000,2507.000,2514.000,2508.000,2553.000,2516.000
61.807,2468.000,2420.000,2408.000,2405.000,2393.000,2449.000
65.665,2397.000,2440.000,2427.000,2421.000,2377.000,2399.000
69.523,2492.000,2501.000,2495.000,2469.000,2472.000,2435.000
73.377,2350.000,2311.000,2279.000,2235.000,2268.000,2300.000
77.233,2313.000,2306.000,2275.000,2333.000,2245.000,2335.000
81.084,2264.000,2256.000,2277.000,2263.000,2289.000,2283.000
84.936,2271.000,2220.000,2252.000,2222.000,2212.000,2217.000
88.784,2153.000,2121.000,2136.000,2177.000,2132.000,2162.000
92.632,2163.000,2177.000,2177.000,2131.000,2136.000,2147.000
96.480,2030.000,2052.000,2029.000,2052.000,2001.000,2072.000
100.323,2141.000,2120.000,2110.000,2117.000,2117.000,2082.000
104.167,1971.000,1935.000,2007.000,1993.000,1983.000,2017.000
108.007,1978.000,1984.000,1984.000,1932.000,1956.000,1965.000
111.848,1944.000,1939.000,1911.000,1891.000,1880.000,1899.000
115.685,1966.000,1936.000,1944.000,1930.000,1933.000,1968.000
119.522,1872.000,1829.000,1829.000,1843.000,1844.000,1818.000
123.359,1859.000,1854.000,1815.000,1856.000,1849.000,1848.000
127.190,1778.000,1766.000,1756.000,1748.000,1727.000,1744.000
131.024,1819.000,1784.000,1782.000,1780.000,1804.000,1807.000
134.853,1739.000,1712.000,1734.000,1740.000,1727.000,1708.000
138.683,1692.000,1687.000,1747.000,1687.000,1650.000,1683.000
142.508,1711.000,1691.000,1673.000,1669.000,1683.000,1657.000
146.335,1700.000,1689.000,1671.000,1670.000,1663.000,1677.000
150.158,1591.000,1597.000,1616.000,1590.000,1609.000,1599.000
153.982,1615.000,1603.000,1621.000,1612.000,1577.000,1596.000
157.804,1586.000,1607.000,1584.000,1598.000,1598.000,1564.000
161.621,1547.000,1542.000,1555.000,1522.000,1547.000,1536.000
165.441,1531.000,1551.000,1530.000,1545.000,1497.000,1526.000
169.256,1530.000,1508.000,1539.000,1521.000,1520.000,1516.000
173.071,1499.000,1483.000,1460.000,1435.000,1495.000,1461.000
176.883,1485.000,1472.000,1508.000,1486.000,1490.000,1454.000
180.696,1458.000,1471.000,1441.000,1455.000,1467.000,1421.000
184.504,1430.000,1424.000,1430.000,1432.000,1405.000,1443.000
188.314,1465.000,1428.000,1439.000,1433.000,1458.000,1415.000
192.122,1441.000,1428.000,1400.000,1413.000,1409.000,1396.000
195.925,1409.000,1413.000,1381.000,1385.000,1421.000,1359.000
199.731,1396.000,1404.000,1400.000,1402.000,1389.000,1406.000
203.532,1348.000,1384.000,1383.000,1390.000,1375.000,1387.000
207.333,1340.000,1356.000,1375.000,1353.000,1382.000,1347.000
211.132,1392.000,1361.000,1362.000,1378.000,1349.000,1398.000
214.929,1370.000,1369.000,1362.000,1365.000,1371.000,1370.000
218.724,1331.000,1315.000,1327.000,1324.000,1334.000,1310.000
222.519,1373.000,1344.000,1333.000,1362.000,1372.000,1355.000
226.313,1346.000,1328.000,1329.000,1338.000,1337.000,1317.000
230.104,1328.000,1342.000,1321.000,1336.000,1266.000,1308.000
233.894,1357.000,1363.000,1292.000,1329.000,1363.000,1320.000
237.681,1317.000,1321.000,1332.000,1331.000,1293.000,1322.000
241.469,1283.000,1288.000,1304.000,1289.000,1304.000,1303.000
245.253,1319.000,1313.000,1301.000,1324.000,1303.000,1288.000
249.038,1291.000,1271.000,1311.000,1292.000,1300.000,1298.000
252.819,1299.000,1273.000,1290.000,1289.000,1274.000,1272.000
256.600,1300.000,1307.000,1293.000,1278.000,1292.000,1282.000
260.380,1304.000,1325.000,1279.000,1274.000,1295.000,1273.000
264.156,1255.000,1274.000,1292.000,1287.000,1261.000,1256.000
267.933,1287.000,1286.000,1291.000,1282.000,1286.000,1276.000
271.707,1307.000,1267.000,1276.000,1277.000,1290.000,1261.000
275.480,1269.000,1282.000,1266.000,1284.000,1279.000,1258.000
279.251,1302.000,1278.000,1284.000,1281.000,1275.000,1259.000
283.021,1263.000,1254.000,1273.000,1282.000,1256.000,1262.000
286.790,1249.000,1273.000,1276.000,1298.000,1271.000,1254.000
290.556,1292.000,1273.000,1280.000,1268.000,1291.000,1259.000
294.322,1279.000,1266.000,1258.000,1258.000,1279.000,1227.000
298.084,1267.000,1288.000,1279.000,1240.000,1253.000,1251.000
301.847,1269.000,1259.000,1282.000,1286.000,1258.000,1281.000
305.607,1307.000,1243.000,1265.000,1232.000,1214.000,1250.000
309.367,1277.000,1265.000,1259.000,1260.000,1285.000,1261.000
313.123,1294.000,1287.000,1243.000,1279.000,1273.000,1250.000
316.880,1259.000,1292.000,1285.000,1242.000,1258.000,1258.000
320.635,1272.000,1244.000,1282.000,1259.000,1282.000,1256.000
324.387,1274.000,1295.000,1271.000,1272.000,1279.000,1291.000
328.139,1261.000,1249.000,1249.000,1259.000,1255.000,1239.000
331.888,1291.000,1293.000,1268.000,1243.000,1278.000,1243.000
335.638,1301.000,1277.000,1277.000,1286.000,1280.000,1252.000
339.384,1249.000,1277.000,1278.000,1275.000,1304.000,1250.000
343.130,1326.000,1295.000,1280.000,1279.000,1264.000,1260.000
346.873,1280.000,1302.000,1280.000,1283.000,1291.000,1300.000
350.616,1287.000,1289.000,1270.000,1254.000,1271.000,1263.000
354.357,1327.000,1291.000,1306.000,1256.000,1271.000,1276.000
358.095,1307.000,1313.000,1288.000,1315.000,1279.000,1305.000
361.835,1294.000,1265.000,1293.000,1286.000,1283.000,1300.000
365.569,1319.000,1291.000,1289.000,1292.000,1286.000,1268.000
369.305,1299.000,1308.000,1333.000,1317.000,1297.000,1278.000
373.037,1312.000,1301.000,1301.000,1293.000,1314.000,1285.000
376.770,1343.000,1302.000,1302.000,1281.000,1279.000,1292.000
380.498,1338.000,1324.000,1319.000,1323.000,1315.000,1308.000
384.228,1296.000,1298.000,1292.000,1334.000,1297.000,1291.000
387.956,1321.000,1305.000,1316.000,1310.000,1286.000,1305.000
391.681,1334.000,1325.000,1324.000,1305.000,1347.000,1334.000
395.405,1303.000,1311.000,1318.000,1291.000,1311.000,1307.000
399.127,1329.000,1323.000,1319.000,1312.000,1319.000,1326.000
402.849,1346.000,1320.000,1319.000,1330.000,1324.000,1307.000
406.567,1346.000,1331.000,1319.000,1338.000,1321.000,1334.000
410.287,1315.000,1334.000,1328.000,1334.000,1296.000,1318.000
414.003,1335.000,1314.000,1354.000,1310.000,1320.000,1299.000
417.719,1330.000,1339.000,1341.000,1333.000,1327.000,1315.000
421.432,1315.000,1335.000,1363.000,1318.000,1330.000,1295.000
425.144,1332.000,1329.000,1336.000,1339.000,1372.000,1304.000
428.855,1352.000,1324.000,1339.000,1360.000,1314.000,1326.000
432.563,1336.000,1364.000,1369.000,1328.000,1336.000,1332.000
436.272,1395.000,1367.000,1346.000,1335.000,1363.000,1341.000
439.977,1388.000,1344.000,1327.000,1362.000,1343.000,1355.000
443.683,1386.000,1351.000,1358.000,1359.000,1323.000,1334.000
447.386,1338.000,1400.000,1373.000,1354.000,1363.000,1359.000
451.087,1373.000,1392.000,1362.000,1360.000,1353.000,1345.000
454.788,1396.000,1384.000,1374.000,1386.000,1377.000,1340.000
458.485,1404.000,1395.000,1428.000,1395.000,1369.000,1404.000
462.183,1396.000,1397.000,1393.000,1376.000,1410.000,1405.000
465.879,1415.000,1394.000,1390.000,1398.000,1386.000,1362.000
469.574,1438.000,1382.000,1373.000,1377.000,1422.000,1409.000
473.265,1399.000,1382.000,1413.000,1400.000,1417.000,1374.000
476.957,1399.000,1386.000,1415.000,1384.000,1371.000,1357.000
480.647,1391.000,1395.000,1392.000,1396.000,1385.000,1392.000
484.335,1407.000,1368.000,1382.000,1383.000,1347.000,1387.000
488.022,1366.000,1367.000,1371.000,1383.000,1363.000,1337.000
491.706,1320.000,1339.000,1339.000,1373.000,1284.000,1307.000
495.391,1289.000,1301.000,1286.000,1325.000,1313.000,1289.000
499.072,1258.000,1260.000,1256.000,1259.000,1251.000,1236.000
502.754,1203.000,1183.000,1191.000,1213.000,1209.000,1175.000
506.432,1184.000,1141.000,1175.000,1151.000,1156.000,1149.000
510.111,1135.000,1119.000,1105.000,1098.000,1105.000,1098.000
513.788,1089.000,1092.000,1087.000,1082.000,1087.000,1087.000
517.462,1070.000,1061.000,1056.000,1038.000,1048.000,1044.000
521.136,1041.000,1021.000,1012.000,1019.000,1057.000,1032.000
524.807,1022.000,1002.000,988.000,1012.000,1012.000,1029.000
528.479,986.000,1020.000,980.000,1000.000,999.000,990.000
532.147,1009.000,992.000,986.000,1002.000,985.000,1011.000
535.815,991.000,974.000,985.000,957.000,986.000,975.000
539.480,984.000,964.000,978.000,975.000,954.000,964.000
543.145,966.000,975.000,957.000,963.000,955.000,950.000
546.809,971.000,961.000,958.000,947.000,959.000,951.000
550.469,961.000,958.000,974.000,968.000,949.000,950.000
554.131,949.000,952.000,949.000,957.000,924.000,948.000
557.788,934.000,947.000,945.000,927.000,935.000,951.000
561.446,936.000,946.000,927.000,927.000,934.000,926.000
565.100,932.000,943.000,918.000,917.000,924.000,906.000
568.756,925.000,933.000,927.000,915.000,946.000,920.000
572.408,928.000,907.000,916.000,905.000,915.000,916.000
576.060,911.000,914.000,901.000,898.000,906.000,908.000
579.711,914.000,902.000,916.000,902.000,900.000,904.000
583.358,915.000,904.000,920.000,899.000,911.000,885.000
587.006,916.000,909.000,884.000,904.000,904.000,910.000
590.650,905.000,907.000,901.000,889.000,890.000,875.000
594.295,906.000,910.000,891.000,895.000,890.000,910.000
597.937,889.000,897.000,896.000,902.000,864.000,886.000
601.579,891.000,892.000,901.000,896.000,889.000,891.000
605.217,906.000,884.000,890.000,886.000,876.000,880.000
608.856,906.000,886.000,904.000,878.000,902.000,885.000
612.494,873.000,889.000,882.000,883.000,884.000,870.000
616.129,890.000,889.000,896.000,894.000,876.000,874.000
619.763,872.000,889.000,897.000,869.000,887.000,869.000
623.394,895.000,867.000,867.000,872.000,877.000,869.000
627.026,874.000,880.000,861.000,889.000,878.000,863.000
630.655,884.000,867.000,875.000,865.000,864.000,856.000
634.284,883.000,862.000,855.000,880.000,869.000,853.000
637.911,874.000,880.000,886.000,853.000,880.000,856.000
641.535,869.000,880.000,858.000,863.000,856.000,868.000
645.160,863.000,860.000,865.000,860.000,862.000,851.000
648.781,881.000,871.000,867.000,855.000,863.000,854.000
652.403,879.000,878.000,867.000,861.000,863.000,855.000
656.021,876.000,855.000,855.000,869.000,859.000,855.000
659.640,892.000,843.000,868.000,872.000,843.000,854.000
663.256,881.000,875.000,862.000,844.000,850.000,861.000
666.872,882.000,872.000,885.000,842.000,863.000,862.000
670.485,871.000,856.000,857.000,860.000,881.000,861.000
674.097,877.000,874.000,862.000,842.000,848.000,855.000
677.709,884.000,861.000,861.000,853.000,856.000,850.000
681.317,880.000,882.000,867.000,877.000,866.000,850.000
684.926,875.000,866.000,870.000,863.000,869.000,870.000
688.531,871.000,873.000,871.000,879.000,856.000,843.000
692.136,864.000,841.000,865.000,874.000,862.000,856.000
695.739,875.000,874.000,860.000,875.000,873.000,845.000
699.342,875.000,851.000,863.000,860.000,868.000,873.000
702.944,881.000,875.000,874.000,871.000,845.000,869.000
706.542,894.000,860.000,872.000,881.000,880.000,857.000
710.141,879.000,874.000,881.000,871.000,857.000,867.000
713.736,881.000,874.000,865.000,868.000,896.000,866.000
717.332,878.000,882.000,866.000,874.000,860.000,871.000
720.925,881.000,884.000,884.000,874.000,880.000,852.000
724.517,866.000,875.000,876.000,859.000,873.000,856.000
728.106,889.000,878.000,880.000,877.000,885.000,868.000
731.697,872.000,880.000,866.000,876.000,868.000,885.000
735.286,889.000,892.000,887.000,865.000,875.000,875.000
738.871,888.000,886.000,873.000,871.000,862.000,877.000
742.457,886.000,883.000,878.000,886.000,888.000,878.000
746.039,901.000,875.000,873.000,890.000,866.000,851.000
749.622,893.000,873.000,877.000,883.000,893.000,868.000
753.202,894.000,895.000,875.000,893.000,888.000,878.000
756.782,897.000,882.000,883.000,856.000,892.000,880.000
760.360,898.000,885.000,917.000,893.000,894.000,907.000
763.937,922.000,927.000,906.000,919.000,903.000,897.000
767.512,941.000,925.000,942.000,924.000,925.000,914.000
771.085,969.000,961.000,929.000,947.000,955.000,939.000
774.657,1000.000,967.000,983.000,963.000,974.000,965.000
778.228,1017.000,992.000,1004.000,1003.000,987.000,995.000
781.797,1042.000,1017.000,1022.000,1032.000,1016.000,1006.000
785.364,1029.000,1029.000,1021.000,1035.000,1019.000,1023.000
788.932,1021.000,1020.000,1048.000,1014.000,1036.000,998.000
792.498,1025.000,1051.000,1021.000,1024.000,1015.000,998.000
796.060,1031.000,1034.000,1014.000,1036.000,1021.000,997.000
799.624,1061.000,1020.000,1023.000,1032.000,1025.000,1010.000
803.184,1005.000,1012.000,1027.000,1022.000,1009.000,1031.000
806.744,1001.000,1014.000,1023.000,1005.000,1019.000,997.000
810.301,998.000,1001.000,1002.000,1016.000,985.000,1005.000
813.859,1015.000,1002.000,983.000,1006.000,981.000,994.000
817.413,978.000,1004.000,987.000,968.000,984.000,978.000
820.967,978.000,971.000,984.000,967.000,986.000,979.000
824.520,959.000,971.000,958.000,972.000,966.000,945.000
828.071,973.000,962.000,974.000,952.000,939.000,951.000
831.622,959.000,955.000,940.000,938.000,943.000,950.000
835.169,938.000,947.000,931.000,920.000,918.000,915.000
838.716,928.000,914.000,905.000,923.000,924.000,898.000
842.261,927.000,911.000,904.000,911.000,893.000,897.000
845.806,938.000,895.000,892.000,885.000,891.000,873.000
849.347,899.000,890.000,885.000,882.000,896.000,879.000
852.890,881.000,875.000,884.000,868.000,880.000,871.000
856.430,879.000,895.000,860.000,868.000,885.000,850.000
859.968,890.000,880.000,865.000,867.000,862.000,859.000
863.506,883.000,881.000,875.000,882.000,875.000,855.000
867.040,887.000,892.000,874.000,867.000,880.000,842.000
870.574,890.000,885.000,870.000,878.000,872.000,852.000
874.106,903.000,864.000,867.000,861.000,865.000,866.000
877.640,897.000,868.000,866.000,891.000,875.000,842.000
881.168,867.000,869.000,868.000,867.000,857.000,863.000
884.698,884.000,892.000,856.000,870.000,882.000,874.000
888.226,890.000,864.000,870.000,883.000,867.000,874.000
891.750,879.000,876.000,870.000,866.000,873.000,871.000
895.276,898.000,883.000,876.000,874.000,863.000,873.000
898.798,894.000,882.000,895.000,885.000,857.000,863.000
902.321,909.000,886.000,899.000,862.000,902.000,862.000
905.840,890.000,892.000,886.000,888.000,865.000,855.000
909.360,897.000,885.000,888.000,890.000,882.000,884.000
912.876,891.000,891.000,893.000,884.000,888.000,862.000
916.393,892.000,895.000,893.000,908.000,895.000,888.000
919.909,921.000,906.000,910.000,895.000,914.000,886.000
923.422,923.000,899.000,906.000,902.000,890.000,883.000
926.934,926.000,909.000,896.000,908.000,904.000,863.000
930.444,936.000,915.000,920.000,929.000,911.000,902.000
933.954,941.000,919.000,928.000,904.000,935.000,927.000
937.461,928.000,929.000,907.000,924.000,930.000,903.000
940.968,936.000,962.000,926.000,941.000,919.000,951.000
944.475,947.000,948.000,941.000,921.000,922.000,933.000
947.978,955.000,941.000,935.000,937.000,953.000,949.000
951.481,976.000,951.000,947.000,969.000,961.000,957.000
954.981,995.000,987.000,958.000,983.000,959.000,945.000
958.482,974.000,974.000,951.000,968.000,998.000,962.000
961.979,1003.000,967.000,979.000,960.000,1002.000,959.000
965.476,997.000,1013.000,992.000,995.000,973.000,949.000
968.971,1014.000,992.000,992.000,975.000,987.000,969.000
972.466,977.000,976.000,973.000,969.000,981.000,988.000
975.959,1020.000,982.000,997.000,1001.000,1000.000,980.000
979.451,965.000,985.000,956.000,966.000,985.000,963.000
982.941,977.000,966.000,959.000,962.000,955.000,955.000
986.428,948.000,930.000,957.000,967.000,955.000,923.000
989.917,950.000,960.000,941.000,941.000,938.000,908.000
993.402,955.000,934.000,926.000,912.000,937.000,908.000
996.887,916.000,924.000,913.000,907.000,904.000,896.000
1000.369,899.000,919.000,915.000,924.000,910.000,888.000
1003.852,921.000,907.000,929.000,903.000,910.000,883.000
1007.333,926.000,908.000,892.000,910.000,888.000,880.000
1010.812,915.000,887.000,910.000,900.000,887.000,892.000
1014.290,905.000,898.000,904.000,896.000,897.000,889.000
1017.766,890.000,882.000,877.000,890.000,869.000,887.000
1021.241,918.000,897.000,902.000,908.000,898.000,866.000
1024.714,889.000,919.000,898.000,896.000,893.000,895.000
1028.188,904.000,922.000,911.000,900.000,911.000,869.000
1031.658,919.000,935.000,895.000,907.000,904.000,893.000
1035.128,943.000,935.000,908.000,917.000,893.000,912.000
1038.598,940.000,914.000,909.000,919.000,895.000,899.000
1042.063,912.000,917.000,920.000,928.000,922.000,910.000
1045.530,938.000,940.000,925.000,933.000,910.000,937.000
1048.994,935.000,933.000,942.000,928.000,926.000,936.000
1052.457,936.000,938.000,919.000,920.000,945.000,914.000
1055.917,951.000,931.000,920.000,915.000,927.000,930.000
1059.379,927.000,916.000,926.000,921.000,927.000,919.000
1062.838,930.000,929.000,937.000,903.000,897.000,910.000
1066.294,930.000,919.000,910.000,936.000,915.000,918.000
1069.752,914.000,926.000,910.000,921.000,930.000,896.000
1073.206,927.000,907.000,906.000,919.000,907.000,920.000
1076.660,925.000,940.000,929.000,903.000,914.000,910.000
1080.110,922.000,916.000,894.000,905.000,903.000,897.000
1083.562,910.000,915.000,898.000,899.000,915.000,905.000
1087.011,905.000,893.000,895.000,894.000,892.000,887.000
1090.460,906.000,903.000,865.000,889.000,874.000,876.000
1093.908,892.000,870.000,873.000,872.000,863.000,862.000
1097.351,884.000,878.000,860.000,861.000,848.000,853.000
1100.796,884.000,861.000,849.000,877.000,867.000,861.000
1104.238,873.000,871.000,868.000,860.000,871.000,863.000
1107.681,866.000,856.000,863.000,869.000,859.000,865.000
1111.120,888.000,859.000,872.000,879.000,870.000,845.000
1114.559,883.000,839.000,862.000,860.000,855.000,832.000
1117.995,865.000,861.000,859.000,869.000,861.000,847.000
1121.432,856.000,854.000,867.000,858.000,863.000,869.000
1124.867,880.000,865.000,881.000,864.000,856.000,863.000
1128.300,872.000,859.000,854.000,866.000,869.000,863.000
1131.733,881.000,881.000,866.000,864.000,875.000,870.000
1135.163,870.000,877.000,867.000,871.000,899.000,863.000
1138.593,906.000,888.000,872.000,859.000,869.000,855.000
1142.020,891.000,863.000,887.000,867.000,863.000,854.000
1145.447,890.000,885.000,886.000,871.000,881.000,856.000
1148.872,910.000,895.000,886.000,900.000,874.000,862.000
1152.297,899.000,886.000,887.000,883.000,871.000,868.000
1155.720,899.000,891.000,879.000,884.000,899.000,881.000
1159.141,909.000,891.000,890.000,902.000,895.000,893.000
1162.561,908.000,885.000,887.000,899.000,866.000,860.000
1165.979,903.000,891.000,901.000,882.000,894.000,897.000
1169.397,914.000,913.000,903.000,895.000,906.000,888.000
1172.813,901.000,927.000,899.000,893.000,902.000,864.000
1176.229,898.000,895.000,890.000,880.000,907.000,890.000
1179.641,889.000,891.000,915.000,896.000,894.000,882.000
1183.054,912.000,890.000,904.000,883.000,899.000,878.000
1186.465,918.000,895.000,881.000,904.000,889.000,882.000
1189.874,906.000,890.000,904.000,915.000,921.000,881.000
1193.282,895.000,899.000,903.000,896.000,893.000,879.000
1196.688,924.000,909.000,868.000,885.000,859.000,877.000
1200.095,897.000,884.000,886.000,905.000,892.000,876.000
1203.498,907.000,896.000,885.000,883.000,891.000,872.000
1206.902,906.000,888.000,891.000,890.000,899.000,866.000
1210.302,905.000,890.000,901.000,881.000,870.000,866.000
1213.703,873.000,893.000,894.000,896.000,888.000,862.000
1217.103,903.000,885.000,885.000,889.000,880.000,876.000
1220.499,876.000,897.000,891.000,897.000,884.000,862.000
1223.897,896.000,872.000,864.000,877.000,873.000,883.000
1227.291,884.000,888.000,881.000,864.000,869.000,871.000
1230.685,880.000,883.000,886.000,876.000,867.000,872.000
1234.076,884.000,861.000,865.000,871.000,866.000,854.000
1237.469,885.000,896.000,875.000,867.000,872.000,866.000
1240.858,860.000,867.000,879.000,851.000,863.000,854.000
1244.246,875.000,863.000,868.000,854.000,861.000,839.000
1247.634,876.000,857.000,875.000,865.000,847.000,834.000
1251.020,864.000,866.000,865.000,851.000,845.000,839.000
1254.405,870.000,844.000,846.000,840.000,855.000,851.000
1257.787,869.000,865.000,872.000,844.000,861.000,844.000
1261.170,859.000,868.000,866.000,855.000,852.000,848.000
1264.549,866.000,852.000,868.000,840.000,855.000,826.000
1267.929,871.000,867.000,862.000,845.000,851.000,841.000
1271.308,859.000,873.000,862.000,836.000,839.000,835.000
1274.683,866.000,844.000,841.000,843.000,863.000,827.000
1278.060,876.000,838.000,853.000,852.000,837.000,834.000
1281.433,874.000,850.000,847.000,860.000,835.000,842.000
1284.807,882.000,858.000,847.000,866.000,829.000,827.000
1288.177,861.000,858.000,843.000,836.000,844.000,848.000
1291.548,872.000,847.000,838.000,857.000,861.000,820.000
1294.916,853.000,860.000,854.000,847.000,843.000,855.000
1298.284,867.000,842.000,851.000,845.000,835.000,834.000
1301.652,873.000,869.000,840.000,861.000,835.000,846.000
1305.015,863.000,860.000,852.000,842.000,857.000,849.000
1308.380,868.000,863.000,863.000,860.000,853.000,826.000
1311.742,864.000,849.000,857.000,857.000,851.000,856.000
1315.104,880.000,852.000,873.000,857.000,869.000,856.000
1318.462,892.000,924.000,904.000,908.000,894.000,884.000
1321.822,977.000,976.000,946.000,974.000,966.000,963.000
1325.180,1607.000,1547.000,1557.000,1512.000,1520.000,1516.000
1328.535,3183.000,3173.000,3212.000,3199.000,3195.000,3169.000
1331.891,1311.000,1322.000,1334.000,1265.000,1298.000,1301.000
1335.243,941.000,954.000,958.000,954.000,942.000,926.000
1338.595,898.000,877.000,873.000,887.000,864.000,861.000
1341.946,878.000,871.000,860.000,862.000,864.000,848.000
1345.296,869.000,857.000,865.000,842.000,866.000,843.000
1348.643,874.000,844.000,852.000,845.000,852.000,854.000
1351.991,855.000,855.000,858.000,854.000,848.000,826.000
1355.337,855.000,849.000,851.000,843.000,841.000,827.000
1358.680,860.000,846.000,831.000,825.000,836.000,831.000
1362.025,862.000,859.000,848.000,853.000,852.000,855.000
1365.366,857.000,841.000,851.000,848.000,854.000,837.000
1368.707,840.000,833.000,844.000,837.000,855.000,829.000
1372.045,863.000,858.000,842.000,846.000,819.000,832.000
1375.384,870.000,838.000,840.000,854.000,835.000,830.000
1378.720,841.000,848.000,848.000,850.000,830.000,829.000
1382.057,865.000,838.000,826.000,843.000,843.000,820.000
1385.391,873.000,856.000,850.000,846.000,828.000,831.000
1388.723,871.000,847.000,851.000,850.000,850.000,827.000
1392.056,868.000,854.000,834.000,838.000,835.000,808.000
1395.385,842.000,861.000,850.000,844.000,827.000,826.000
1398.714,871.000,864.000,842.000,844.000,862.000,839.000
1402.042,855.000,853.000,844.000,847.000,844.000,825.000
1405.369,860.000,867.000,847.000,848.000,841.000,837.000
1408.692,865.000,855.000,835.000,868.000,838.000,825.000
1412.017,854.000,855.000,843.000,855.000,842.000,831.000
1415.341,856.000,826.000,834.000,836.000,846.000,816.000
1418.662,865.000,855.000,828.000,860.000,856.000,845.000
1421.982,868.000,838.000,835.000,844.000,836.000,833.000
1425.300,863.000,833.000,852.000,823.000,832.000,817.000
1428.619,863.000,864.000,857.000,816.000,849.000,815.000
1431.935,878.000,831.000,850.000,843.000,834.000,852.000
1435.250,864.000,847.000,846.000,839.000,832.000,839.000
1438.563,846.000,853.000,858.000,853.000,853.000,849.000
1441.877,863.000,863.000,857.000,871.000,845.000,845.000
1445.189,869.000,850.000,839.000,869.000,860.000,847.000
1448.497,873.000,860.000,855.000,837.000,865.000,831.000
1451.807,862.000,840.000,846.000,845.000,847.000,849.000
1455.114,857.000,845.000,856.000,844.000,839.000,837.000
1458.420,847.000,856.000,858.000,861.000,841.000,831.000
1461.725,857.000,842.000,834.000,846.000,841.000,833.000
1465.029,851.000,850.000,861.000,854.000,841.000,832.000
1468.331,852.000,842.000,847.000,848.000,849.000,840.000
1471.632,864.000,845.000,823.000,859.000,842.000,828.000
1474.934,863.000,865.000,844.000,849.000,842.000,832.000
1478.232,865.000,857.000,863.000,837.000,845.000,834.000
1481.530,867.000,847.000,859.000,847.000,836.000,838.000
1484.825,857.000,854.000,842.000,835.000,853.000,828.000
1488.120,867.000,859.000,866.000,869.000,836.000,853.000
1491.414,854.000,854.000,857.000,851.000,851.000,841.000
1494.707,859.000,856.000,851.000,848.000,843.000,850.000
1497.997,858.000,864.000,856.000,841.000,868.000,826.000
1501.287,859.000,850.000,839.000,839.000,850.000,828.000
1504.577,867.000,840.000,853.000,841.000,835.000,827.000
1507.863,856.000,882.000,862.000,834.000,853.000,849.000
1511.151,870.000,835.000,860.000,841.000,847.000,844.000
1514.435,872.000,870.000,868.000,835.000,863.000,843.000
1517.719,874.000,852.000,851.000,865.000,841.000,826.000
1521.001,861.000,845.000,854.000,861.000,847.000,836.000
1524.282,871.000,860.000,851.000,862.000,836.000,849.000
1527.561,859.000,867.000,838.000,847.000,848.000,836.000
1530.840,856.000,872.000,857.000,867.000,848.000,831.000
1534.118,854.000,856.000,859.000,875.000,868.000,855.000
1537.394,873.000,833.000,843.000,836.000,858.000,844.000
1540.670,872.000,877.000,852.000,855.000,835.000,823.000
1543.943,864.000,861.000,873.000,852.000,867.000,859.000
1547.216,872.000,865.000,871.000,853.000,838.000,831.000
1550.486,876.000,859.000,858.000,872.000,865.000,834.000
1553.756,870.000,848.000,853.000,841.000,844.000,842.000
1557.027,876.000,864.000,861.000,845.000,845.000,824.000
1560.293,871.000,856.000,857.000,861.000,856.000,834.000
1563.560,859.000,855.000,852.000,857.000,854.000,853.000
1566.824,884.000,860.000,860.000,864.000,841.000,858.000
1570.088,881.000,853.000,853.000,857.000,856.000,853.000
1573.350,882.000,873.000,858.000,872.000,848.000,838.000
1576.612,867.000,882.000,864.000,855.000,861.000,832.000
1579.872,888.000,863.000,849.000,852.000,841.000,827.000
1583.131,872.000,861.000,858.000,858.000,860.000,841.000
1586.390,882.000,865.000,869.000,846.000,862.000,842.000
1589.645,867.000,877.000,860.000,863.000,878.000,843.000
1592.901,891.000,876.000,858.000,863.000,856.000,839.000
1596.154,895.000,873.000,867.000,867.000,871.000,868.000
1599.408,871.000,875.000,871.000,862.000,867.000,841.000
1602.658,888.000,867.000,888.000,875.000,879.000,853.000
1605.909,870.000,881.000,857.000,889.000,855.000,868.000
1609.158,898.000,874.000,866.000,861.000,873.000,839.000
1612.405,897.000,865.000,857.000,860.000,862.000,850.000
1615.653,886.000,869.000,856.000,868.000,863.000,846.000
1618.898,875.000,878.000,886.000,881.000,866.000,867.000
1622.142,886.000,866.000,884.000,880.000,881.000,851.000
1625.384,891.000,884.000,865.000,863.000,870.000,843.000
1628.627,875.000,869.000,861.000,881.000,854.000,848.000
1631.866,870.000,847.000,856.000,849.000,878.000,859.000
1635.106,874.000,855.000,882.000,876.000,874.000,854.000
1638.345,889.000,865.000,868.000,875.000,866.000,887.000
1641.580,880.000,858.000,872.000,856.000,861.000,871.000
1644.816,853.000,862.000,862.000,862.000,846.000,867.000
1648.050,872.000,867.000,851.000,857.000,866.000,855.000
1651.285,873.000,863.000,855.000,869.000,871.000,838.000
1654.515,887.000,881.000,865.000,867.000,863.000,853.000
1657.747,882.000,872.000,869.000,850.000,858.000,852.000
1660.975,886.000,879.000,878.000,844.000,854.000,836.000
1664.204,878.000,854.000,862.000,854.000,859.000,855.000
1667.431,866.000,860.000,849.000,866.000,854.000,826.000
1670.656,859.000,860.000,862.000,843.000,853.000,846.000
1673.882,871.000,865.000,858.000,837.000,847.000,841.000
1677.104,857.000,840.000,865.000,853.000,854.000,839.000
1680.328,882.000,852.000,862.000,855.000,845.000,842.000
1683.548,881.000,843.000,868.000,836.000,844.000,845.000
1686.768,870.000,888.000,858.000,862.000,856.000,843.000
1689.986,848.000,857.000,865.000,849.000,837.000,836.000
1693.203,875.000,867.000,847.000,854.000,856.000,852.000
1696.420,871.000,874.000,851.000,848.000,847.000,839.000
1699.634,860.000,846.000,854.000,844.000,835.000,836.000
1702.848,846.000,860.000,860.000,853.000,855.000,837.000
1706.060,865.000,864.000,844.000,844.000,840.000,851.000
1709.272,884.000,846.000,847.000,851.000,855.000,831.000
1712.482,855.000,858.000,853.000,845.000,838.000,837.000
1715.691,883.000,856.000,832.000,836.000,830.000,842.000
1718.897,875.000,858.000,856.000,835.000,859.000,855.000
1722.105,868.000,839.000,861.000,855.000,861.000,839.000
1725.311,860.000,849.000,838.000,866.000,839.000,846.000
1728.514,855.000,852.000,851.000,849.000,851.000,831.000
1731.718,847.000,865.000,850.000,850.000,837.000,837.000
1734.918,850.000,846.000,854.000,842.000,835.000,831.000
1738.120,861.000,862.000,844.000,857.000,852.000,841.000
1741.318,857.000,863.000,854.000,856.000,848.000,858.000
1744.517,854.000,840.000,843.000,851.000,847.000,830.000
1747.712,857.000,863.000,856.000,840.000,848.000,825.000
1750.909,855.000,843.000,844.000,845.000,845.000,829.000
1754.104,862.000,865.000,855.000,859.000,861.000,858.000
1757.297,855.000,852.000,856.000,854.000,838.000,846.000
1760.489,853.000,863.000,868.000,844.000,838.000,842.000
1763.679,871.000,867.000,863.000,841.000,855.000,837.000
1766.870,856.000,865.000,844.000,851.000,843.000,844.000
1770.057,861.000,848.000,849.000,839.000,843.000,836.000
1773.245,863.000,851.000,868.000,858.000,863.000,823.000
1776.430,865.000,851.000,857.000,842.000,854.000,848.000
1779.616,856.000,848.000,842.000,843.000,835.000,856.000
1782.800,870.000,853.000,862.000,857.000,848.000,828.000
1785.982,874.000,850.000,871.000,837.000,857.000,838.000
1789.164,882.000,853.000,841.000,840.000,865.000,838.000
1792.343,879.000,851.000,856.000,839.000,855.000,837.000
1795.523,888.000,853.000,861.000,847.000,861.000,851.000
1798.700,877.000,863.000,857.000,871.000,859.000,854.000
1801.877,873.000,860.000,869.000,836.000,870.000,855.000
1805.052,856.000,866.000,861.000,866.000,872.000,848.000
1808.226,864.000,873.000,864.000,864.000,885.000,851.000
1811.400,878.000,880.000,845.000,871.000,881.000,853.000
1814.571,891.000,880.000,873.000,873.000,867.000,850.000
1816.157,886.000,887.000,863.000,887.000,869.000,857.000