File: Raman/Silica/2025_09_09_8pct_Hydrated_SiO2_Glass_50X_532nm_74mW_Andor750_600gv_1030wn_6accum_30s_DePol_Loc1.csv
23.130,5053.000,5063.000,5100.000,5123.000,5109.000,4987.000
27.007,4630.000,4716.000,4684.000,4723.000,4795.000,4730.000
30.879,4817.000,4900.000,4904.000,4836.000,4801.000,4869.000
34.751,5011.000,5056.000,5026.000,5048.000,5025.000,5100.000
38.619,5183.000,5173.000,5169.000,5188.000,5212.000,5221.000
42.489,5568.000,5497.000,5504.000,5522.000,5576.000,5546.000
46.355,5672.000,5689.000,5738.000,5720.000,5694.000,5754.000
50.221,5582.000,5638.000,5697.000,5716.000,5648.000,5694.000
54.083,5781.000,5908.000,5892.000,5890.000,5942.000,5879.000
57.946,5766.000,5798.000,5760.000,5768.000,5807.000,5806.000
61.807,5663.000,5571.000,5667.000,5615.000,5618.000,5706.000
65.665,5603.000,5643.000,5679.000,5678.000,5668.000,5723.000
69.523,5698.000,5657.000,5608.000,5586.000,5646.000,5635.000
73.377,5352.000,5348.000,5305.000,5328.000,5298.000,5353.000
77.233,5453.000,5368.000,5482.000,5420.000,5476.000,5448.000
81.084,5229.000,5202.000,5241.000,5234.000,5279.000,5236.000
84.936,5211.000,5139.000,5143.000,5217.000,5179.000,5191.000
88.784,5138.000,5128.000,5166.000,5092.000,5116.000,5070.000
92.632,4987.000,5003.000,4966.000,4994.000,5007.000,5012.000
96.480,4821.000,4858.000,4795.000,4806.000,4787.000,4786.000
100.323,4887.000,4915.000,4793.000,4846.000,4882.000,4936.000
104.167,4589.000,4591.000,4657.000,4640.000,4646.000,4589.000
108.007,4593.000,4539.000,4550.000,4603.000,4530.000,4537.000
111.848,4404.000,4514.000,4417.000,4498.000,4511.000,4563.000
115.685,4324.000,4326.000,4343.000,4388.000,4346.000,4415.000
119.522,4225.000,4240.000,4229.000,4204.000,4245.000,4231.000
123.359,4212.000,4142.000,4188.000,4265.000,4164.000,4272.000
127.190,4007.000,4045.000,3928.000,4011.000,4064.000,3977.000
131.024,3924.000,3990.000,3929.000,4022.000,3967.000,3928.000
134.853,3863.000,3900.000,3883.000,3848.000,3875.000,3823.000
138.683,3658.000,3671.000,3689.000,3702.000,3627.000,3669.000
142.508,3635.000,3613.000,3657.000,3640.000,3607.000,3626.000
146.335,3506.000,3531.000,3599.000,3566.000,3555.000,3548.000
150.158,3422.000,3377.000,3393.000,3355.000,3378.000,3386.000
153.982,3319.000,3366.000,3347.000,3375.000,3411.000,3305.000
157.804,3300.000,3287.000,3281.000,3331.000,3259.000,3296.000
161.621,3089.000,3173.000,3156.000,3207.000,3158.000,3157.000
165.441,3095.000,3194.000,3146.000,3085.000,3122.000,3169.000
169.256,3008.000,3072.000,3046.000,3050.000,3106.000,3070.000
173.071,2954.000,2950.000,2964.000,2938.000,3046.000,2992.000
176.883,2932.000,2947.000,2944.000,2950.000,2948.000,2929.000
180.696,2886.000,2903.000,2879.000,2923.000,2913.000,2875.000
184.504,2775.000,2794.000,2810.000,2769.000,2791.000,2790.000
188.314,2764.000,2799.000,2805.000,2829.000,2853.000,2754.000
192.122,2761.000,2702.000,2743.000,2773.000,2778.000,2765.000
195.925,2633.000,2675.000,2634.000,2686.000,2635.000,2694.000
199.731,2707.000,2639.000,2684.000,2678.000,2681.000,2757.000
203.532,2611.000,2661.000,2640.000,2585.000,2637.000,2610.000
207.333,2552.000,2749.000,2580.000,2533.000,2564.000,2519.000
211.132,2903.000,2598.000,2510.000,2597.000,2573.000,2562.000
214.929,2523.000,2561.000,2531.000,2522.000,2497.000,2554.000
218.724,2422.000,2418.000,2450.000,2460.000,2402.000,2447.000
222.519,2474.000,2506.000,2477.000,2450.000,2489.000,2504.000
226.313,2417.000,2455.000,2412.000,2471.000,2455.000,2394.000
230.104,2402.000,2399.000,2424.000,2389.000,2411.000,2412.000
233.894,2396.000,2432.000,2383.000,2435.000,2467.000,2386.000
237.681,2364.000,2365.000,2394.000,2396.000,2347.000,2358.000
241.469,2321.000,2319.000,2337.000,2321.000,2338.000,2326.000
245.253,2319.000,2430.000,2297.000,2343.000,2332.000,2338.000
249.038,2328.000,2304.000,2337.000,2301.000,2329.000,2285.000
252.819,2253.000,2255.000,2254.000,2286.000,2253.000,2247.000
256.600,2331.000,2278.000,2282.000,2292.000,2259.000,2259.000
260.380,2203.000,2197.000,2264.000,2228.000,2248.000,2195.000
264.156,2174.000,2212.000,2233.000,2208.000,2192.000,2231.000
267.933,2229.000,2217.000,2183.000,2241.000,2222.000,2259.000
271.707,2207.000,2187.000,2178.000,2168.000,2195.000,2206.000
275.480,2131.000,2153.000,2134.000,2116.000,2149.000,2162.000
279.251,2135.000,2106.000,2147.000,2160.000,2122.000,2218.000
283.021,2125.000,2111.000,2145.000,2123.000,2112.000,2155.000
286.790,2052.000,2113.000,2085.000,2099.000,2137.000,2114.000
290.556,2135.000,2066.000,2072.000,2063.000,2098.000,2087.000
294.322,2087.000,2096.000,2077.000,2076.000,2068.000,2062.000
298.084,1998.000,2054.000,2011.000,2011.000,2019.000,2034.000
301.847,2044.000,2037.000,2067.000,2027.000,2042.000,2094.000
305.607,2029.000,2026.000,2033.000,2008.000,2019.000,2058.000
309.367,2002.000,2027.000,1990.000,2050.000,1995.000,1996.000
313.123,2014.000,1982.000,2001.000,2005.000,2020.000,2015.000
316.880,1984.000,1990.000,1971.000,1986.000,1927.000,1985.000
320.635,1964.000,1939.000,1953.000,1960.000,1968.000,1977.000
324.387,1951.000,1970.000,1959.000,1962.000,1946.000,1962.000
328.139,1932.000,1900.000,1916.000,1901.000,1876.000,1895.000
331.888,1908.000,1910.000,1899.000,1918.000,1955.000,1943.000
335.638,1908.000,1885.000,1947.000,1910.000,1955.000,1968.000
339.384,1887.000,1866.000,1917.000,1905.000,1859.000,1881.000
343.130,1889.000,1839.000,1848.000,1878.000,1861.000,1851.000
346.873,1931.000,1884.000,1888.000,1830.000,1892.000,1895.000
350.616,1873.000,1851.000,1847.000,1846.000,1848.000,1877.000
354.357,1832.000,1816.000,1812.000,1857.000,1851.000,1840.000
358.095,1832.000,1838.000,1841.000,1788.000,1831.000,1863.000
361.835,1842.000,1829.000,1791.000,1784.000,1845.000,1851.000
365.569,1806.000,1791.000,1766.000,1783.000,1785.000,1815.000
369.305,1789.000,1802.000,1805.000,1803.000,1825.000,1802.000
373.037,1793.000,1759.000,1809.000,1764.000,1747.000,1759.000
376.770,1737.000,1779.000,1779.000,1769.000,1782.000,1752.000
380.498,1791.000,1741.000,1724.000,1724.000,1757.000,1766.000
384.228,1714.000,1697.000,1735.000,1760.000,1734.000,1728.000
387.956,1728.000,1722.000,1720.000,1734.000,1748.000,1727.000
391.681,1730.000,1721.000,1752.000,1722.000,1720.000,1706.000
395.405,1723.000,1735.000,1698.000,1718.000,1689.000,1693.000
399.127,1683.000,1698.000,1655.000,1683.000,1686.000,1687.000
402.849,1675.000,1697.000,1665.000,1679.000,1709.000,1700.000
406.567,1693.000,1664.000,1705.000,1651.000,1679.000,1665.000
410.287,1652.000,1693.000,1652.000,1641.000,1667.000,1637.000
414.003,1637.000,1683.000,1660.000,1634.000,1655.000,1647.000
417.719,1626.000,1655.000,1625.000,1631.000,1618.000,1622.000
421.432,1590.000,1604.000,1657.000,1674.000,1621.000,1613.000
425.144,1630.000,1599.000,1587.000,1633.000,1597.000,1608.000
428.855,1588.000,1613.000,1605.000,1619.000,1609.000,1571.000
432.563,1611.000,1627.000,1584.000,1616.000,1611.000,1593.000
436.272,1574.000,1604.000,1539.000,1560.000,1610.000,1600.000
439.977,1585.000,1581.000,1597.000,1574.000,1576.000,1614.000
443.683,1567.000,1563.000,1572.000,1571.000,1574.000,1557.000
447.386,1521.000,1550.000,1575.000,1539.000,1579.000,1567.000
451.087,1543.000,1507.000,1574.000,1551.000,1551.000,1515.000
454.788,1544.000,1532.000,1520.000,1555.000,1519.000,1555.000
458.485,1540.000,1508.000,1559.000,1522.000,1543.000,1517.000
462.183,1523.000,1514.000,1544.000,1521.000,1506.000,1476.000
465.879,1454.000,1509.000,1500.000,1511.000,1489.000,1513.000
469.574,1472.000,1482.000,1479.000,1517.000,1486.000,1494.000
473.265,1495.000,1471.000,1473.000,1459.000,1456.000,1475.000
476.957,1427.000,1434.000,1454.000,1441.000,1456.000,1465.000
480.647,1438.000,1448.000,1447.000,1427.000,1443.000,1438.000
484.335,1410.000,1427.000,1424.000,1405.000,1382.000,1420.000
488.022,1383.000,1382.000,1375.000,1402.000,1370.000,1387.000
491.706,1356.000,1349.000,1326.000,1374.000,1343.000,1355.000
495.391,1309.000,1308.000,1336.000,1312.000,1341.000,1332.000
499.072,1279.000,1285.000,1303.000,1293.000,1279.000,1283.000
502.754,1262.000,1280.000,1254.000,1257.000,1241.000,1279.000
506.432,1259.000,1234.000,1213.000,1227.000,1229.000,1245.000
510.111,1203.000,1215.000,1233.000,1209.000,1200.000,1189.000
513.788,1186.000,1192.000,1188.000,1195.000,1171.000,1190.000
517.462,1169.000,1183.000,1186.000,1174.000,1188.000,1151.000
521.136,1160.000,1156.000,1143.000,1172.000,1144.000,1137.000
524.807,1158.000,1147.000,1143.000,1127.000,1125.000,1147.000
528.479,1126.000,1141.000,1140.000,1148.000,1131.000,1137.000
532.147,1121.000,1114.000,1124.000,1131.000,1122.000,1105.000
535.815,1133.000,1086.000,1101.000,1095.000,1126.000,1110.000
539.480,1097.000,1088.000,1092.000,1116.000,1118.000,1085.000
543.145,1088.000,1107.000,1124.000,1069.000,1068.000,1124.000
546.809,1110.000,1091.000,1092.000,1091.000,1082.000,1073.000
550.469,1074.000,1089.000,1061.000,1095.000,1097.000,1058.000
554.131,1068.000,1092.000,1097.000,1086.000,1080.000,1077.000
557.788,1066.000,1081.000,1063.000,1068.000,1082.000,1081.000
561.446,1084.000,1075.000,1079.000,1080.000,1083.000,1070.000
565.100,1060.000,1087.000,1087.000,1081.000,1056.000,1064.000
568.756,1079.000,1046.000,1044.000,1042.000,1042.000,1058.000
572.408,1071.000,1060.000,1072.000,1068.000,1055.000,1033.000
576.060,1057.000,1065.000,1041.000,1032.000,1040.000,1059.000
579.711,1005.000,1049.000,1023.000,1030.000,1034.000,1019.000
583.358,1055.000,1028.000,1049.000,1033.000,1020.000,1037.000
587.006,989.000,1027.000,1014.000,1020.000,1024.000,1037.000
590.650,1026.000,1029.000,1003.000,1024.000,1025.000,1010.000
594.295,1022.000,1043.000,1025.000,1029.000,1022.000,1030.000
597.937,1016.000,1027.000,1039.000,1049.000,1033.000,1015.000
601.579,1041.000,1038.000,1019.000,1019.000,1006.000,1007.000
605.217,1035.000,998.000,1020.000,1017.000,1024.000,1021.000
608.856,1008.000,1034.000,1046.000,1001.000,1014.000,1005.000
612.494,1019.000,985.000,1008.000,988.000,998.000,1006.000
616.129,1027.000,1033.000,983.000,1017.000,1010.000,1033.000
619.763,1004.000,1017.000,1035.000,1003.000,999.000,994.000
623.394,990.000,1011.000,996.000,1017.000,1008.000,971.000
627.026,990.000,1007.000,1019.000,999.000,1004.000,1002.000
630.655,1003.000,1003.000,1016.000,1006.000,1017.000,999.000
634.284,988.000,1009.000,1038.000,1001.000,987.000,997.000
637.911,998.000,995.000,980.000,988.000,982.000,988.000
641.535,999.000,1000.000,1001.000,997.000,1010.000,1011.000
645.160,994.000,984.000,990.000,968.000,987.000,980.000
648.781,995.000,991.000,994.000,995.000,999.000,989.000
652.403,996.000,1003.000,988.000,997.000,994.000,1003.000
656.021,1021.000,1000.000,990.000,991.000,981.000,996.000
659.640,1008.000,989.000,991.000,978.000,991.000,982.000
663.256,991.000,1010.000,1010.000,963.000,996.000,994.000
666.872,1005.000,1004.000,1010.000,963.000,969.000,997.000
670.485,972.000,984.000,988.000,992.000,1002.000,986.000
674.097,972.000,990.000,998.000,992.000,998.000,991.000
677.709,995.000,989.000,1010.000,995.000,1002.000,988.000
681.317,1010.000,1005.000,986.000,981.000,989.000,1007.000
684.926,994.000,1018.000,1010.000,1021.000,987.000,985.000
688.531,996.000,987.000,987.000,980.000,992.000,986.000
692.136,995.000,984.000,1002.000,980.000,986.000,1003.000
695.739,1014.000,994.000,983.000,1014.000,1007.000,1009.000
699.342,989.000,995.000,1009.000,1011.000,994.000,1010.000
702.944,992.000,1011.000,997.000,1016.000,995.000,982.000
706.542,1007.000,1013.000,998.000,1002.000,994.000,1001.000
710.141,1012.000,1004.000,1018.000,999.000,991.000,1002.000
713.736,1013.000,1016.000,992.000,1012.000,1002.000,994.000
717.332,1027.000,1021.000,992.000,1006.000,1014.000,1024.000
720.925,1007.000,1021.000,999.000,1008.000,1004.000,1019.000
724.517,1020.000,1018.000,1016.000,1029.000,1034.000,1020.000
728.106,1028.000,1037.000,1003.000,1025.000,1033.000,1027.000
731.697,1037.000,1026.000,1011.000,1039.000,1023.000,1010.000
735.286,1054.000,1040.000,1042.000,1034.000,1025.000,1025.000
738.871,1053.000,1056.000,1051.000,1050.000,1060.000,1049.000
742.457,1035.000,1060.000,1049.000,1061.000,1051.000,1050.000
746.039,1072.000,1072.000,1035.000,1036.000,1040.000,1074.000
749.622,1075.000,1085.000,1063.000,1070.000,1062.000,1088.000
753.202,1084.000,1100.000,1073.000,1095.000,1095.000,1080.000
756.782,1089.000,1098.000,1093.000,1072.000,1068.000,1081.000
760.360,1139.000,1102.000,1120.000,1136.000,1140.000,1085.000
763.937,1151.000,1138.000,1190.000,1158.000,1155.000,1148.000
767.512,1188.000,1175.000,1192.000,1177.000,1207.000,1221.000
771.085,1275.000,1277.000,1240.000,1232.000,1278.000,1248.000
774.657,1371.000,1339.000,1346.000,1329.000,1337.000,1357.000
778.228,1431.000,1428.000,1438.000,1412.000,1396.000,1405.000
781.797,1460.000,1461.000,1459.000,1450.000,1456.000,1464.000
785.364,1500.000,1493.000,1525.000,1467.000,1445.000,1454.000
788.932,1495.000,1517.000,1502.000,1498.000,1496.000,1491.000
792.498,1474.000,1511.000,1531.000,1478.000,1501.000,1544.000
796.060,1506.000,1509.000,1506.000,1502.000,1500.000,1510.000
799.624,1463.000,1520.000,1498.000,1462.000,1502.000,1494.000
803.184,1466.000,1441.000,1434.000,1442.000,1471.000,1423.000
806.744,1430.000,1409.000,1444.000,1431.000,1476.000,1450.000
810.301,1408.000,1414.000,1426.000,1423.000,1423.000,1401.000
813.859,1359.000,1369.000,1390.000,1370.000,1374.000,1394.000
817.413,1349.000,1368.000,1351.000,1357.000,1344.000,1362.000
820.967,1320.000,1327.000,1342.000,1308.000,1303.000,1351.000
824.520,1283.000,1297.000,1281.000,1305.000,1277.000,1302.000
828.071,1271.000,1264.000,1260.000,1259.000,1267.000,1232.000
831.622,1195.000,1230.000,1221.000,1230.000,1210.000,1211.000
835.169,1133.000,1174.000,1166.000,1176.000,1201.000,1167.000
838.716,1155.000,1150.000,1125.000,1142.000,1122.000,1126.000
842.261,1100.000,1124.000,1134.000,1102.000,1124.000,1122.000
845.806,1078.000,1075.000,1093.000,1066.000,1088.000,1081.000
849.347,1043.000,1058.000,1051.000,1048.000,1051.000,1048.000
852.890,1045.000,2254.000,1037.000,1056.000,1040.000,1066.000
856.430,1008.000,1273.000,1009.000,1029.000,1027.000,1048.000
859.968,1028.000,1025.000,1018.000,1031.000,1025.000,1027.000
863.506,1017.000,1045.000,1002.000,1027.000,1015.000,1015.000
867.040,1034.000,1009.000,1036.000,1019.000,1000.000,1014.000
870.574,1032.000,1019.000,1015.000,1014.000,1029.000,1021.000
874.106,1014.000,1025.000,1027.000,1023.000,1003.000,1028.000
877.640,1054.000,1030.000,1018.000,1027.000,1024.000,1025.000
881.168,1001.000,1009.000,1016.000,1019.000,997.000,992.000
884.698,1020.000,1031.000,1006.000,1020.000,1042.000,1046.000
888.226,1046.000,1031.000,1010.000,1009.000,1032.000,1024.000
891.750,1024.000,1030.000,1011.000,1012.000,1026.000,1012.000
895.276,1016.000,1061.000,1046.000,1029.000,1015.000,1041.000
898.798,1039.000,1050.000,1040.000,1063.000,1023.000,1021.000
902.321,1056.000,1032.000,1062.000,1035.000,1055.000,1040.000
905.840,1058.000,1050.000,1060.000,1063.000,1046.000,1056.000
909.360,1077.000,1056.000,1057.000,1085.000,1062.000,1065.000
912.876,1083.000,1058.000,1074.000,1090.000,1074.000,1068.000
916.393,1063.000,1056.000,1068.000,1060.000,1085.000,1067.000
919.909,1099.000,1092.000,1111.000,1078.000,1107.000,1094.000
923.422,1092.000,1131.000,1091.000,1097.000,1106.000,1097.000
926.934,1099.000,1101.000,1108.000,1126.000,1111.000,1095.000
930.444,1135.000,1137.000,1107.000,1153.000,1160.000,1138.000
933.954,1126.000,1159.000,1141.000,1172.000,1145.000,1131.000
937.461,1144.000,1147.000,1134.000,1130.000,1159.000,1143.000
940.968,1169.000,1181.000,1169.000,1164.000,1145.000,1163.000
944.475,1191.000,1195.000,1174.000,1172.000,1194.000,1162.000
947.978,1215.000,1215.000,1197.000,1186.000,1175.000,1190.000
951.481,1197.000,1233.000,1235.000,1183.000,1224.000,1212.000
954.981,1240.000,1236.000,1218.000,1883.000,1243.000,1255.000
958.482,1268.000,1266.000,1257.000,1247.000,1247.000,1237.000
961.979,1251.000,1218.000,1234.000,1244.000,1244.000,1258.000
965.476,1280.000,1245.000,1275.000,1287.000,1267.000,1275.000
968.971,1266.000,1265.000,1286.000,1239.000,1272.000,1255.000
972.466,1276.000,1229.000,1276.000,1244.000,1270.000,1255.000
975.959,1256.000,1256.000,1246.000,1257.000,1279.000,1262.000
979.451,1250.000,1264.000,1267.000,1258.000,1249.000,1255.000
982.941,1226.000,1225.000,1223.000,1216.000,1237.000,1211.000
986.428,1230.000,1203.000,1214.000,1224.000,1186.000,1226.000
989.917,1191.000,1211.000,1195.000,1196.000,1203.000,1240.000
993.402,1187.000,1187.000,1188.000,1162.000,1189.000,1196.000
996.887,1153.000,1169.000,1183.000,1170.000,1153.000,1179.000
1000.369,1167.000,1172.000,1147.000,1160.000,1163.000,1174.000
1003.852,1177.000,1173.000,1169.000,1132.000,1189.000,1159.000
1007.333,1155.000,1136.000,1156.000,1119.000,1151.000,1152.000
1010.812,1170.000,1142.000,1157.000,1176.000,1144.000,1172.000
1014.290,1174.000,1140.000,1154.000,1141.000,1159.000,1139.000
1017.766,1160.000,1144.000,1148.000,1145.000,1163.000,1156.000
1021.241,1151.000,1164.000,1208.000,1175.000,1152.000,1151.000
1024.714,1192.000,1185.000,1197.000,1184.000,1162.000,1184.000
1028.188,1172.000,1173.000,1218.000,1218.000,1201.000,1185.000
1031.658,1202.000,1225.000,1199.000,1204.000,1227.000,1200.000
1035.128,1204.000,1212.000,1219.000,1218.000,1225.000,1227.000
1038.598,1222.000,1215.000,1207.000,1223.000,1211.000,1213.000
1042.063,1238.000,1219.000,1226.000,1219.000,1247.000,1224.000
1045.530,1248.000,1240.000,1276.000,1244.000,1254.000,1261.000
1048.994,1256.000,1271.000,1273.000,1282.000,1258.000,1267.000
1052.457,1244.000,1263.000,1274.000,1248.000,1249.000,1246.000
1055.917,1275.000,1281.000,1273.000,1282.000,1262.000,1271.000
1059.379,1256.000,1265.000,1259.000,1249.000,1261.000,1271.000
1062.838,1241.000,1240.000,1238.000,1237.000,1250.000,1249.000
1066.294,1242.000,1245.000,1235.000,1256.000,1244.000,1215.000
1069.752,1234.000,1221.000,1230.000,1219.000,1238.000,1210.000
1073.206,1199.000,1197.000,1212.000,1211.000,1224.000,1220.000
1076.660,1176.000,1211.000,1197.000,1186.000,1190.000,1157.000
1080.110,1169.000,1165.000,1181.000,1179.000,1160.000,1175.000
1083.562,1122.000,1142.000,1144.000,1129.000,1123.000,1131.000
1087.011,1136.000,1118.000,1142.000,1111.000,1134.000,1112.000
1090.460,1120.000,1113.000,1075.000,1098.000,1094.000,1095.000
1093.908,1111.000,1077.000,1085.000,1109.000,1102.000,1109.000
1097.351,1074.000,1060.000,1060.000,1043.000,1059.000,1078.000
1100.796,1040.000,1067.000,1067.000,1047.000,1058.000,1041.000
1104.238,1072.000,1058.000,1055.000,1053.000,1035.000,1042.000
1107.681,1045.000,1053.000,1026.000,1023.000,1036.000,1029.000
1111.120,1032.000,1024.000,1014.000,1018.000,1058.000,1033.000
1114.559,1023.000,1060.000,1031.000,1025.000,1014.000,1044.000
1117.995,1057.000,1017.000,1017.000,1035.000,1042.000,1031.000
1121.432,1022.000,1052.000,1054.000,1045.000,1027.000,1073.000
1124.867,1081.000,1057.000,1049.000,1044.000,1074.000,1043.000
1128.300,1055.000,1065.000,1044.000,1065.000,1051.000,1043.000
1131.733,1058.000,1044.000,1072.000,1072.000,1051.000,1064.000
1135.163,1076.000,1087.000,1076.000,1056.000,1075.000,1064.000
1138.593,1084.000,1068.000,1080.000,1093.000,1102.000,1094.000
1142.020,1075.000,1094.000,1109.000,1070.000,1087.000,1072.000
1145.447,1089.000,1080.000,1088.000,1086.000,1101.000,1090.000
1148.872,1101.000,1087.000,1104.000,1078.000,1102.000,1089.000
1152.297,1089.000,1113.000,1114.000,1109.000,1091.000,1077.000
1155.720,1113.000,1110.000,1082.000,1081.000,1100.000,1099.000
1159.141,1137.000,1111.000,1123.000,1115.000,1111.000,1136.000
1162.561,1114.000,1117.000,1116.000,1130.000,1105.000,1104.000
1165.979,1111.000,1093.000,1098.000,1105.000,1102.000,1120.000
1169.397,1143.000,1102.000,1110.000,1124.000,1099.000,1129.000
1172.813,1146.000,1128.000,1109.000,1109.000,1111.000,1131.000
1176.229,1123.000,1123.000,1128.000,1126.000,1151.000,1112.000
1179.641,1090.000,1148.000,1130.000,1126.000,1125.000,1130.000
1183.054,1107.000,1131.000,1128.000,1126.000,1120.000,1094.000
1186.465,1100.000,1124.000,1099.000,1114.000,1118.000,1128.000
1189.874,1092.000,1099.000,1108.000,1115.000,1101.000,1093.000
1193.282,1111.000,1129.000,1111.000,1116.000,1087.000,1104.000
1196.688,1119.000,1114.000,1086.000,1120.000,1105.000,1108.000
1200.095,1104.000,1098.000,1099.000,1100.000,1087.000,1078.000
1203.498,1073.000,1090.000,1116.000,1099.000,1093.000,1100.000
1206.902,1067.000,1105.000,1069.000,1104.000,1107.000,1095.000
1210.302,1085.000,1061.000,1093.000,1089.000,1056.000,1059.000
1213.703,1072.000,1083.000,1076.000,1062.000,1067.000,1069.000
1217.103,1082.000,1087.000,1068.000,1062.000,1068.000,1061.000
1220.499,1046.000,1030.000,1060.000,1052.000,1053.000,1063.000
1223.897,1041.000,1077.000,1031.000,1045.000,1038.000,1029.000
1227.291,1045.000,1005.000,1062.000,1049.000,1052.000,1049.000
1230.685,1010.000,1042.000,1018.000,1019.000,1012.000,1035.000
1234.076,1004.000,1023.000,996.000,1007.000,1019.000,1013.000
1237.469,1013.000,1003.000,1017.000,992.000,1018.000,996.000
1240.858,985.000,1010.000,1005.000,1032.000,1018.000,983.000
1244.246,982.000,975.000,992.000,977.000,982.000,993.000
1247.634,990.000,983.000,987.000,971.000,968.000,984.000
1251.020,983.000,971.000,967.000,953.000,964.000,969.000
1254.405,976.000,983.000,968.000,941.000,959.000,969.000
1257.787,963.000,956.000,967.000,957.000,956.000,953.000
1261.170,960.000,957.000,967.000,945.000,971.000,946.000
1264.549,935.000,972.000,963.000,956.000,947.000,973.000
1267.929,945.000,967.000,962.000,961.000,947.000,954.000
1271.308,964.000,960.000,970.000,971.000,958.000,968.000
1274.683,957.000,965.000,977.000,944.000,946.000,961.000
1278.060,928.000,924.000,939.000,938.000,926.000,958.000
1281.433,943.000,939.000,946.000,946.000,938.000,930.000
1284.807,952.000,936.000,943.000,938.000,938.000,933.000
1288.177,934.000,931.000,920.000,926.000,934.000,931.000
1291.548,929.000,936.000,934.000,938.000,940.000,936.000
1294.916,924.000,918.000,933.000,938.000,931.000,929.000
1298.284,933.000,935.000,919.000,929.000,919.000,930.000
1301.652,916.000,931.000,954.000,928.000,919.000,931.000
1305.015,947.000,928.000,928.000,918.000,950.000,918.000
1308.380,924.000,938.000,931.000,948.000,935.000,950.000
1311.742,953.000,930.000,940.000,929.000,929.000,924.000
1315.104,918.000,935.000,931.000,912.000,931.000,914.000
1318.462,944.000,924.000,939.000,927.000,933.000,932.000
1321.822,950.000,947.000,937.000,928.000,927.000,930.000
1325.180,946.000,946.000,951.000,933.000,923.000,946.000
1328.535,935.000,935.000,935.000,943.000,926.000,901.000
1331.891,944.000,936.000,937.000,934.000,910.000,938.000
1335.243,930.000,927.000,923.000,927.000,946.000,945.000
1338.595,929.000,951.000,928.000,928.000,925.000,933.000
1341.946,938.000,944.000,941.000,924.000,917.000,930.000
1345.296,925.000,931.000,919.000,934.000,939.000,930.000
1348.643,928.000,936.000,916.000,925.000,932.000,921.000
1351.991,936.000,922.000,920.000,938.000,925.000,938.000
1355.337,928.000,932.000,932.000,938.000,931.000,926.000
1358.680,934.000,921.000,929.000,927.000,938.000,925.000
1362.025,931.000,951.000,927.000,951.000,916.000,919.000
1365.366,949.000,958.000,925.000,921.000,955.000,904.000
1368.707,951.000,926.000,927.000,915.000,950.000,945.000
1372.045,941.000,952.000,947.000,941.000,942.000,937.000
1375.384,964.000,946.000,979.000,974.000,962.000,951.000
1378.720,954.000,965.000,950.000,955.000,966.000,951.000
1382.057,922.000,946.000,932.000,934.000,941.000,943.000
1385.391,942.000,919.000,959.000,930.000,942.000,930.000
1388.723,944.000,928.000,949.000,936.000,942.000,948.000
1392.056,940.000,927.000,930.000,941.000,960.000,931.000
1395.385,948.000,939.000,939.000,931.000,962.000,933.000
1398.714,944.000,940.000,950.000,925.000,939.000,935.000
1402.042,928.000,935.000,920.000,941.000,939.000,951.000
1405.369,925.000,933.000,937.000,930.000,948.000,923.000
1408.692,943.000,933.000,939.000,931.000,912.000,945.000
1412.017,941.000,949.000,940.000,931.000,930.000,932.000
1415.341,942.000,948.000,921.000,927.000,951.000,924.000
1418.662,938.000,941.000,950.000,929.000,931.000,925.000
1421.982,949.000,925.000,925.000,946.000,948.000,928.000
1425.300,947.000,939.000,932.000,916.000,916.000,946.000
1428.619,924.000,932.000,925.000,912.000,923.000,922.000
1431.935,942.000,969.000,918.000,927.000,952.000,932.000
1435.250,918.000,946.000,933.000,934.000,942.000,932.000
1438.563,940.000,943.000,936.000,940.000,936.000,944.000
1441.877,943.000,932.000,929.000,928.000,945.000,925.000
1445.189,1379.000,939.000,940.000,953.000,941.000,936.000
1448.497,945.000,953.000,946.000,947.000,943.000,946.000
1451.807,921.000,938.000,927.000,938.000,958.000,935.000
1455.114,927.000,940.000,979.000,954.000,920.000,945.000
1458.420,909.000,939.000,940.000,939.000,917.000,924.000
1461.725,927.000,939.000,937.000,952.000,951.000,922.000
1465.029,957.000,935.000,959.000,933.000,960.000,927.000
1468.331,948.000,936.000,948.000,937.000,940.000,935.000
1471.632,949.000,953.000,924.000,941.000,961.000,957.000
1474.934,968.000,955.000,961.000,949.000,943.000,936.000
1478.232,967.000,965.000,967.000,953.000,943.000,942.000
1481.530,950.000,947.000,930.000,959.000,949.000,935.000
1484.825,942.000,953.000,935.000,931.000,939.000,946.000
1488.120,947.000,960.000,948.000,955.000,921.000,944.000
1491.414,941.000,963.000,940.000,931.000,943.000,943.000
1494.707,955.000,961.000,946.000,958.000,969.000,939.000
1497.997,960.000,951.000,953.000,935.000,977.000,939.000
1501.287,942.000,967.000,944.000,967.000,927.000,936.000
1504.577,953.000,945.000,945.000,938.000,933.000,968.000
1507.863,950.000,952.000,941.000,951.000,972.000,962.000
1511.151,976.000,980.000,950.000,958.000,939.000,954.000
1514.435,958.000,935.000,958.000,959.000,954.000,954.000
1517.719,963.000,950.000,946.000,931.000,963.000,947.000
1521.001,962.000,967.000,961.000,936.000,962.000,955.000
1524.282,959.000,943.000,949.000,950.000,966.000,962.000
1527.561,953.000,942.000,956.000,941.000,955.000,946.000
1530.840,943.000,938.000,948.000,979.000,960.000,957.000
1534.118,956.000,977.000,957.000,964.000,942.000,959.000
1537.394,974.000,958.000,986.000,969.000,951.000,972.000
1540.670,974.000,964.000,949.000,990.000,946.000,978.000
1543.943,952.000,959.000,971.000,985.000,958.000,967.000
1547.216,977.000,981.000,957.000,966.000,965.000,960.000
1550.486,947.000,971.000,961.000,991.000,979.000,955.000
1553.756,978.000,962.000,962.000,982.000,973.000,968.000
1557.027,942.000,964.000,1423.000,952.000,973.000,965.000
1560.293,954.000,973.000,977.000,961.000,961.000,983.000
1563.560,965.000,983.000,969.000,988.000,975.000,981.000
1566.824,971.000,963.000,966.000,984.000,979.000,976.000
1570.088,984.000,982.000,985.000,978.000,956.000,987.000
1573.350,992.000,987.000,972.000,982.000,980.000,997.000
1576.612,1007.000,999.000,990.000,1016.000,988.000,999.000
1579.872,982.000,1020.000,983.000,981.000,982.000,1005.000
1583.131,984.000,969.000,979.000,1022.000,999.000,984.000
1586.390,978.000,998.000,981.000,977.000,1012.000,966.000
1589.645,1028.000,978.000,1003.000,1004.000,1011.000,1001.000
1592.901,1008.000,1026.000,1022.000,998.000,995.000,995.000
1596.154,1031.000,1015.000,1005.000,1013.000,1021.000,1008.000
1599.408,1015.000,1023.000,995.000,1029.000,1018.000,1033.000
1602.658,1037.000,1035.000,1041.000,1041.000,1026.000,1022.000
1605.909,1043.000,1022.000,1046.000,1033.000,1035.000,1038.000
1609.158,1056.000,1042.000,1031.000,1049.000,1040.000,1047.000
1612.405,1071.000,1032.000,1063.000,1057.000,1047.000,1066.000
1615.653,1059.000,1040.000,1042.000,1060.000,1052.000,1044.000
1618.898,1041.000,1007.000,1025.000,1050.000,1039.000,1035.000
1622.142,1020.000,1051.000,1047.000,1007.000,1048.000,1027.000
1625.384,1044.000,1038.000,1039.000,1036.000,1033.000,1023.000
1628.627,1033.000,1005.000,1039.000,1045.000,1025.000,1025.000
1631.866,1043.000,1029.000,1030.000,1023.000,1039.000,1028.000
1635.106,1011.000,1019.000,997.000,1014.000,1035.000,1020.000
1638.345,1015.000,1029.000,1022.000,1007.000,997.000,1012.000
1641.580,1009.000,1012.000,1016.000,962.000,1004.000,1014.000
1644.816,991.000,961.000,993.000,986.000,1007.000,1008.000
1648.050,995.000,987.000,989.000,997.000,984.000,964.000
1651.285,992.000,987.000,983.000,1007.000,991.000,1010.000
1654.515,988.000,987.000,980.000,977.000,1019.000,974.000
1657.747,999.000,1007.000,990.000,983.000,964.000,986.000
1660.975,991.000,961.000,979.000,977.000,974.000,989.000
1664.204,1000.000,970.000,949.000,998.000,976.000,977.000
1667.431,985.000,975.000,960.000,985.000,971.000,949.000
1670.656,970.000,1007.000,962.000,961.000,978.000,969.000
1673.882,964.000,1000.000,978.000,979.000,983.000,984.000
1677.104,987.000,964.000,983.000,953.000,966.000,966.000
1680.328,961.000,981.000,967.000,979.000,973.000,953.000
1683.548,955.000,955.000,974.000,979.000,978.000,975.000
1686.768,961.000,965.000,959.000,965.000,961.000,975.000
1689.986,939.000,951.000,975.000,980.000,969.000,951.000
1693.203,970.000,970.000,957.000,959.000,927.000,988.000
1696.420,978.000,956.000,950.000,960.000,977.000,954.000
1699.634,968.000,980.000,968.000,956.000,948.000,959.000
1702.848,954.000,975.000,987.000,957.000,949.000,953.000
1706.060,956.000,980.000,980.000,959.000,991.000,958.000
1709.272,968.000,964.000,969.000,980.000,954.000,956.000
1712.482,973.000,956.000,967.000,945.000,952.000,965.000
1715.691,977.000,950.000,975.000,973.000,962.000,943.000
1718.897,983.000,954.000,985.000,976.000,947.000,967.000
1722.105,970.000,977.000,959.000,992.000,959.000,956.000
1725.311,970.000,949.000,967.000,974.000,980.000,973.000
1728.514,968.000,962.000,973.000,991.000,965.000,942.000
1731.718,987.000,976.000,959.000,968.000,963.000,981.000
1734.918,969.000,978.000,953.000,965.000,976.000,948.000
1738.120,971.000,977.000,970.000,955.000,964.000,986.000
1741.318,979.000,951.000,970.000,954.000,963.000,977.000
1744.517,975.000,961.000,956.000,978.000,948.000,962.000
1747.712,968.000,976.000,980.000,966.000,934.000,959.000
1750.909,970.000,969.000,975.000,966.000,957.000,969.000
1754.104,976.000,974.000,958.000,955.000,954.000,963.000
1757.297,980.000,967.000,991.000,982.000,984.000,970.000
1760.489,955.000,972.000,961.000,982.000,949.000,955.000
1763.679,973.000,976.000,974.000,963.000,960.000,967.000
1766.870,984.000,973.000,986.000,989.000,965.000,979.000
1770.057,972.000,958.000,968.000,974.000,959.000,929.000
1773.245,992.000,959.000,976.000,957.000,965.000,979.000
1776.430,957.000,983.000,978.000,978.000,956.000,991.000
1779.616,960.000,972.000,983.000,963.000,958.000,945.000
1782.800,965.000,982.000,960.000,962.000,986.000,980.000
1785.982,975.000,982.000,975.000,951.000,972.000,976.000
1789.164,976.000,953.000,992.000,970.000,971.000,954.000
1792.343,971.000,985.000,981.000,971.000,984.000,979.000
1795.523,986.000,969.000,997.000,986.000,967.000,973.000
1798.700,983.000,975.000,993.000,961.000,966.000,967.000
1801.877,976.000,998.000,993.000,966.000,984.000,960.000
1805.052,984.000,971.000,985.000,992.000,974.000,986.000
1808.226,982.000,997.000,1000.000,998.000,997.000,988.000
1811.400,975.000,992.000,987.000,995.000,982.000,965.000
1814.571,1000.000,1012.000,995.000,992.000,980.000,1012.000
1816.157,994.000,1002.000,988.000,998.000,994.000,994.000