File: Raman/Silica/2025_09_12_12pct_Hydrated_SiO2_Glass_on_DAC_Culet_50X_532nm_74mW_Andor750_600gv_1030wn_6accum_30s_DePol_Loc3.csv
23.130,3351.000,3312.000,3363.000,3361.000,3376.000,3377.000
27.007,2961.000,2982.000,3067.000,2998.000,3010.000,3009.000
30.879,2993.000,2993.000,2957.000,2954.000,3023.000,2979.000
34.751,3060.000,3070.000,3061.000,3048.000,3049.000,3057.000
38.619,2974.000,3052.000,3055.000,2981.000,3023.000,3021.000
42.489,3073.000,3085.000,3110.000,3156.000,3120.000,3105.000
46.355,3204.000,3146.000,3196.000,3248.000,3154.000,3184.000
50.221,3039.000,3020.000,3076.000,3045.000,3066.000,3071.000
54.083,3120.000,3163.000,3072.000,3153.000,3171.000,3136.000
57.946,3030.000,3157.000,3063.000,3120.000,3136.000,3141.000
61.807,2924.000,2980.000,3027.000,3020.000,3031.000,2975.000
65.665,2982.000,2884.000,2935.000,2972.000,2949.000,2909.000
69.523,2978.000,2976.000,2998.000,3010.000,2957.000,3032.000
73.377,2757.000,2753.000,2707.000,2768.000,2752.000,2762.000
77.233,2788.000,2774.000,2777.000,2789.000,2827.000,2841.000
81.084,2796.000,2680.000,2707.000,2764.000,2693.000,2743.000
84.936,2745.000,2696.000,2722.000,2723.000,2677.000,2708.000
88.784,2554.000,2519.000,2523.000,2575.000,2576.000,2530.000
92.632,2561.000,2548.000,2585.000,2563.000,2623.000,2591.000
96.480,2451.000,2412.000,2477.000,2452.000,2509.000,2441.000
100.323,2513.000,2524.000,2534.000,2539.000,2530.000,2540.000
104.167,2380.000,2368.000,2321.000,2350.000,2367.000,2376.000
108.007,2373.000,2343.000,2325.000,2329.000,2351.000,2378.000
111.848,2300.000,2266.000,2267.000,2273.000,2235.000,2239.000
115.685,2319.000,2258.000,2376.000,2299.000,2389.000,2346.000
119.522,2143.000,2147.000,2169.000,2145.000,2182.000,2167.000
123.359,2144.000,2160.000,2150.000,2192.000,2169.000,2156.000
127.190,2106.000,2037.000,2128.000,2080.000,2084.000,2120.000
131.024,2056.000,2113.000,2100.000,2116.000,2083.000,2118.000
134.853,1993.000,2008.000,1955.000,2028.000,2033.000,2042.000
138.683,1947.000,1950.000,1915.000,1954.000,1927.000,1939.000
142.508,1918.000,1928.000,1910.000,1921.000,1972.000,1934.000
146.335,1908.000,1899.000,1937.000,1929.000,1917.000,1977.000
150.158,1826.000,1849.000,1814.000,1818.000,1862.000,1852.000
153.982,1813.000,1846.000,1848.000,1859.000,1804.000,1855.000
157.804,1780.000,1798.000,1799.000,1812.000,1826.000,1790.000
161.621,1754.000,1790.000,1733.000,1739.000,1821.000,1777.000
165.441,1779.000,1719.000,1770.000,1719.000,1766.000,1741.000
169.256,1719.000,1730.000,1741.000,1754.000,1725.000,1723.000
173.071,1662.000,1664.000,1703.000,1687.000,1696.000,1685.000
176.883,1656.000,1653.000,1663.000,1680.000,1666.000,1672.000
180.696,1612.000,1648.000,1642.000,1660.000,1662.000,1630.000
184.504,1615.000,1614.000,1627.000,1600.000,1593.000,1600.000
188.314,1639.000,1604.000,1616.000,1623.000,1607.000,1592.000
192.122,1586.000,1592.000,1571.000,1562.000,1596.000,1597.000
195.925,1553.000,1531.000,1544.000,1531.000,1551.000,1593.000
199.731,1554.000,1577.000,1576.000,1595.000,1550.000,1540.000
203.532,1526.000,1486.000,1504.000,1531.000,1529.000,1527.000
207.333,1476.000,1545.000,1520.000,1525.000,1516.000,1515.000
211.132,1516.000,1538.000,1549.000,1537.000,1523.000,1513.000
214.929,1541.000,1481.000,1497.000,1474.000,1486.000,1489.000
218.724,1467.000,1499.000,1470.000,1455.000,1496.000,1461.000
222.519,1496.000,1499.000,1469.000,1489.000,1473.000,1451.000
226.313,1438.000,1475.000,1462.000,1445.000,1455.000,1453.000
230.104,1444.000,1451.000,1431.000,1441.000,1427.000,1429.000
233.894,1456.000,1449.000,1417.000,1450.000,1477.000,1485.000
237.681,1440.000,1451.000,1439.000,1434.000,1452.000,1394.000
241.469,1381.000,1403.000,1413.000,1406.000,1374.000,1408.000
245.253,1433.000,1419.000,1436.000,1419.000,1443.000,1410.000
249.038,1384.000,1398.000,1367.000,1393.000,1424.000,1383.000
252.819,1361.000,1414.000,1380.000,1418.000,1397.000,1393.000
256.600,1407.000,1397.000,1383.000,1414.000,1371.000,1384.000
260.380,1402.000,1331.000,1366.000,1383.000,1337.000,1384.000
264.156,1360.000,1371.000,1366.000,1325.000,1350.000,1366.000
267.933,1371.000,1379.000,1381.000,1365.000,1370.000,1361.000
271.707,1366.000,1378.000,1348.000,1345.000,1355.000,1356.000
275.480,1358.000,1370.000,1326.000,1379.000,1359.000,1353.000
279.251,1336.000,1344.000,1374.000,1349.000,1339.000,1339.000
283.021,1327.000,1325.000,1340.000,1326.000,1323.000,1385.000
286.790,1332.000,1331.000,1322.000,1330.000,1326.000,1341.000
290.556,1310.000,1318.000,1326.000,1359.000,1335.000,1344.000
294.322,1308.000,1321.000,1298.000,1309.000,1313.000,1317.000
298.084,1339.000,1303.000,1308.000,1293.000,1317.000,1312.000
301.847,1331.000,1348.000,1312.000,1335.000,1353.000,1343.000
305.607,1318.000,1330.000,1332.000,1311.000,1298.000,1299.000
309.367,1325.000,1307.000,1351.000,1323.000,1335.000,1308.000
313.123,1334.000,1324.000,1314.000,1331.000,1329.000,1331.000
316.880,1333.000,1319.000,1317.000,1287.000,1317.000,1294.000
320.635,1273.000,1339.000,1341.000,1340.000,1306.000,1306.000
324.387,1299.000,1314.000,1323.000,1335.000,1303.000,1311.000
328.139,1289.000,1308.000,1300.000,1291.000,1311.000,1285.000
331.888,1291.000,1284.000,1279.000,1299.000,1273.000,1339.000
335.638,1278.000,1305.000,1308.000,1338.000,1298.000,1309.000
339.384,1290.000,1310.000,1328.000,1329.000,1299.000,1302.000
343.130,1299.000,1294.000,1334.000,1320.000,1300.000,1315.000
346.873,1321.000,1344.000,1312.000,1322.000,1338.000,1304.000
350.616,1306.000,1305.000,1325.000,1327.000,1330.000,1332.000
354.357,1309.000,1274.000,1300.000,1330.000,1299.000,1291.000
358.095,1331.000,1360.000,1315.000,1338.000,1320.000,1303.000
361.835,1307.000,1327.000,1312.000,1308.000,1297.000,1311.000
365.569,1325.000,1301.000,1307.000,1323.000,1305.000,1312.000
369.305,1309.000,1346.000,1301.000,1307.000,1318.000,1324.000
373.037,1345.000,1348.000,1323.000,1328.000,1296.000,1314.000
376.770,1325.000,1318.000,1313.000,1306.000,1330.000,1325.000
380.498,1325.000,1302.000,1328.000,1319.000,1293.000,1335.000
384.228,1306.000,1345.000,1326.000,1315.000,1350.000,1315.000
387.956,1344.000,1318.000,1282.000,1318.000,1329.000,1316.000
391.681,1322.000,1311.000,1329.000,1331.000,1315.000,1337.000
395.405,1305.000,1320.000,1320.000,1331.000,1295.000,1318.000
399.127,1276.000,1304.000,1311.000,1322.000,1315.000,1313.000
402.849,1307.000,1364.000,1353.000,1328.000,1322.000,1292.000
406.567,1306.000,1335.000,1308.000,1333.000,1330.000,1318.000
410.287,1312.000,1307.000,1291.000,1312.000,1355.000,1310.000
414.003,1331.000,1325.000,1329.000,1326.000,1330.000,1360.000
417.719,1336.000,1370.000,1300.000,1316.000,1354.000,1308.000
421.432,1333.000,1301.000,1301.000,1339.000,1286.000,1313.000
425.144,1347.000,1362.000,1351.000,1333.000,1345.000,1344.000
428.855,1343.000,1342.000,1346.000,1318.000,1314.000,1338.000
432.563,1329.000,1324.000,1319.000,1337.000,1317.000,1342.000
436.272,1325.000,1352.000,1326.000,1349.000,1325.000,1337.000
439.977,1330.000,1322.000,1357.000,1319.000,1342.000,1349.000
443.683,1332.000,1331.000,1347.000,1333.000,1329.000,1353.000
447.386,1342.000,1363.000,1343.000,1366.000,1349.000,1367.000
451.087,1348.000,1319.000,1338.000,1344.000,1327.000,1348.000
454.788,1338.000,1347.000,1365.000,1361.000,1351.000,1352.000
458.485,1363.000,1390.000,1344.000,1372.000,1377.000,1348.000
462.183,1381.000,1377.000,1358.000,1346.000,1331.000,1353.000
465.879,1331.000,1343.000,1331.000,1357.000,1384.000,1348.000
469.574,1343.000,1353.000,1329.000,1396.000,1382.000,1362.000
473.265,1372.000,1315.000,1372.000,1372.000,1340.000,1339.000
476.957,1360.000,1363.000,1366.000,1361.000,1370.000,1369.000
480.647,1344.000,1355.000,1362.000,1331.000,1347.000,1379.000
484.335,1340.000,1339.000,1305.000,1353.000,1377.000,1335.000
488.022,1309.000,1315.000,1310.000,1326.000,1287.000,1299.000
491.706,1289.000,1297.000,1288.000,1276.000,1301.000,1315.000
495.391,1244.000,1258.000,1257.000,1261.000,1255.000,1267.000
499.072,1209.000,1199.000,1234.000,1191.000,1194.000,1203.000
502.754,1160.000,1197.000,1163.000,1139.000,1163.000,1153.000
506.432,1127.000,1146.000,1114.000,1115.000,1124.000,1121.000
510.111,1088.000,1082.000,1077.000,1102.000,1093.000,1071.000
513.788,1071.000,1045.000,1062.000,1063.000,1065.000,1047.000
517.462,1021.000,1013.000,1018.000,987.000,1040.000,1029.000
521.136,1010.000,1001.000,1005.000,995.000,1007.000,1021.000
524.807,984.000,971.000,984.000,986.000,972.000,976.000
528.479,969.000,978.000,986.000,988.000,981.000,979.000
532.147,944.000,966.000,970.000,946.000,959.000,969.000
535.815,971.000,956.000,958.000,988.000,954.000,961.000
539.480,964.000,971.000,939.000,937.000,941.000,927.000
543.145,952.000,947.000,958.000,950.000,942.000,942.000
546.809,953.000,933.000,918.000,928.000,945.000,925.000
550.469,934.000,941.000,943.000,922.000,924.000,917.000
554.131,928.000,925.000,911.000,924.000,913.000,917.000
557.788,913.000,919.000,918.000,902.000,917.000,925.000
561.446,918.000,914.000,931.000,906.000,908.000,915.000
565.100,903.000,895.000,895.000,913.000,892.000,893.000
568.756,887.000,902.000,924.000,889.000,901.000,898.000
572.408,896.000,882.000,915.000,904.000,892.000,888.000
576.060,897.000,898.000,900.000,896.000,894.000,895.000
579.711,894.000,877.000,885.000,888.000,875.000,872.000
583.358,895.000,888.000,884.000,889.000,877.000,895.000
587.006,875.000,866.000,860.000,883.000,887.000,853.000
590.650,865.000,872.000,866.000,879.000,870.000,869.000
594.295,878.000,891.000,851.000,866.000,865.000,867.000
597.937,873.000,846.000,857.000,884.000,884.000,871.000
601.579,879.000,875.000,865.000,863.000,869.000,865.000
605.217,872.000,870.000,842.000,866.000,856.000,874.000
608.856,854.000,875.000,855.000,871.000,868.000,870.000
612.494,864.000,844.000,870.000,862.000,852.000,851.000
616.129,857.000,873.000,847.000,869.000,844.000,855.000
619.763,856.000,843.000,848.000,856.000,845.000,841.000
623.394,856.000,856.000,863.000,844.000,842.000,850.000
627.026,862.000,863.000,856.000,846.000,841.000,859.000
630.655,861.000,853.000,833.000,838.000,842.000,844.000
634.284,844.000,858.000,854.000,838.000,855.000,861.000
637.911,851.000,857.000,843.000,859.000,847.000,831.000
641.535,841.000,846.000,835.000,854.000,838.000,848.000
645.160,852.000,838.000,835.000,830.000,845.000,837.000
648.781,829.000,857.000,838.000,845.000,842.000,845.000
652.403,826.000,842.000,849.000,843.000,849.000,834.000
656.021,845.000,836.000,848.000,846.000,833.000,833.000
659.640,851.000,843.000,826.000,850.000,851.000,848.000
663.256,857.000,838.000,839.000,830.000,840.000,844.000
666.872,833.000,837.000,828.000,835.000,833.000,844.000
670.485,844.000,839.000,863.000,856.000,839.000,831.000
674.097,840.000,842.000,855.000,824.000,830.000,838.000
677.709,865.000,851.000,842.000,843.000,838.000,833.000
681.317,846.000,839.000,851.000,854.000,857.000,845.000
684.926,829.000,851.000,823.000,826.000,848.000,842.000
688.531,851.000,839.000,859.000,843.000,845.000,850.000
692.136,832.000,846.000,843.000,843.000,833.000,842.000
695.739,856.000,832.000,834.000,843.000,838.000,831.000
699.342,854.000,822.000,852.000,843.000,839.000,855.000
702.944,854.000,845.000,848.000,844.000,844.000,836.000
706.542,870.000,843.000,839.000,864.000,851.000,857.000
710.141,854.000,847.000,867.000,849.000,839.000,851.000
713.736,850.000,836.000,843.000,843.000,841.000,846.000
717.332,871.000,851.000,855.000,843.000,850.000,860.000
720.925,851.000,857.000,851.000,854.000,849.000,841.000
724.517,851.000,829.000,840.000,842.000,827.000,846.000
728.106,857.000,854.000,851.000,852.000,832.000,852.000
731.697,845.000,863.000,860.000,845.000,849.000,858.000
735.286,858.000,878.000,856.000,853.000,838.000,854.000
738.871,859.000,858.000,851.000,851.000,860.000,865.000
742.457,856.000,863.000,856.000,847.000,851.000,843.000
746.039,856.000,873.000,884.000,864.000,871.000,868.000
749.622,868.000,882.000,881.000,848.000,859.000,876.000
753.202,868.000,883.000,864.000,866.000,875.000,866.000
756.782,879.000,873.000,860.000,868.000,887.000,879.000
760.360,882.000,899.000,896.000,887.000,892.000,901.000
763.937,895.000,905.000,891.000,892.000,893.000,894.000
767.512,907.000,929.000,925.000,902.000,913.000,908.000
771.085,946.000,938.000,969.000,938.000,963.000,945.000
774.657,971.000,998.000,1001.000,974.000,971.000,979.000
778.228,1029.000,1012.000,1034.000,1031.000,1022.000,1031.000
781.797,1037.000,1021.000,1024.000,1034.000,1030.000,1012.000
785.364,1079.000,1063.000,1058.000,1063.000,1052.000,1053.000
788.932,1064.000,1069.000,1049.000,1059.000,1041.000,1038.000
792.498,1056.000,1069.000,1034.000,1069.000,1053.000,1076.000
796.060,1052.000,1073.000,1053.000,1053.000,1057.000,1035.000
799.624,1038.000,1068.000,1054.000,1059.000,1058.000,1031.000
803.184,1033.000,1044.000,1046.000,1013.000,1030.000,1031.000
806.744,1045.000,1013.000,1016.000,1022.000,1043.000,1029.000
810.301,1013.000,1021.000,1030.000,1029.000,1015.000,1017.000
813.859,1001.000,1006.000,997.000,1019.000,1011.000,994.000
817.413,986.000,989.000,989.000,996.000,983.000,989.000
820.967,976.000,990.000,985.000,983.000,980.000,979.000
824.520,967.000,961.000,972.000,958.000,961.000,958.000
828.071,957.000,953.000,960.000,947.000,946.000,950.000
831.622,940.000,921.000,948.000,935.000,932.000,938.000
835.169,903.000,937.000,905.000,921.000,927.000,927.000
838.716,923.000,915.000,909.000,889.000,904.000,890.000
842.261,900.000,895.000,897.000,892.000,911.000,895.000
845.806,874.000,873.000,878.000,881.000,867.000,878.000
849.347,852.000,854.000,855.000,859.000,856.000,859.000
852.890,870.000,857.000,858.000,852.000,862.000,846.000
856.430,861.000,852.000,862.000,864.000,843.000,860.000
859.968,851.000,845.000,839.000,851.000,849.000,844.000
863.506,861.000,847.000,845.000,844.000,857.000,835.000
867.040,860.000,831.000,847.000,836.000,852.000,843.000
870.574,846.000,839.000,847.000,857.000,828.000,822.000
874.106,843.000,848.000,835.000,836.000,836.000,835.000
877.640,842.000,846.000,853.000,825.000,842.000,855.000
881.168,862.000,851.000,838.000,842.000,825.000,851.000
884.698,836.000,832.000,830.000,841.000,837.000,847.000
888.226,858.000,838.000,850.000,831.000,844.000,844.000
891.750,867.000,841.000,845.000,848.000,844.000,864.000
895.276,855.000,852.000,841.000,852.000,854.000,861.000
898.798,846.000,843.000,846.000,871.000,840.000,854.000
902.321,859.000,860.000,861.000,857.000,832.000,862.000
905.840,849.000,858.000,868.000,870.000,874.000,849.000
909.360,864.000,875.000,876.000,875.000,855.000,857.000
912.876,871.000,863.000,882.000,850.000,867.000,872.000
916.393,874.000,889.000,876.000,865.000,861.000,866.000
919.909,877.000,879.000,866.000,888.000,863.000,873.000
923.422,882.000,878.000,878.000,885.000,864.000,874.000
926.934,876.000,891.000,889.000,868.000,880.000,876.000
930.444,887.000,906.000,907.000,880.000,897.000,886.000
933.954,894.000,888.000,894.000,901.000,901.000,914.000
937.461,908.000,901.000,906.000,906.000,892.000,909.000
940.968,920.000,909.000,919.000,922.000,924.000,929.000
944.475,923.000,925.000,919.000,905.000,934.000,938.000
947.978,945.000,943.000,912.000,920.000,932.000,919.000
951.481,952.000,927.000,941.000,944.000,912.000,950.000
954.981,958.000,970.000,971.000,970.000,976.000,970.000
958.482,974.000,954.000,973.000,963.000,978.000,962.000
961.979,971.000,968.000,973.000,985.000,961.000,982.000
965.476,979.000,999.000,1022.000,983.000,988.000,960.000
968.971,980.000,953.000,998.000,976.000,967.000,984.000
972.466,972.000,995.000,974.000,960.000,976.000,951.000
975.959,1001.000,965.000,970.000,959.000,969.000,947.000
979.451,953.000,961.000,963.000,967.000,947.000,961.000
982.941,945.000,953.000,923.000,958.000,944.000,957.000
986.428,932.000,952.000,929.000,925.000,941.000,927.000
989.917,931.000,924.000,905.000,925.000,918.000,919.000
993.402,907.000,916.000,903.000,907.000,920.000,896.000
996.887,916.000,891.000,904.000,889.000,915.000,893.000
1000.369,904.000,923.000,911.000,894.000,907.000,926.000
1003.852,902.000,897.000,874.000,909.000,868.000,897.000
1007.333,887.000,888.000,895.000,891.000,882.000,881.000
1010.812,900.000,893.000,898.000,886.000,888.000,878.000
1014.290,886.000,879.000,899.000,880.000,867.000,887.000
1017.766,870.000,895.000,872.000,881.000,879.000,879.000
1021.241,888.000,891.000,886.000,881.000,887.000,895.000
1024.714,884.000,872.000,875.000,896.000,895.000,877.000
1028.188,883.000,892.000,895.000,886.000,885.000,878.000
1031.658,896.000,900.000,897.000,900.000,877.000,875.000
1035.128,912.000,926.000,895.000,903.000,883.000,899.000
1038.598,909.000,922.000,895.000,900.000,903.000,900.000
1042.063,902.000,902.000,925.000,911.000,879.000,899.000
1045.530,912.000,909.000,924.000,928.000,910.000,924.000
1048.994,931.000,916.000,921.000,924.000,928.000,911.000
1052.457,923.000,919.000,902.000,926.000,923.000,934.000
1055.917,930.000,952.000,921.000,944.000,924.000,935.000
1059.379,909.000,928.000,940.000,905.000,934.000,923.000
1062.838,915.000,924.000,906.000,927.000,927.000,931.000
1066.294,916.000,917.000,916.000,922.000,912.000,1230.000
1069.752,912.000,929.000,913.000,902.000,916.000,915.000
1073.206,898.000,908.000,898.000,894.000,899.000,905.000
1076.660,904.000,883.000,894.000,895.000,882.000,916.000
1080.110,873.000,890.000,895.000,887.000,895.000,885.000
1083.562,865.000,894.000,884.000,890.000,882.000,876.000
1087.011,880.000,891.000,874.000,864.000,849.000,856.000
1090.460,850.000,865.000,875.000,867.000,854.000,874.000
1093.908,848.000,870.000,865.000,839.000,869.000,831.000
1097.351,834.000,853.000,872.000,830.000,838.000,830.000
1100.796,837.000,835.000,847.000,842.000,838.000,839.000
1104.238,851.000,844.000,848.000,858.000,837.000,831.000
1107.681,834.000,836.000,822.000,825.000,839.000,820.000
1111.120,834.000,825.000,819.000,826.000,823.000,822.000
1114.559,838.000,826.000,831.000,842.000,832.000,821.000
1117.995,813.000,828.000,823.000,818.000,825.000,824.000
1121.432,837.000,833.000,817.000,831.000,829.000,836.000
1124.867,832.000,830.000,850.000,853.000,839.000,826.000
1128.300,838.000,846.000,851.000,831.000,820.000,839.000
1131.733,826.000,850.000,855.000,843.000,839.000,830.000
1135.163,858.000,843.000,843.000,863.000,851.000,854.000
1138.593,840.000,854.000,844.000,854.000,856.000,853.000
1142.020,861.000,859.000,856.000,850.000,850.000,844.000
1145.447,855.000,860.000,853.000,842.000,860.000,856.000
1148.872,873.000,856.000,869.000,852.000,850.000,857.000
1152.297,863.000,869.000,861.000,851.000,852.000,858.000
1155.720,846.000,862.000,859.000,846.000,849.000,871.000
1159.141,875.000,862.000,850.000,867.000,871.000,859.000
1162.561,881.000,877.000,871.000,865.000,866.000,868.000
1165.979,870.000,866.000,863.000,880.000,851.000,888.000
1169.397,867.000,882.000,856.000,886.000,870.000,863.000
1172.813,860.000,858.000,849.000,859.000,876.000,872.000
1176.229,871.000,872.000,852.000,866.000,862.000,874.000
1179.641,881.000,859.000,870.000,877.000,883.000,887.000
1183.054,870.000,893.000,860.000,867.000,864.000,866.000
1186.465,863.000,871.000,873.000,866.000,868.000,860.000
1189.874,872.000,849.000,860.000,875.000,895.000,880.000
1193.282,884.000,869.000,871.000,868.000,862.000,869.000
1196.688,872.000,856.000,863.000,860.000,875.000,861.000
1200.095,875.000,875.000,868.000,869.000,867.000,868.000
1203.498,873.000,863.000,853.000,870.000,839.000,875.000
1206.902,861.000,869.000,844.000,845.000,850.000,854.000
1210.302,870.000,856.000,863.000,842.000,849.000,876.000
1213.703,863.000,873.000,861.000,862.000,852.000,865.000
1217.103,876.000,858.000,854.000,862.000,852.000,846.000
1220.499,864.000,848.000,854.000,843.000,873.000,860.000
1223.897,850.000,841.000,853.000,847.000,834.000,836.000
1227.291,835.000,869.000,834.000,849.000,840.000,839.000
1230.685,835.000,837.000,850.000,834.000,833.000,832.000
1234.076,827.000,848.000,820.000,846.000,826.000,828.000
1237.469,828.000,836.000,840.000,851.000,841.000,833.000
1240.858,835.000,843.000,821.000,814.000,817.000,813.000
1244.246,822.000,842.000,826.000,834.000,831.000,815.000
1247.634,837.000,823.000,799.000,815.000,825.000,825.000
1251.020,811.000,822.000,823.000,824.000,803.000,799.000
1254.405,836.000,820.000,824.000,806.000,820.000,792.000
1257.787,822.000,801.000,812.000,806.000,805.000,811.000
1261.170,809.000,814.000,793.000,817.000,819.000,811.000
1264.549,803.000,807.000,800.000,812.000,801.000,794.000
1267.929,828.000,811.000,810.000,784.000,802.000,805.000
1271.308,810.000,810.000,803.000,797.000,802.000,803.000
1274.683,818.000,801.000,796.000,819.000,812.000,809.000
1278.060,819.000,820.000,788.000,807.000,805.000,791.000
1281.433,798.000,821.000,802.000,811.000,792.000,798.000
1284.807,814.000,822.000,807.000,806.000,800.000,817.000
1288.177,809.000,810.000,791.000,805.000,806.000,810.000
1291.548,819.000,808.000,798.000,815.000,823.000,808.000
1294.916,827.000,810.000,807.000,807.000,806.000,803.000
1298.284,813.000,818.000,815.000,805.000,798.000,807.000
1301.652,825.000,805.000,803.000,811.000,802.000,804.000
1305.015,805.000,825.000,812.000,807.000,819.000,807.000
1308.380,816.000,812.000,818.000,817.000,833.000,822.000
1311.742,826.000,841.000,815.000,816.000,836.000,820.000
1315.104,842.000,836.000,852.000,839.000,828.000,842.000
1318.462,858.000,882.000,875.000,884.000,867.000,882.000
1321.822,1011.000,1024.000,1006.000,1011.000,1025.000,1001.000
1325.180,1892.000,1915.000,1913.000,1890.000,1904.000,1920.000
1328.535,4453.000,4428.000,4495.000,4473.000,4404.000,4482.000
1331.891,1503.000,1494.000,1504.000,1530.000,1520.000,1524.000
1335.243,938.000,958.000,934.000,948.000,941.000,946.000
1338.595,858.000,872.000,854.000,867.000,857.000,855.000
1341.946,807.000,830.000,840.000,821.000,823.000,831.000
1345.296,821.000,813.000,830.000,785.000,798.000,792.000
1348.643,811.000,799.000,810.000,804.000,811.000,804.000
1351.991,798.000,808.000,805.000,804.000,804.000,824.000
1355.337,789.000,798.000,801.000,794.000,791.000,811.000
1358.680,809.000,807.000,803.000,794.000,802.000,813.000
1362.025,817.000,808.000,807.000,804.000,787.000,792.000
1365.366,798.000,805.000,802.000,798.000,796.000,790.000
1368.707,800.000,792.000,792.000,823.000,806.000,796.000
1372.045,803.000,803.000,803.000,806.000,795.000,803.000
1375.384,819.000,821.000,806.000,809.000,821.000,807.000
1378.720,793.000,815.000,818.000,803.000,795.000,791.000
1382.057,809.000,789.000,794.000,795.000,799.000,791.000
1385.391,790.000,803.000,802.000,806.000,798.000,811.000
1388.723,805.000,815.000,801.000,809.000,796.000,800.000
1392.056,817.000,807.000,803.000,803.000,800.000,809.000
1395.385,799.000,811.000,809.000,804.000,791.000,783.000
1398.714,823.000,811.000,813.000,810.000,794.000,798.000
1402.042,805.000,794.000,812.000,801.000,803.000,802.000
1405.369,805.000,807.000,823.000,821.000,804.000,804.000
1408.692,810.000,820.000,792.000,796.000,804.000,805.000
1412.017,811.000,820.000,799.000,797.000,799.000,800.000
1415.341,806.000,806.000,808.000,799.000,795.000,793.000
1418.662,807.000,812.000,819.000,800.000,806.000,809.000
1421.982,798.000,805.000,805.000,808.000,791.000,805.000
1425.300,794.000,797.000,797.000,813.000,800.000,801.000
1428.619,803.000,813.000,808.000,803.000,790.000,803.000
1431.935,810.000,816.000,801.000,817.000,793.000,810.000
1435.250,809.000,796.000,815.000,808.000,799.000,808.000
1438.563,806.000,791.000,806.000,790.000,803.000,815.000
1441.877,802.000,799.000,816.000,815.000,794.000,797.000
1445.189,810.000,804.000,800.000,820.000,807.000,787.000
1448.497,812.000,819.000,810.000,818.000,812.000,799.000
1451.807,817.000,794.000,806.000,809.000,796.000,810.000
1455.114,807.000,821.000,803.000,806.000,813.000,807.000
1458.420,805.000,807.000,812.000,790.000,816.000,793.000
1461.725,816.000,811.000,815.000,818.000,805.000,801.000
1465.029,822.000,807.000,808.000,806.000,795.000,804.000
1468.331,811.000,812.000,809.000,802.000,789.000,811.000
1471.632,797.000,801.000,813.000,794.000,813.000,811.000
1474.934,799.000,815.000,807.000,806.000,804.000,804.000
1478.232,801.000,818.000,817.000,811.000,794.000,795.000
1481.530,808.000,810.000,797.000,816.000,816.000,806.000
1484.825,800.000,811.000,808.000,807.000,795.000,797.000
1488.120,811.000,810.000,805.000,805.000,795.000,804.000
1491.414,802.000,808.000,806.000,795.000,823.000,812.000
1494.707,799.000,800.000,816.000,815.000,804.000,808.000
1497.997,813.000,798.000,798.000,806.000,814.000,798.000
1501.287,809.000,811.000,816.000,797.000,808.000,804.000
1504.577,802.000,810.000,828.000,798.000,803.000,796.000
1507.863,803.000,804.000,799.000,794.000,802.000,787.000
1511.151,807.000,806.000,796.000,800.000,815.000,797.000
1514.435,811.000,799.000,813.000,796.000,808.000,804.000
1517.719,809.000,802.000,814.000,817.000,811.000,795.000
1521.001,798.000,820.000,808.000,800.000,796.000,802.000
1524.282,809.000,787.000,789.000,790.000,813.000,814.000
1527.561,819.000,808.000,803.000,812.000,807.000,801.000
1530.840,795.000,824.000,805.000,817.000,803.000,803.000
1534.118,806.000,822.000,802.000,811.000,803.000,806.000
1537.394,813.000,821.000,815.000,808.000,824.000,807.000
1540.670,804.000,809.000,813.000,821.000,807.000,803.000
1543.943,828.000,802.000,821.000,808.000,808.000,808.000
1547.216,822.000,815.000,792.000,794.000,806.000,798.000
1550.486,807.000,815.000,810.000,808.000,817.000,806.000
1553.756,808.000,821.000,806.000,814.000,810.000,810.000
1557.027,809.000,804.000,808.000,808.000,807.000,809.000
1560.293,800.000,801.000,824.000,804.000,815.000,813.000
1563.560,823.000,815.000,810.000,807.000,810.000,814.000
1566.824,814.000,816.000,805.000,805.000,807.000,816.000
1570.088,827.000,812.000,798.000,809.000,815.000,824.000
1573.350,812.000,813.000,815.000,818.000,826.000,812.000
1576.612,821.000,815.000,812.000,817.000,819.000,820.000
1579.872,835.000,813.000,836.000,813.000,825.000,817.000
1583.131,827.000,819.000,824.000,817.000,816.000,809.000
1586.390,816.000,810.000,823.000,819.000,832.000,808.000
1589.645,812.000,823.000,812.000,838.000,811.000,820.000
1592.901,831.000,827.000,807.000,839.000,818.000,825.000
1596.154,842.000,825.000,826.000,831.000,833.000,820.000
1599.408,839.000,825.000,842.000,840.000,838.000,841.000
1602.658,841.000,830.000,826.000,838.000,822.000,832.000
1605.909,843.000,832.000,823.000,824.000,828.000,831.000
1609.158,842.000,829.000,832.000,839.000,839.000,832.000
1612.405,852.000,827.000,839.000,847.000,829.000,820.000
1615.653,836.000,836.000,821.000,835.000,844.000,855.000
1618.898,837.000,828.000,847.000,813.000,825.000,818.000
1622.142,821.000,831.000,844.000,818.000,837.000,841.000
1625.384,831.000,838.000,835.000,826.000,832.000,825.000
1628.627,848.000,838.000,836.000,843.000,832.000,846.000
1631.866,811.000,825.000,825.000,825.000,827.000,801.000
1635.106,812.000,821.000,840.000,834.000,832.000,813.000
1638.345,859.000,831.000,841.000,819.000,821.000,823.000
1641.580,828.000,836.000,832.000,821.000,848.000,829.000
1644.816,831.000,834.000,833.000,824.000,833.000,820.000
1648.050,819.000,818.000,825.000,827.000,810.000,822.000
1651.285,826.000,834.000,820.000,816.000,831.000,810.000
1654.515,813.000,822.000,827.000,822.000,822.000,805.000
1657.747,819.000,808.000,826.000,808.000,812.000,804.000
1660.975,832.000,811.000,823.000,814.000,817.000,826.000
1664.204,817.000,819.000,837.000,814.000,815.000,817.000
1667.431,804.000,810.000,818.000,806.000,832.000,808.000
1670.656,819.000,831.000,810.000,817.000,814.000,802.000
1673.882,814.000,830.000,824.000,831.000,811.000,804.000
1677.104,818.000,815.000,805.000,809.000,823.000,817.000
1680.328,811.000,832.000,815.000,801.000,807.000,822.000
1683.548,816.000,818.000,833.000,814.000,797.000,805.000
1686.768,807.000,803.000,811.000,811.000,812.000,805.000
1689.986,828.000,805.000,812.000,811.000,812.000,811.000
1693.203,804.000,810.000,796.000,799.000,804.000,807.000
1696.420,804.000,809.000,803.000,818.000,821.000,800.000
1699.634,818.000,802.000,810.000,800.000,793.000,819.000
1702.848,809.000,799.000,821.000,803.000,796.000,795.000
1706.060,814.000,800.000,809.000,796.000,818.000,802.000
1709.272,801.000,798.000,815.000,810.000,789.000,800.000
1712.482,805.000,804.000,809.000,799.000,798.000,802.000
1715.691,795.000,818.000,803.000,803.000,807.000,801.000
1718.897,819.000,814.000,800.000,801.000,800.000,792.000
1722.105,809.000,818.000,793.000,789.000,805.000,795.000
1725.311,805.000,803.000,801.000,790.000,786.000,794.000
1728.514,804.000,813.000,807.000,802.000,808.000,811.000
1731.718,793.000,814.000,801.000,811.000,816.000,799.000
1734.918,794.000,801.000,805.000,815.000,787.000,789.000
1738.120,799.000,815.000,816.000,799.000,818.000,787.000
1741.318,813.000,816.000,809.000,803.000,794.000,795.000
1744.517,808.000,798.000,801.000,811.000,797.000,795.000
1747.712,804.000,800.000,808.000,802.000,806.000,787.000
1750.909,807.000,828.000,796.000,807.000,797.000,791.000
1754.104,805.000,791.000,804.000,814.000,798.000,795.000
1757.297,798.000,811.000,793.000,802.000,795.000,796.000
1760.489,797.000,810.000,802.000,807.000,804.000,797.000
1763.679,814.000,806.000,794.000,802.000,819.000,796.000
1766.870,827.000,798.000,824.000,807.000,810.000,803.000
1770.057,804.000,825.000,799.000,806.000,788.000,789.000
1773.245,803.000,801.000,803.000,813.000,799.000,809.000
1776.430,795.000,830.000,807.000,800.000,814.000,801.000
1779.616,809.000,822.000,796.000,804.000,800.000,799.000
1782.800,806.000,794.000,794.000,812.000,807.000,799.000
1785.982,820.000,806.000,813.000,814.000,819.000,807.000
1789.164,800.000,808.000,819.000,794.000,788.000,810.000
1792.343,795.000,823.000,807.000,802.000,805.000,819.000
1795.523,820.000,816.000,798.000,808.000,802.000,798.000
1798.700,801.000,819.000,817.000,795.000,800.000,818.000
1801.877,806.000,814.000,811.000,822.000,824.000,811.000
1805.052,803.000,801.000,814.000,798.000,809.000,812.000
1808.226,822.000,815.000,825.000,819.000,811.000,821.000
1811.400,820.000,835.000,817.000,808.000,808.000,810.000
1814.571,814.000,822.000,831.000,820.000,817.000,829.000
1816.157,828.000,829.000,824.000,822.000,817.000,819.000