File: Raman/Silica/2025_09_09_CCl4_Square_Tube_Top_Glass_50X_532nm_12mW_Kymera328_600gv_2000wn_3accum_10sec_UnPol.csv
19.981,11617.000,11587.000,11741.000
24.290,10733.000,10798.000,10779.000
28.597,9735.000,9675.000,9655.000
32.903,9359.000,9255.000,9341.000
37.206,8963.000,8831.000,8912.000
41.507,8515.000,8435.000,8350.000
45.808,8028.000,7895.000,7908.000
50.102,7470.000,7544.000,7456.000
54.398,6729.000,6741.000,6754.000
58.691,6343.000,6319.000,6311.000
62.984,6205.000,6180.000,6114.000
67.274,5991.000,5981.000,5913.000
71.561,5737.000,5738.000,5733.000
75.846,5630.000,5620.000,5587.000
80.131,5474.000,5438.000,5452.000
84.412,5399.000,5326.000,5384.000
88.692,5307.000,5299.000,5283.000
92.970,5177.000,5164.000,5226.000
97.246,5122.000,5175.000,5092.000
101.520,5083.000,5050.000,5005.000
105.792,4970.000,5040.000,5049.000
110.060,4937.000,4947.000,4955.000
114.328,4896.000,4915.000,4851.000
118.594,4859.000,4861.000,4820.000
122.858,4837.000,4821.000,4845.000
127.120,4861.000,4777.000,4762.000
131.381,4725.000,4718.000,4769.000
135.640,4680.000,4687.000,4719.000
139.896,4695.000,4686.000,4641.000
144.151,4617.000,4614.000,4655.000
148.402,4592.000,4587.000,4634.000
152.654,4595.000,4565.000,4581.000
156.902,4554.000,4551.000,4563.000
161.149,4520.000,4501.000,4582.000
165.394,4508.000,4519.000,4491.000
169.634,4497.000,4479.000,4507.000
173.875,4463.000,4488.000,4499.000
178.115,4441.000,4485.000,4470.000
182.351,4488.000,4487.000,4472.000
186.587,4511.000,4468.000,4521.000
190.821,4558.000,4534.000,4531.000
195.051,4623.000,4622.000,4586.000
199.280,4678.000,4667.000,4645.000
203.509,4708.000,4706.000,4671.000
207.733,4720.000,4669.000,4742.000
211.958,4851.000,4798.000,4824.000
216.179,4897.000,4960.000,4907.000
220.399,5089.000,5029.000,5115.000
224.615,5106.000,5177.000,5082.000
228.831,5187.000,5183.000,5146.000
233.044,5190.000,5216.000,5177.000
237.257,5264.000,5189.000,5181.000
241.467,5200.000,5171.000,5099.000
245.675,5037.000,5085.000,5034.000
249.882,4930.000,4902.000,4815.000
254.086,4731.000,4734.000,4753.000
258.289,4743.000,4718.000,4686.000
262.489,4651.000,4676.000,4602.000
266.688,4627.000,4579.000,4611.000
270.885,4606.000,4629.000,4563.000
275.081,4647.000,4622.000,4594.000
279.274,4650.000,4685.000,4651.000
283.463,4738.000,4740.000,4733.000
287.652,4820.000,4809.000,4841.000
291.839,4871.000,4918.000,4871.000
296.025,4929.000,4959.000,4975.000
300.208,5028.000,4980.000,5049.000
304.391,5137.000,5144.000,5068.000
308.570,5227.000,5211.000,5220.000
312.748,5412.000,5404.000,5403.000
316.924,5565.000,5538.000,5504.000
321.099,5559.000,5617.000,5587.000
325.271,5629.000,5738.000,5648.000
329.441,5764.000,5742.000,5684.000
333.610,5653.000,5690.000,5671.000
337.774,5554.000,5550.000,5551.000
341.938,5436.000,5417.000,5403.000
346.101,5253.000,5318.000,5237.000
350.263,5122.000,5093.000,5120.000
354.421,5113.000,5042.000,5078.000
358.579,5043.000,5033.000,5060.000
362.735,5048.000,5016.000,4970.000
366.888,5043.000,5070.000,5027.000
371.040,5073.000,5053.000,5049.000
375.189,5148.000,5090.000,5062.000
379.337,5083.000,5080.000,5104.000
383.483,5109.000,5087.000,5090.000
387.628,5168.000,5104.000,5081.000
391.770,5077.000,5166.000,5136.000
395.908,5153.000,5162.000,5228.000
400.047,5232.000,5163.000,5187.000
404.183,5261.000,5231.000,5253.000
408.318,5282.000,5269.000,5263.000
412.451,5324.000,5326.000,5345.000
416.582,5331.000,5338.000,5408.000
420.712,5380.000,5417.000,5408.000
424.839,5417.000,5412.000,5421.000
428.964,5596.000,5624.000,5619.000
433.088,5788.000,5768.000,5761.000
437.210,5967.000,5918.000,5895.000
441.330,6006.000,5991.000,6028.000
445.448,6198.000,6179.000,6119.000
449.564,6297.000,6381.000,6261.000
453.677,6564.000,6568.000,6468.000
457.790,6897.000,6818.000,6815.000
461.901,7032.000,7087.000,7025.000
466.009,7079.000,7073.000,7095.000
470.116,7081.000,7052.000,7136.000
474.222,7201.000,7183.000,7087.000
478.324,7007.000,6932.000,6930.000
482.427,6652.000,6668.000,6602.000
486.526,6366.000,6422.000,6321.000
490.624,6066.000,6059.000,6076.000
494.720,5748.000,5725.000,5721.000
498.815,5523.000,5488.000,5433.000
502.907,5349.000,5325.000,5329.000
506.995,5245.000,5220.000,5178.000
511.084,5122.000,5040.000,5103.000
515.171,4981.000,4934.000,4904.000
519.256,4842.000,4786.000,4822.000
523.340,4792.000,4707.000,4664.000
527.421,4623.000,4587.000,4604.000
531.501,4458.000,4490.000,4448.000
535.579,4440.000,4410.000,4450.000
539.654,4310.000,4324.000,4342.000
543.729,4228.000,4278.000,4239.000
547.801,4237.000,4162.000,4237.000
551.871,4173.000,4169.000,4163.000
555.940,4138.000,4107.000,4066.000
560.007,4083.000,4060.000,4067.000
564.070,4077.000,4039.000,3997.000
568.133,3990.000,4013.000,3976.000
572.195,4017.000,3981.000,3978.000
576.254,3973.000,3990.000,3954.000
580.312,3942.000,3948.000,3952.000
584.368,3948.000,3909.000,3908.000
588.423,3926.000,3894.000,3907.000
592.476,3913.000,3878.000,3913.000
596.526,3871.000,3854.000,3853.000
600.575,3900.000,3880.000,3837.000
604.621,3858.000,3858.000,3828.000
608.667,3854.000,3844.000,3840.000
612.711,3831.000,3877.000,3835.000
616.752,3841.000,3832.000,3798.000
620.790,3854.000,3791.000,3787.000
624.827,3809.000,3783.000,3783.000
628.865,3758.000,3816.000,3783.000
632.898,3789.000,3772.000,3740.000
636.931,3737.000,3733.000,3754.000
640.962,3755.000,3744.000,3734.000
644.992,3735.000,3754.000,3737.000
649.018,3722.000,3741.000,3730.000
653.044,3734.000,3713.000,3709.000
657.067,3729.000,3711.000,3704.000
661.090,3716.000,3715.000,3676.000
665.109,3748.000,3667.000,3695.000
669.128,3735.000,3711.000,3714.000
673.143,3693.000,3684.000,3690.000
677.157,3722.000,3712.000,3683.000
681.171,3704.000,3682.000,3671.000
685.182,3675.000,3685.000,3687.000
689.191,3679.000,3706.000,3674.000
693.199,3718.000,3731.000,3705.000
697.205,3754.000,3685.000,3694.000
701.210,3702.000,3710.000,3710.000
705.212,3707.000,3740.000,3685.000
709.212,3735.000,3713.000,3687.000
713.211,3745.000,3716.000,3716.000
717.209,3748.000,3692.000,3695.000
721.203,3729.000,3707.000,3727.000
725.197,3737.000,3725.000,3725.000
729.187,3734.000,3731.000,3726.000
733.177,3771.000,3760.000,3735.000
737.165,3822.000,3813.000,3766.000
741.152,3841.000,3871.000,3787.000
745.137,3843.000,3824.000,3826.000
749.119,3891.000,3854.000,3899.000
753.101,3942.000,3930.000,3913.000
757.080,4000.000,3966.000,3985.000
761.058,4031.000,4064.000,4029.000
765.033,4067.000,4062.000,4035.000
769.008,4181.000,4081.000,4096.000
772.981,4156.000,4190.000,4111.000
776.951,4169.000,4132.000,4190.000
780.920,4160.000,4145.000,4142.000
784.886,4172.000,4140.000,4156.000
788.851,4166.000,4192.000,4122.000
792.815,4156.000,4143.000,4167.000
796.776,4177.000,4168.000,4144.000
800.737,4192.000,4171.000,4089.000
804.695,4126.000,4157.000,4132.000
808.652,4116.000,4086.000,4109.000
812.606,4051.000,4032.000,4045.000
816.560,4031.000,4014.000,4005.000
820.512,3997.000,3934.000,3924.000
824.462,3901.000,3908.000,3911.000
828.410,3881.000,3864.000,3802.000
832.356,3851.000,3798.000,3785.000
836.298,3736.000,3783.000,3755.000
840.241,3720.000,3710.000,3721.000
844.183,3729.000,3691.000,3664.000
848.122,3694.000,3654.000,3658.000
852.060,3640.000,3650.000,3617.000
855.996,3613.000,3653.000,3586.000
859.930,3577.000,3596.000,3608.000
863.863,3604.000,3580.000,3569.000
867.793,3565.000,3537.000,3595.000
871.722,3555.000,3542.000,3530.000
875.650,3545.000,3550.000,3549.000
879.575,3534.000,3570.000,3531.000
883.499,3547.000,3541.000,3538.000
887.421,3572.000,3560.000,3531.000
891.339,3568.000,3551.000,3519.000
895.259,3575.000,3515.000,3568.000
899.175,3555.000,3571.000,5432.000
903.090,3585.000,3558.000,4221.000
907.004,3587.000,3560.000,3558.000
910.916,3592.000,3619.000,3538.000
914.826,3602.000,3566.000,3591.000
918.735,3584.000,3606.000,3586.000
922.642,3605.000,3591.000,3589.000
926.547,3650.000,3600.000,3581.000
930.450,3630.000,3587.000,3602.000
934.351,3625.000,3597.000,3644.000
938.251,3606.000,3619.000,3622.000
942.150,3595.000,3603.000,3609.000
946.044,3652.000,3611.000,3599.000
949.939,3614.000,3593.000,3581.000
953.832,3599.000,3592.000,3587.000
957.724,3610.000,3599.000,3578.000
961.613,3634.000,3596.000,3556.000
965.502,3565.000,3584.000,3563.000
969.388,3606.000,3553.000,3568.000
973.272,3573.000,3548.000,3563.000
977.156,3540.000,3553.000,3547.000
981.037,3577.000,3544.000,3526.000
984.916,3561.000,3544.000,3567.000
988.794,3572.000,3582.000,3563.000
992.671,3595.000,3564.000,3541.000
996.543,3570.000,3564.000,3574.000
1000.416,3552.000,3573.000,3544.000
1004.287,3558.000,3582.000,3579.000
1008.156,3559.000,3569.000,3555.000
1012.025,3559.000,3558.000,3571.000
1015.891,3600.000,3575.000,3565.000
1019.755,3621.000,3587.000,3587.000
1023.617,3608.000,3621.000,3575.000
1027.479,3592.000,3611.000,3584.000
1031.338,3631.000,3615.000,3627.000
1035.196,3662.000,3605.000,3605.000
1039.052,3628.000,3638.000,3623.000
1042.906,3649.000,3627.000,3630.000
1046.757,3678.000,3668.000,3626.000
1050.608,3654.000,3679.000,3645.000
1054.457,3679.000,3673.000,3657.000
1058.304,3676.000,3646.000,3673.000
1062.151,3679.000,3695.000,3668.000
1065.995,3718.000,3672.000,3693.000
1069.838,3713.000,3735.000,3690.000
1073.679,3695.000,3685.000,3669.000
1077.519,3712.000,3674.000,3647.000
1081.356,3699.000,3672.000,3693.000
1085.192,3685.000,3677.000,3692.000
1089.026,3705.000,3673.000,3680.000
1092.859,3707.000,3715.000,3669.000
1096.690,3688.000,3683.000,3707.000
1100.519,3707.000,3671.000,3653.000
1104.346,3719.000,3676.000,3646.000
1108.171,3672.000,3686.000,3693.000
1111.995,3706.000,3662.000,3646.000
1115.818,3658.000,3667.000,3628.000
1119.639,3657.000,3692.000,3645.000
1123.459,3711.000,3686.000,3659.000
1127.277,3691.000,3668.000,3671.000
1131.093,3699.000,3701.000,3659.000
1134.908,3711.000,3670.000,3665.000
1138.721,3673.000,3666.000,3681.000
1142.532,3688.000,3699.000,3663.000
1146.341,3699.000,3674.000,3680.000
1150.149,3692.000,3681.000,3646.000
1153.954,3682.000,3692.000,3657.000
1157.758,3695.000,3693.000,3719.000
1161.561,3683.000,3687.000,3674.000
1165.362,3671.000,3687.000,3645.000
1169.162,3708.000,3676.000,3672.000
1172.961,3697.000,3682.000,3660.000
1176.757,3686.000,3662.000,3673.000
1180.551,3687.000,3680.000,3684.000
1184.345,3666.000,3659.000,3662.000
1188.137,3682.000,3689.000,3656.000
1191.926,3673.000,3654.000,3671.000
1195.714,3668.000,3687.000,3662.000
1199.501,3693.000,3660.000,3641.000
1203.285,3699.000,3686.000,3624.000
1207.068,3699.000,3674.000,3653.000
1210.849,3650.000,3621.000,3661.000
1214.629,3671.000,3659.000,3626.000
1218.408,3666.000,3623.000,3618.000
1222.185,3629.000,3609.000,3611.000
1225.960,3634.000,3630.000,3628.000
1229.734,3646.000,3628.000,3615.000
1233.506,3613.000,3598.000,3596.000
1237.277,3607.000,3623.000,3592.000
1241.045,3614.000,3573.000,3597.000
1244.812,3602.000,3583.000,3576.000
1248.578,3612.000,3593.000,3586.000
1252.342,3601.000,3587.000,3563.000
1256.105,3584.000,3587.000,3559.000
1259.864,3584.000,3573.000,3591.000
1263.623,3579.000,3553.000,3514.000
1267.379,3555.000,3564.000,3560.000
1271.136,3574.000,3571.000,3560.000
1274.889,3578.000,3553.000,3540.000
1278.643,3550.000,3571.000,3573.000
1282.393,3569.000,3544.000,3538.000
1286.143,3556.000,3538.000,3539.000
1289.891,3574.000,3535.000,3540.000
1293.637,3586.000,3552.000,3555.000
1297.382,3581.000,3542.000,3531.000
1301.125,3588.000,3573.000,3528.000
1304.866,3564.000,3576.000,3545.000
1308.604,3585.000,3562.000,3538.000
1312.342,3592.000,3560.000,3550.000
1316.079,3602.000,3563.000,3541.000
1319.814,3566.000,3568.000,3566.000
1323.547,3589.000,3560.000,3572.000
1327.280,3587.000,3552.000,3578.000
1331.010,3602.000,3563.000,3542.000
1334.738,3581.000,3572.000,3532.000
1338.466,3587.000,3581.000,3538.000
1342.191,3576.000,3581.000,3564.000
1345.915,3591.000,3588.000,3574.000
1349.637,3599.000,3585.000,3566.000
1353.358,3601.000,3588.000,3545.000
1357.075,3576.000,3597.000,3607.000
1360.793,3617.000,3587.000,3596.000
1364.509,3607.000,3590.000,3580.000
1368.223,3623.000,3598.000,3582.000
1371.935,3602.000,3625.000,3583.000
1375.647,3626.000,3601.000,3602.000
1379.357,3605.000,3607.000,3603.000
1383.065,3660.000,3624.000,3603.000
1386.771,3610.000,3643.000,3598.000
1390.476,3651.000,3620.000,3626.000
1394.180,3624.000,3629.000,3628.000
1397.881,3650.000,3615.000,3613.000
1401.582,3635.000,3604.000,3605.000
1405.280,3631.000,3624.000,3606.000
1408.978,3619.000,3637.000,3630.000
1412.670,3654.000,3628.000,3614.000
1416.364,3638.000,3613.000,3634.000
1420.057,3664.000,3620.000,3637.000
1423.747,3677.000,3635.000,3627.000
1427.436,3656.000,3639.000,3653.000
1431.125,3674.000,3635.000,3638.000
1434.810,3665.000,3668.000,3661.000
1438.495,3677.000,3652.000,3633.000
1442.178,3656.000,3675.000,3635.000
1445.859,3691.000,3667.000,3632.000
1449.539,3668.000,3643.000,3618.000
1453.218,3675.000,3646.000,3644.000
1456.894,3683.000,3670.000,3655.000
1460.567,3686.000,3653.000,3634.000
1464.241,3692.000,3653.000,3636.000
1467.913,3690.000,3677.000,3652.000
1471.583,3675.000,3665.000,3662.000
1475.253,3691.000,3670.000,3683.000
1478.920,3712.000,3654.000,3658.000
1482.586,3694.000,3679.000,3647.000
1486.249,3703.000,3655.000,3665.000
1489.912,3716.000,3657.000,3659.000
1493.573,3677.000,3673.000,3664.000
1497.233,3704.000,3707.000,3682.000
1500.891,3699.000,3701.000,3671.000
1504.548,3739.000,3693.000,3656.000
1508.201,3710.000,3670.000,3667.000
1511.854,3753.000,3732.000,3716.000
1515.506,3718.000,3695.000,3676.000
1519.157,3725.000,3713.000,3674.000
1522.805,3725.000,3725.000,3699.000
1526.452,3710.000,3705.000,3707.000
1530.098,3734.000,3725.000,3689.000
1533.742,3721.000,3688.000,3711.000
1537.385,3740.000,3731.000,3725.000
1541.026,3726.000,3703.000,3694.000
1544.666,3720.000,3726.000,3717.000
1548.304,3722.000,3718.000,3673.000
1551.940,3711.000,3707.000,3661.000
1555.575,3698.000,3723.000,3679.000
1559.207,3691.000,3703.000,3669.000
1562.839,3732.000,3663.000,3696.000
1566.469,3727.000,3725.000,3686.000
1570.098,3722.000,3707.000,3692.000
1573.725,3679.000,3666.000,3649.000
1577.350,3675.000,3696.000,3659.000
1580.975,3689.000,3669.000,3651.000
1584.598,3672.000,3657.000,3675.000
1588.219,3678.000,3689.000,3654.000
1591.838,3695.000,3667.000,3632.000
1595.456,3697.000,3652.000,3670.000
1599.073,3688.000,3672.000,3682.000
1602.688,3678.000,3651.000,3678.000
1606.302,3695.000,3662.000,3654.000
1609.913,3684.000,3690.000,3640.000
1613.523,3660.000,3658.000,3675.000
1617.132,3676.000,3645.000,3694.000
1620.739,3705.000,3672.000,3687.000
1624.346,3723.000,3660.000,3690.000
1627.950,3708.000,3672.000,3668.000
1631.553,3681.000,3656.000,3671.000
1635.154,3693.000,3650.000,3678.000
1638.755,3699.000,3661.000,3640.000
1642.353,3672.000,3660.000,3661.000
1645.950,3660.000,3690.000,3622.000
1649.545,3675.000,3673.000,3657.000
1653.139,3685.000,3662.000,3619.000
1656.729,3672.000,3678.000,3651.000
1660.321,3670.000,3675.000,3642.000
1663.910,3641.000,3653.000,3658.000
1667.498,3685.000,3662.000,3632.000
1671.084,3647.000,3648.000,3652.000
1674.669,3691.000,3665.000,3655.000
1678.253,3686.000,3669.000,3636.000
1681.834,3665.000,3669.000,3631.000
1685.415,3702.000,3697.000,3653.000
1688.994,3681.000,3664.000,3653.000
1692.571,3667.000,3679.000,3656.000
1696.147,3688.000,3683.000,3634.000
1699.721,3683.000,3648.000,3684.000
1703.293,3669.000,3669.000,3651.000
1706.865,3653.000,3635.000,3651.000
1710.434,3699.000,3639.000,3661.000
1714.002,3685.000,3664.000,3665.000
1717.569,3694.000,3662.000,3635.000
1721.135,3696.000,3677.000,3629.000
1724.700,3676.000,3659.000,3682.000
1728.262,3679.000,3661.000,3659.000
1731.823,3703.000,3684.000,3681.000
1735.382,3714.000,3707.000,3674.000
1738.941,3725.000,3693.000,3624.000
1742.497,3677.000,3659.000,3673.000
1746.051,3681.000,3691.000,3660.000
1749.605,3730.000,3680.000,3677.000
1753.157,3696.000,3696.000,3665.000
1756.707,3712.000,3687.000,3684.000
1760.255,3694.000,3682.000,3676.000
1763.803,3701.000,3683.000,3651.000
1767.349,3727.000,3699.000,3668.000
1770.894,3708.000,3678.000,3704.000
1774.437,3669.000,3707.000,3656.000
1777.979,3712.000,3698.000,3655.000
1781.519,3682.000,3693.000,3665.000
1785.059,3714.000,3686.000,3652.000
1788.595,3671.000,3715.000,3669.000
1792.132,3713.000,3701.000,3669.000
1795.666,3709.000,3695.000,3673.000
1799.198,3701.000,3679.000,3636.000
1802.728,3724.000,3669.000,3641.000
1806.259,3685.000,3710.000,3663.000
1809.787,3717.000,3665.000,3678.000
1813.314,3728.000,3672.000,3686.000
1816.840,3739.000,3707.000,3683.000
1820.364,3715.000,3692.000,3698.000
1823.887,3726.000,3685.000,3670.000
1827.408,3733.000,3706.000,3707.000
1830.927,3739.000,3674.000,3708.000
1834.445,3755.000,3682.000,3663.000
1837.962,3725.000,3706.000,3691.000
1841.478,3734.000,3680.000,3703.000
1844.991,3731.000,3678.000,3724.000
1848.503,3734.000,3722.000,3672.000
1852.014,3745.000,3746.000,3680.000
1855.524,3737.000,3695.000,3697.000
1859.031,3726.000,3716.000,3692.000
1862.538,3720.000,3699.000,3700.000
1866.043,3748.000,3751.000,3683.000
1869.547,3740.000,3715.000,3700.000
1873.050,3731.000,3706.000,3681.000
1876.550,3737.000,3756.000,3715.000
1880.050,3734.000,3712.000,3701.000
1883.547,3745.000,3721.000,3713.000
1887.044,3728.000,3725.000,3703.000
1890.539,3741.000,3701.000,3725.000
1894.033,3728.000,3727.000,3720.000
1897.525,3742.000,3735.000,3679.000
1901.014,3739.000,3749.000,3717.000
1904.503,3736.000,3736.000,3706.000
1907.991,3716.000,3756.000,3685.000
1911.477,3757.000,3728.000,3736.000
1914.963,3771.000,3730.000,3757.000
1918.446,3767.000,3733.000,3723.000
1921.928,3735.000,3729.000,3719.000
1925.409,3754.000,3739.000,3716.000
1928.888,3756.000,3740.000,3747.000
1932.366,3770.000,3729.000,3751.000
1935.842,3737.000,3735.000,3736.000
1939.317,3770.000,3748.000,3719.000
1942.791,3765.000,3752.000,3739.000
1946.261,3773.000,3752.000,3735.000
1949.731,3796.000,3723.000,3745.000
1953.201,3766.000,3726.000,3757.000
1956.669,3771.000,3778.000,3728.000
1960.134,3768.000,3734.000,3742.000
1963.600,3766.000,3753.000,3742.000
1967.063,3783.000,3714.000,3753.000
1970.526,3774.000,3742.000,3737.000
1973.985,3763.000,3747.000,3723.000
1977.445,3798.000,3768.000,3729.000
1980.903,3802.000,3739.000,3757.000
1984.359,3787.000,3759.000,3741.000
1987.814,3763.000,3767.000,3777.000
1991.266,3775.000,3761.000,3720.000
1994.718,3764.000,3776.000,3746.000
1998.170,3793.000,3743.000,3783.000
2001.618,3771.000,3759.000,3702.000
2005.066,3770.000,3742.000,3762.000
2008.513,3775.000,3748.000,3723.000
2011.958,3765.000,3745.000,3732.000
2015.401,3774.000,3754.000,3743.000
2018.844,3758.000,3763.000,3721.000
2022.284,3775.000,3793.000,3748.000
2025.724,3784.000,3743.000,3754.000
2029.162,3761.000,3760.000,3741.000
2032.598,3808.000,3744.000,3727.000
2036.031,3768.000,3772.000,3766.000
2039.467,3815.000,3770.000,3754.000
2042.898,3792.000,3749.000,3750.000
2046.328,3801.000,3783.000,3753.000
2049.758,3815.000,3785.000,3785.000
2053.186,3814.000,3797.000,3763.000
2056.614,3806.000,3805.000,3757.000
2060.038,3813.000,3791.000,3764.000
2063.462,3808.000,3782.000,3770.000
2066.885,3824.000,3813.000,3767.000
2070.306,3825.000,3779.000,3784.000
2073.725,3794.000,3790.000,3771.000
2077.145,3805.000,3806.000,3794.000
2080.561,3821.000,3791.000,3814.000
2083.977,3829.000,3814.000,3791.000
2087.389,3838.000,3832.000,3781.000
2090.802,3859.000,3799.000,3799.000
2094.213,3801.000,3850.000,3778.000
2097.623,3850.000,3810.000,3801.000
2101.032,3840.000,3815.000,3815.000
2104.439,3811.000,3846.000,3794.000
2107.844,3845.000,3844.000,3784.000
2111.250,3833.000,3803.000,3828.000
2114.652,3863.000,3816.000,3809.000
2118.054,3835.000,3798.000,3837.000
2121.455,3881.000,3814.000,3830.000
2124.853,3887.000,3848.000,3844.000
2128.251,3837.000,3841.000,3803.000
2131.644,3856.000,3842.000,3791.000
2135.039,3807.000,3844.000,3820.000
2138.433,3864.000,3831.000,3854.000
2141.825,3872.000,3856.000,3830.000
2145.215,3864.000,3868.000,3824.000
2148.605,3859.000,3824.000,3844.000
2151.993,3865.000,3850.000,3850.000
2155.379,3886.000,3861.000,3859.000
2158.763,3901.000,3859.000,3848.000
2162.148,3896.000,3876.000,3863.000
2165.529,3892.000,3849.000,3859.000
2168.910,3883.000,3854.000,3827.000
2172.290,3896.000,3862.000,3847.000
2175.667,3887.000,3887.000,3845.000
2179.045,3884.000,3845.000,3843.000
2182.419,3864.000,3872.000,3853.000
2185.793,3897.000,3843.000,3862.000
2189.165,3870.000,3867.000,3868.000
2192.537,3879.000,3861.000,3858.000
2195.907,3919.000,3867.000,3872.000
2199.275,3875.000,3871.000,3845.000
2202.643,3850.000,3871.000,3859.000
2206.008,3876.000,3890.000,3863.000
2209.373,3903.000,3887.000,3854.000
2212.736,3897.000,3873.000,3850.000
2216.098,3870.000,3867.000,3849.000
2219.458,3869.000,3889.000,3856.000
2222.817,3914.000,3880.000,3864.000
2226.174,3872.000,3847.000,3831.000
2229.530,3864.000,3870.000,3854.000
2232.884,3864.000,3895.000,3818.000
2236.238,3883.000,3855.000,3848.000
2239.591,3904.000,3901.000,3866.000
2242.941,3913.000,3863.000,3855.000
2246.290,3843.000,3858.000,3878.000
2249.638,3908.000,3858.000,3861.000
2252.985,3868.000,3877.000,3834.000
2256.331,3895.000,3878.000,3871.000
2259.674,3902.000,3889.000,3856.000
2263.018,3895.000,3863.000,3854.000
2266.359,3876.000,3877.000,3864.000
2269.698,3911.000,3848.000,3870.000
2273.037,3916.000,3894.000,3874.000
2276.373,3899.000,3887.000,3870.000
2279.710,3886.000,3882.000,3842.000
2283.044,3940.000,3898.000,3843.000
2286.378,3903.000,3873.000,3840.000
2289.710,3918.000,3868.000,3877.000
2293.040,3907.000,3855.000,3867.000
2296.370,3887.000,3897.000,3871.000
2299.697,3892.000,3920.000,3870.000
2303.024,3904.000,3892.000,3908.000
2306.349,3921.000,3898.000,3836.000
2309.673,3910.000,3914.000,3890.000
2312.994,3942.000,3936.000,3863.000
2316.316,3902.000,3898.000,3865.000
2319.635,3936.000,3905.000,3915.000
2322.953,3960.000,3916.000,3907.000
2326.271,3996.000,3951.000,3909.000
2329.587,3940.000,3929.000,3925.000
2332.901,3940.000,3931.000,3929.000
2336.214,3987.000,3942.000,3929.000
2339.526,4001.000,3963.000,3921.000
2342.837,3983.000,3947.000,3927.000
2346.147,3969.000,3935.000,3926.000
2349.454,3944.000,3929.000,3924.000
2352.760,3954.000,3955.000,3954.000
2356.065,3993.000,3965.000,3931.000
2359.370,3983.000,3954.000,3944.000
2362.671,3974.000,3987.000,3939.000
2365.972,3975.000,3974.000,3952.000
2369.271,3986.000,3949.000,3940.000
2372.571,4004.000,3977.000,3978.000
2375.867,3978.000,3998.000,4018.000
2379.163,3989.000,3985.000,3979.000
2382.458,3989.000,3992.000,3952.000
2385.751,4016.000,3984.000,4006.000
2389.043,4000.000,4005.000,4007.000
2392.334,4031.000,4049.000,3963.000
2395.623,4028.000,4021.000,3957.000
2398.912,4060.000,4001.000,3985.000
2402.198,4111.000,4011.000,3973.000
2405.482,4041.000,4020.000,4023.000
2408.766,4044.000,4081.000,4017.000
2412.048,4084.000,4058.000,4011.000
2415.330,4067.000,4099.000,4013.000
2418.610,4072.000,4055.000,4057.000
2421.889,4089.000,4087.000,4015.000
2425.167,4080.000,4070.000,4021.000
2428.443,4058.000,4064.000,4072.000
2431.718,4092.000,4030.000,4030.000
2434.991,4113.000,4031.000,4050.000
2438.264,4064.000,4051.000,4033.000
2441.534,4084.000,4091.000,4039.000
2444.804,4091.000,4089.000,4086.000
2448.071,4084.000,4052.000,4045.000
2451.339,4099.000,4044.000,4021.000
2454.604,4067.000,4071.000,4068.000
2457.868,4086.000,4090.000,4055.000
2461.131,4093.000,4111.000,4065.000
2464.393,4107.000,4083.000,4040.000
2467.653,4081.000,4044.000,4082.000
2470.912,4106.000,4096.000,4064.000
2474.171,4067.000,4094.000,4065.000
2477.427,4124.000,4123.000,4107.000
2480.682,4075.000,4069.000,4051.000
2483.936,4112.000,4126.000,4068.000
2487.190,4096.000,4090.000,4075.000
2490.440,4110.000,4066.000,4043.000
2493.690,4128.000,4075.000,4093.000
2496.938,4153.000,4093.000,4055.000
2500.185,4130.000,4124.000,4051.000
2503.432,4078.000,4079.000,4093.000
2506.676,4134.000,4095.000,4044.000
2509.920,4099.000,4112.000,4063.000
2513.163,4164.000,4092.000,4108.000
2516.404,4098.000,4090.000,4079.000
2519.644,4095.000,4102.000,4102.000
2522.881,4137.000,4087.000,4056.000
2526.119,4110.000,4091.000,4073.000
2529.355,4094.000,4087.000,4084.000
2532.589,4090.000,4107.000,4049.000
2535.823,4115.000,4077.000,4067.000
2539.054,4081.000,4071.000,4106.000
2542.284,4103.000,4111.000,4049.000
2545.514,4082.000,4067.000,4049.000
2548.742,4141.000,4092.000,4049.000
2551.969,4056.000,4077.000,4051.000
2555.195,4106.000,4105.000,4083.000
2558.418,4112.000,4091.000,4037.000
2561.642,4134.000,4105.000,4080.000
2564.863,4104.000,4096.000,4091.000
2568.084,4086.000,4097.000,4065.000
2571.303,4120.000,4102.000,4073.000
2574.521,4106.000,4114.000,4074.000
2577.737,4106.000,4088.000,4056.000
2580.952,4085.000,4103.000,4084.000
2584.167,4112.000,4068.000,4055.000
2587.379,4100.000,4058.000,4047.000
2590.591,4065.000,4088.000,4067.000
2593.800,4124.000,4101.000,4107.000
2597.010,4068.000,4082.000,4111.000
2600.217,4110.000,4111.000,4102.000
2603.424,4137.000,4058.000,4043.000
2606.629,4118.000,4123.000,4051.000
2609.833,4101.000,4097.000,4099.000
2613.036,4080.000,4056.000,4075.000
2616.237,4115.000,4051.000,4056.000
2619.437,4112.000,4080.000,4081.000
2622.636,4106.000,4052.000,4047.000
2625.834,4098.000,4078.000,4061.000
2629.029,4086.000,4056.000,4052.000
2632.224,4115.000,4109.000,4051.000
2635.418,4109.000,4079.000,4053.000
2638.610,4076.000,4061.000,4058.000
2641.802,4065.000,4047.000,4018.000
2644.992,4075.000,4063.000,4037.000
2648.180,4097.000,4060.000,4055.000
2651.368,4069.000,4086.000,4052.000
2654.554,4100.000,4082.000,4027.000
2657.739,4136.000,4078.000,4048.000
2660.923,4107.000,4092.000,4052.000
2664.106,4101.000,4062.000,4071.000
2667.286,4064.000,4064.000,4026.000
2670.466,4058.000,4074.000,4028.000
2673.644,4068.000,4027.000,4056.000
2676.822,4083.000,4048.000,4050.000
2679.998,4084.000,4043.000,4049.000
2683.172,4078.000,4045.000,4021.000
2686.347,4115.000,4083.000,4041.000
2689.519,4101.000,4091.000,4024.000
2692.691,4068.000,4074.000,4016.000
2695.861,4052.000,4044.000,4025.000
2699.029,4054.000,4042.000,4027.000
2702.197,4083.000,4043.000,4022.000
2705.362,4051.000,4015.000,4035.000
2708.528,4058.000,4073.000,4014.000
2711.690,4068.000,4048.000,4015.000
2714.854,4031.000,4022.000,4046.000
2718.014,4043.000,4016.000,4036.000
2721.174,4048.000,4041.000,4013.000
2724.332,4037.000,4002.000,4034.000
2727.491,4020.000,4003.000,3997.000
2730.647,4027.000,4028.000,3968.000
2733.801,4008.000,4000.000,4029.000
2736.955,4027.000,4022.000,4003.000
2740.108,4012.000,4020.000,4017.000
2743.259,4038.000,4008.000,4015.000
2746.409,4030.000,4008.000,3981.000
2749.558,4022.000,3983.000,3984.000
2752.706,4010.000,4007.000,4037.000
2755.853,4008.000,3969.000,3969.000
2758.996,4061.000,3999.000,3994.000
2762.140,4027.000,4022.000,4003.000
2765.283,3991.000,4027.000,4002.000
2768.425,4045.000,3988.000,3985.000
2771.564,4027.000,4003.000,3955.000
2774.704,4024.000,3985.000,4000.000
2777.841,4024.000,4013.000,3995.000
2780.978,4023.000,3985.000,3989.000
2784.114,4015.000,4021.000,4007.000
2787.248,4001.000,4023.000,3988.000
2790.380,4046.000,4007.000,3991.000
2793.512,3999.000,4005.000,3993.000
2796.642,4048.000,4014.000,3972.000
2799.771,4026.000,4024.000,3969.000
2802.899,3984.000,3986.000,3996.000
2806.024,3999.000,4013.000,3984.000
2809.150,4036.000,3999.000,4005.000
2812.275,4003.000,4009.000,4018.000
2815.398,4006.000,4018.000,3994.000
2818.519,4008.000,4016.000,4004.000
2821.640,4009.000,4014.000,3971.000
2824.760,4041.000,4010.000,3965.000
2827.878,4016.000,4012.000,3998.000
2830.995,4023.000,4027.000,4015.000
2834.111,4048.000,4040.000,3969.000
2837.225,4042.000,4045.000,4014.000
2840.338,4052.000,4009.000,4009.000
2843.450,4015.000,4002.000,3960.000
2846.560,4019.000,4035.000,3980.000
2849.670,4040.000,4006.000,3982.000
2852.779,4047.000,3997.000,4004.000
2855.886,4031.000,3974.000,4028.000
2858.992,4025.000,4035.000,4000.000
2862.097,4027.000,4001.000,3991.000
2865.201,4065.000,4020.000,4014.000
2868.303,4008.000,4042.000,4038.000
2871.404,4051.000,4009.000,4027.000
2874.505,4028.000,4063.000,4005.000
2877.604,4036.000,4012.000,4013.000
2880.699,4047.000,4015.000,4019.000
2883.797,4045.000,4076.000,3998.000
2886.891,4016.000,4045.000,4031.000
2889.984,4054.000,3990.000,4009.000
2893.077,4052.000,4013.000,3963.000
2896.169,4079.000,4014.000,4023.000
2899.259,4031.000,4005.000,4010.000
2902.349,4013.000,4051.000,4033.000
2905.437,4040.000,4007.000,4016.000
2908.523,4039.000,4042.000,4052.000
2911.610,4050.000,4028.000,4029.000
2914.693,4040.000,4019.000,4050.000
2917.777,4051.000,3996.000,3969.000
2920.859,4045.000,4055.000,3987.000
2923.939,4063.000,4026.000,4008.000
2927.018,4043.000,4044.000,4026.000
2930.096,4045.000,4046.000,4038.000
2933.173,4013.000,4084.000,4015.000
2936.250,4032.000,4016.000,3996.000
2939.325,4066.000,4006.000,3992.000
2942.398,4078.000,4026.000,4051.000
2945.470,4074.000,4008.000,4060.000
2948.541,4064.000,4023.000,4050.000
2951.612,4023.000,4021.000,3989.000
2954.681,4032.000,4065.000,4007.000
2957.748,4057.000,4019.000,4036.000
2960.815,4059.000,4060.000,4013.000
2963.880,4030.000,3997.000,4006.000
2966.943,4060.000,4039.000,4021.000
2970.006,4039.000,4030.000,4035.000
2973.068,4038.000,4018.000,3994.000
2976.128,4061.000,3989.000,3992.000
2979.188,4054.000,4003.000,4007.000
2982.246,4087.000,4030.000,4022.000
2985.303,4039.000,4002.000,3979.000
2988.359,4033.000,4029.000,4006.000
2991.413,4034.000,4030.000,4005.000
2994.467,4056.000,4047.000,4032.000
2997.519,4032.000,4029.000,4026.000
3000.571,4044.000,4047.000,4028.000
3003.621,4042.000,4017.000,4026.000
3006.667,4071.000,4103.000,3990.000
3009.716,4029.000,4048.000,4012.000
3012.762,4046.000,4027.000,3991.000
3015.807,4050.000,4028.000,4037.000
3018.851,4064.000,4003.000,3990.000
3021.894,4039.000,4022.000,3986.000
3024.935,4050.000,4039.000,4012.000
3027.976,4064.000,4067.000,4022.000
3031.016,4075.000,4026.000,4038.000
3034.054,4039.000,4021.000,3988.000
3037.091,4036.000,4072.000,3999.000
3040.126,4090.000,4026.000,4013.000
3043.161,4040.000,4084.000,4010.000
3046.195,4055.000,4046.000,3987.000
3049.228,4059.000,4019.000,4035.000
3052.257,4015.000,4008.000,4036.000
3055.287,4017.000,4025.000,3993.000
3058.316,4069.000,4041.000,4046.000
3061.344,4055.000,4015.000,4034.000
3064.370,4053.000,4070.000,4062.000
3067.395,4087.000,4005.000,4050.000
3070.420,4056.000,4041.000,4024.000
3073.443,4077.000,4052.000,4005.000
3076.465,4034.000,4042.000,4043.000
3079.485,4080.000,4051.000,4022.000
3082.505,4070.000,4053.000,4003.000
3085.524,4079.000,4053.000,4050.000
3088.541,4070.000,4035.000,4058.000
3091.555,4059.000,4048.000,4020.000
3094.570,4051.000,4051.000,4045.000
3097.584,4084.000,4087.000,4037.000
3100.597,4061.000,4054.000,4043.000
3103.608,4066.000,4049.000,4027.000
3106.618,4073.000,4049.000,4027.000
3109.627,4077.000,4037.000,4041.000
3112.636,4086.000,4076.000,4042.000
3115.643,4085.000,4048.000,4059.000
3118.648,4102.000,4046.000,4053.000
3121.653,4069.000,4041.000,4045.000
3124.657,4080.000,4103.000,4036.000
3127.658,4075.000,4065.000,4076.000
3130.658,4083.000,4048.000,4020.000
3133.659,4084.000,4105.000,4082.000
3136.657,4103.000,4087.000,4039.000
3139.654,4109.000,4065.000,4032.000
3142.651,4111.000,4021.000,4013.000
3145.646,4081.000,4091.000,4049.000
3148.640,4075.000,4072.000,4049.000
3151.634,4120.000,4066.000,4048.000
3154.625,4104.000,4084.000,4045.000
3157.616,4099.000,4058.000,4042.000
3160.606,4087.000,4076.000,4068.000
3163.594,4118.000,4081.000,4057.000
3166.581,4169.000,4094.000,4073.000
3169.567,4131.000,4064.000,4056.000
3172.552,4118.000,4082.000,4065.000
3175.535,4088.000,4060.000,4037.000
3178.518,4050.000,4081.000,4110.000
3181.500,4097.000,4092.000,4057.000
3184.480,4080.000,4063.000,4106.000
3187.459,4163.000,4059.000,4029.000
3190.438,4099.000,4136.000,4086.000
3193.415,4077.000,4057.000,4077.000
3196.391,4129.000,4099.000,4089.000
3199.365,4112.000,4070.000,4074.000
3202.339,4122.000,4094.000,4098.000
3205.311,4131.000,4105.000,4078.000
3208.284,4081.000,4068.000,4087.000
3211.253,4102.000,4104.000,4102.000
3214.221,4117.000,4071.000,4035.000
3217.189,4147.000,4105.000,4109.000
3220.156,4130.000,4085.000,4095.000
3223.122,4162.000,4092.000,4077.000
3226.087,4087.000,4121.000,4078.000
3229.050,4119.000,4123.000,4157.000
3232.012,4104.000,4105.000,4114.000
3234.974,4168.000,4088.000,4113.000
3237.933,4101.000,4145.000,4106.000
3240.893,4138.000,4073.000,4092.000
3243.851,4144.000,4140.000,4119.000
3246.808,4131.000,4144.000,4108.000
3249.764,4132.000,4140.000,4115.000
3252.716,4151.000,4130.000,4104.000
3255.670,4123.000,4114.000,4087.000
3258.622,4119.000,4099.000,4144.000
3261.573,4119.000,4101.000,4077.000
3264.523,4165.000,4158.000,4087.000
3267.471,4174.000,4151.000,4107.000
3270.419,4173.000,4138.000,4124.000
3273.367,4175.000,4118.000,4134.000
3276.312,4118.000,4162.000,4092.000
3279.256,4168.000,4129.000,4127.000
3282.199,4169.000,4134.000,4154.000
3285.142,4176.000,4147.000,4151.000
3288.083,4187.000,4198.000,4107.000
3291.022,4144.000,4163.000,4142.000
3293.962,4137.000,4173.000,4117.000
3296.898,4142.000,4140.000,4122.000
3299.835,4171.000,4154.000,4135.000
3302.770,4171.000,4168.000,4141.000
3305.705,4199.000,4143.000,4166.000
3308.637,4178.000,4141.000,4148.000
3311.570,4188.000,4169.000,4152.000
3314.501,4202.000,4189.000,4177.000
3317.431,4208.000,4203.000,4145.000
3320.360,4187.000,4174.000,4169.000
3323.287,4216.000,4164.000,4164.000
3326.213,4231.000,4161.000,4152.000
3329.139,4183.000,4169.000,4196.000
3332.064,4237.000,4213.000,4176.000
3334.985,4214.000,4201.000,4184.000
3337.909,4214.000,4199.000,4167.000
3340.829,4240.000,4211.000,4216.000
3343.749,4221.000,4201.000,4181.000
3346.668,4240.000,4181.000,4225.000
3349.586,4245.000,4193.000,4247.000
3352.502,4237.000,4179.000,4199.000
3355.419,4291.000,4297.000,4243.000
3358.332,4294.000,4230.000,4220.000
3361.246,4253.000,4230.000,4243.000
3364.158,4268.000,4267.000,4250.000
3367.069,4306.000,4222.000,4238.000
3369.980,4270.000,4219.000,4218.000
3372.887,4248.000,4280.000,4207.000
3375.796,4262.000,4252.000,4259.000
3378.702,4273.000,4254.000,4228.000
3381.607,4260.000,4244.000,4220.000
3384.512,4270.000,4257.000,4230.000
3387.415,4296.000,4236.000,4281.000
3390.318,4264.000,4244.000,4243.000
3393.220,4251.000,4252.000,4257.000
3396.120,4289.000,4274.000,4227.000
3399.018,4299.000,4273.000,4278.000
3401.917,4325.000,4244.000,4246.000
3404.814,4271.000,4261.000,4239.000
3407.710,4256.000,4265.000,4240.000
3410.604,4256.000,4221.000,4228.000
3413.498,4294.000,4250.000,4271.000
3416.389,4297.000,4253.000,4275.000
3419.281,4265.000,4243.000,4272.000
3422.171,4258.000,4238.000,4216.000
3425.061,4271.000,4254.000,4221.000
3427.949,4241.000,4225.000,4226.000
3430.836,4296.000,4247.000,4220.000
3433.722,4250.000,4216.000,4240.000
3436.607,4247.000,4278.000,4216.000
3439.491,4225.000,4196.000,4207.000
3442.374,4239.000,4203.000,4188.000
3445.255,4246.000,4204.000,4223.000
3448.136,4268.000,4212.000,4184.000
3451.015,4222.000,4214.000,4200.000
3453.893,4217.000,4200.000,4222.000
3456.771,4224.000,4225.000,4180.000
3459.646,4226.000,4223.000,4165.000
3462.522,4230.000,4179.000,4219.000
3465.396,4248.000,4239.000,4207.000
3468.269,4213.000,4201.000,4198.000
3471.141,4254.000,4251.000,4200.000
3474.012,4250.000,4214.000,4174.000
3476.882,4275.000,4217.000,4214.000
3479.751,4274.000,4211.000,4210.000
3482.619,4193.000,4217.000,4178.000
3485.486,4242.000,4197.000,4203.000
3488.351,4199.000,4204.000,4225.000
3491.215,4241.000,4205.000,4217.000
3494.079,4238.000,4219.000,4188.000
3496.940,4230.000,4248.000,4200.000
3499.801,4203.000,4210.000,4165.000
3502.662,4228.000,4254.000,4202.000
3505.521,4271.000,4216.000,4148.000
3508.379,4241.000,4215.000,4234.000
3511.236,4259.000,4238.000,4219.000
3514.091,4212.000,4221.000,4199.000
3516.947,4230.000,4222.000,4203.000
3519.800,4227.000,4228.000,4209.000
3522.654,4265.000,4218.000,4202.000
3525.505,4281.000,4226.000,4204.000
3528.355,4254.000,4223.000,4216.000
3531.206,4245.000,4250.000,4228.000
3534.052,4237.000,4247.000,4241.000
3536.900,4272.000,4209.000,4260.000
3539.746,4271.000,4211.000,4217.000
3542.591,4258.000,4254.000,4254.000
3545.436,4239.000,4242.000,4226.000
3548.279,4279.000,4222.000,4250.000
3551.121,4278.000,4218.000,4222.000
3553.963,4308.000,4269.000,4222.000
3556.802,4292.000,4226.000,4188.000
3559.641,4277.000,4226.000,4231.000
3562.480,4269.000,4298.000,4240.000
3565.317,4305.000,4229.000,4245.000
3568.151,4263.000,4241.000,4272.000
3570.985,4308.000,4244.000,4263.000
3573.818,4287.000,4269.000,4204.000
3576.652,4281.000,4279.000,4256.000
3579.483,4273.000,4257.000,4253.000
3582.313,4308.000,4249.000,4275.000
3585.143,4281.000,4324.000,4260.000
3587.971,4273.000,4264.000,4300.000
3590.799,4318.000,4311.000,4263.000