File: Raman/2022_11_26/Data/2022_11_26_Nylon6_532nm_Pol_6mW_750mm_600gv_3200wn_iDus_100s_10accum_Pos1.csv
2487.376,820.000,814.000,831.000,820.000,839.000,815.000,818.000,823.000,828.000,836.000
2490.281,823.000,829.000,824.000,839.000,821.000,833.000,840.000,838.000,831.000,825.000
2493.186,831.000,826.000,842.000,821.000,823.000,833.000,822.000,818.000,822.000,839.000
2496.090,814.000,819.000,834.000,831.000,824.000,811.000,820.000,835.000,814.000,832.000
2498.994,811.000,806.000,827.000,811.000,823.000,827.000,803.000,835.000,817.000,792.000
2501.895,822.000,820.000,808.000,840.000,834.000,828.000,824.000,825.000,826.000,837.000
2504.796,802.000,815.000,827.000,818.000,830.000,816.000,806.000,819.000,827.000,813.000
2507.695,827.000,824.000,822.000,825.000,802.000,828.000,833.000,831.000,832.000,819.000
2510.594,825.000,807.000,814.000,812.000,828.000,810.000,831.000,803.000,818.000,836.000
2513.491,818.000,831.000,834.000,823.000,828.000,832.000,828.000,845.000,823.000,838.000
2516.389,830.000,819.000,830.000,828.000,827.000,828.000,815.000,832.000,830.000,813.000
2519.284,830.000,840.000,835.000,833.000,851.000,830.000,845.000,836.000,826.000,828.000
2522.179,831.000,837.000,842.000,832.000,834.000,820.000,845.000,842.000,850.000,856.000
2525.072,848.000,834.000,849.000,867.000,840.000,842.000,853.000,867.000,856.000,849.000
2527.964,850.000,883.000,844.000,843.000,860.000,857.000,864.000,844.000,851.000,850.000
2530.855,840.000,853.000,862.000,867.000,855.000,868.000,858.000,862.000,866.000,863.000
2533.747,864.000,859.000,875.000,862.000,866.000,867.000,865.000,876.000,858.000,856.000
2536.636,881.000,862.000,875.000,869.000,869.000,866.000,875.000,887.000,884.000,874.000
2539.524,883.000,875.000,884.000,870.000,874.000,876.000,867.000,873.000,866.000,868.000
2542.411,884.000,886.000,892.000,877.000,896.000,880.000,871.000,879.000,888.000,901.000
2545.298,888.000,891.000,897.000,867.000,889.000,885.000,866.000,890.000,880.000,883.000
2548.183,893.000,897.000,908.000,892.000,878.000,878.000,897.000,898.000,902.000,880.000
2551.068,911.000,919.000,906.000,917.000,931.000,903.000,906.000,900.000,907.000,912.000
2553.951,943.000,906.000,922.000,925.000,919.000,930.000,928.000,939.000,939.000,926.000
2556.833,969.000,944.000,939.000,940.000,925.000,948.000,941.000,949.000,954.000,937.000
2559.714,956.000,949.000,933.000,938.000,949.000,955.000,961.000,927.000,945.000,944.000
2562.594,953.000,981.000,973.000,958.000,965.000,960.000,955.000,965.000,940.000,940.000
2565.473,981.000,975.000,992.000,965.000,970.000,969.000,951.000,967.000,969.000,973.000
2568.352,961.000,987.000,971.000,978.000,1000.000,981.000,956.000,991.000,990.000,983.000
2571.229,995.000,991.000,969.000,983.000,999.000,972.000,1000.000,970.000,960.000,992.000
2574.105,974.000,969.000,987.000,988.000,994.000,971.000,984.000,975.000,983.000,979.000
2576.980,952.000,957.000,990.000,969.000,960.000,957.000,971.000,949.000,983.000,964.000
2579.854,976.000,3502.000,968.000,956.000,967.000,970.000,968.000,978.000,964.000,957.000
2582.727,975.000,956.000,969.000,969.000,971.000,993.000,986.000,951.000,969.000,968.000
2585.600,973.000,995.000,967.000,973.000,970.000,961.000,989.000,980.000,985.000,971.000
2588.471,986.000,969.000,992.000,985.000,986.000,999.000,1006.000,965.000,978.000,968.000
2591.341,1018.000,1035.000,1022.000,1008.000,1042.000,1017.000,1008.000,1044.000,1014.000,1024.000
2594.209,1019.000,1026.000,1055.000,1013.000,1061.000,1025.000,1025.000,1052.000,1020.000,1006.000
2597.077,1075.000,1072.000,1082.000,1075.000,1079.000,1079.000,1050.000,1060.000,1085.000,1065.000
2599.944,1086.000,1092.000,1072.000,1104.000,1100.000,1091.000,1111.000,1116.000,1089.000,1098.000
2602.811,1118.000,1128.000,1106.000,1118.000,1147.000,1129.000,1142.000,1161.000,1111.000,1100.000
2605.676,1151.000,1154.000,1145.000,1151.000,1137.000,1129.000,1136.000,1175.000,1146.000,1150.000
2608.539,1188.000,1151.000,1191.000,1159.000,1205.000,1181.000,1176.000,1185.000,1180.000,1171.000
2611.402,1146.000,1200.000,1156.000,1186.000,1172.000,1178.000,1161.000,1186.000,1208.000,1164.000
2614.264,1201.000,1233.000,1196.000,1238.000,1215.000,1240.000,1204.000,1221.000,1228.000,1215.000
2617.124,1202.000,1159.000,1217.000,1202.000,1193.000,1199.000,1212.000,1188.000,1186.000,1216.000
2619.985,1238.000,1244.000,1230.000,1220.000,1219.000,1210.000,1210.000,1207.000,1220.000,1226.000
2622.844,1186.000,1207.000,1191.000,1168.000,1186.000,1187.000,1199.000,1196.000,1183.000,1177.000
2625.702,1202.000,1223.000,1217.000,1202.000,1185.000,1183.000,1214.000,1185.000,1188.000,1184.000
2628.558,1182.000,1172.000,1179.000,1174.000,1164.000,1180.000,1170.000,1179.000,1179.000,1162.000
2631.414,1177.000,1222.000,1190.000,1174.000,1196.000,1186.000,1186.000,1182.000,1181.000,1201.000
2634.268,1188.000,1173.000,1183.000,1181.000,1184.000,1151.000,1178.000,1186.000,1207.000,1165.000
2637.123,1160.000,1195.000,1215.000,1657.000,1200.000,1183.000,1190.000,1195.000,1185.000,1187.000
2639.976,1193.000,1180.000,1200.000,1214.000,1202.000,1162.000,1189.000,1168.000,1212.000,1193.000
2642.827,1202.000,1196.000,1172.000,1212.000,1203.000,1207.000,1179.000,1222.000,1200.000,1198.000
2645.678,1217.000,1178.000,1197.000,1201.000,1188.000,1217.000,1202.000,1192.000,1204.000,1189.000
2648.528,1227.000,1257.000,1243.000,1219.000,1226.000,1183.000,1189.000,1223.000,1217.000,1214.000
2651.376,1200.000,1212.000,1206.000,1200.000,1218.000,1210.000,1203.000,1225.000,1200.000,1203.000
2654.225,1671.000,1221.000,1229.000,1228.000,1239.000,1239.000,1220.000,1248.000,1248.000,1227.000
2657.072,1234.000,1209.000,1201.000,1482.000,1236.000,1212.000,1233.000,1214.000,1248.000,1216.000
2659.917,1258.000,1244.000,1246.000,1632.000,1279.000,1261.000,1299.000,1283.000,1281.000,1243.000
2662.762,1238.000,1245.000,1259.000,1263.000,1294.000,1236.000,1255.000,1283.000,1272.000,1248.000
2665.605,1287.000,1264.000,1298.000,1311.000,1288.000,1300.000,1336.000,1308.000,1322.000,1327.000
2668.448,1298.000,1319.000,1310.000,1351.000,1328.000,1313.000,1321.000,1321.000,1331.000,1306.000
2671.291,1349.000,1377.000,1367.000,1378.000,1374.000,1365.000,1353.000,1355.000,1343.000,1367.000
2674.131,1324.000,1363.000,1357.000,1381.000,1351.000,1365.000,1337.000,1347.000,1400.000,1372.000
2676.971,1419.000,1397.000,1410.000,1412.000,1420.000,1418.000,1398.000,1418.000,1413.000,1400.000
2679.809,1375.000,1444.000,1413.000,1431.000,1392.000,1394.000,1422.000,1416.000,1383.000,1415.000
2682.647,1463.000,1447.000,1424.000,1427.000,1439.000,1435.000,1434.000,1454.000,1441.000,1466.000
2685.483,1469.000,1469.000,1438.000,1453.000,1438.000,1467.000,1450.000,1423.000,1411.000,1458.000
2688.320,1485.000,1505.000,1490.000,1495.000,1512.000,1490.000,1475.000,1499.000,1517.000,1488.000
2691.155,1494.000,1496.000,1475.000,1508.000,1487.000,1496.000,1516.000,1534.000,1494.000,1492.000
2693.988,1567.000,1588.000,1569.000,1598.000,1550.000,1571.000,1595.000,1604.000,1562.000,1573.000
2696.821,1590.000,1607.000,1627.000,1611.000,1599.000,1611.000,1630.000,1590.000,1581.000,1608.000
2699.652,1626.000,1679.000,1664.000,1701.000,1691.000,1698.000,1721.000,1697.000,1688.000,1684.000
2702.483,1711.000,1735.000,1702.000,1692.000,1723.000,1709.000,1684.000,1714.000,1700.000,1702.000
2705.314,1759.000,1769.000,1757.000,1734.000,1785.000,1789.000,1783.000,1780.000,1782.000,1782.000
2708.142,1781.000,1814.000,1811.000,1801.000,1830.000,1780.000,1792.000,1780.000,1798.000,1786.000
2710.970,1809.000,1841.000,1813.000,1815.000,1860.000,1817.000,1826.000,1819.000,1841.000,1840.000
2713.796,1828.000,1836.000,1831.000,1871.000,1837.000,1861.000,1835.000,1852.000,1842.000,1812.000
2716.622,1896.000,1908.000,1955.000,1932.000,1889.000,1917.000,1895.000,1891.000,1886.000,1854.000
2719.447,1917.000,1962.000,1909.000,1938.000,1934.000,1902.000,1919.000,1975.000,1949.000,1928.000
2722.272,1987.000,2054.000,2015.000,1999.000,2026.000,2012.000,2023.000,1941.000,2039.000,2019.000
2725.094,2055.000,2016.000,2074.000,2052.000,2064.000,2090.000,2026.000,2009.000,2020.000,2092.000
2727.916,2129.000,2102.000,2137.000,2176.000,2144.000,2132.000,2094.000,2131.000,2147.000,2159.000
2730.736,2098.000,2152.000,2169.000,2111.000,2153.000,2196.000,2177.000,2136.000,2165.000,2125.000
2733.556,2256.000,2269.000,2253.000,2276.000,2238.000,2245.000,2268.000,2255.000,2280.000,2253.000
2736.375,2287.000,2238.000,2258.000,2250.000,2294.000,2305.000,2262.000,2282.000,2274.000,2266.000
2739.194,2313.000,2325.000,2297.000,2365.000,2347.000,2324.000,2349.000,2318.000,2348.000,2348.000
2742.010,2348.000,2364.000,2376.000,2413.000,2421.000,2438.000,2400.000,2391.000,2422.000,2369.000
2744.826,2444.000,2481.000,2467.000,2505.000,2508.000,2470.000,2444.000,2531.000,2479.000,2501.000
2747.641,2494.000,2523.000,2542.000,2530.000,2574.000,2539.000,2506.000,2500.000,2565.000,2540.000
2750.454,2608.000,2612.000,2611.000,2542.000,2624.000,2635.000,2635.000,2566.000,2565.000,2612.000
2753.267,2552.000,2598.000,2595.000,2550.000,2594.000,2603.000,2612.000,2592.000,2575.000,2592.000
2756.080,2536.000,2570.000,2555.000,2533.000,2563.000,2528.000,2560.000,2515.000,2598.000,2523.000
2758.891,2403.000,2430.000,2432.000,2399.000,2433.000,2405.000,2436.000,2376.000,2401.000,2475.000
2761.701,2271.000,2316.000,2280.000,2373.000,2327.000,2363.000,2297.000,2329.000,2375.000,2356.000
2764.509,2190.000,2204.000,2161.000,2158.000,2174.000,2156.000,2178.000,2152.000,2168.000,2193.000
2767.317,2128.000,2159.000,2091.000,2074.000,2163.000,2092.000,2155.000,2121.000,2118.000,2108.000
2770.124,2048.000,2048.000,2040.000,2020.000,2027.000,2077.000,2027.000,2026.000,2048.000,1961.000
2772.931,1955.000,1993.000,1989.000,2018.000,2010.000,2043.000,2010.000,1998.000,2035.000,2052.000
2775.736,1938.000,1939.000,1949.000,1965.000,1916.000,1963.000,1963.000,1964.000,1946.000,1989.000
2778.540,1909.000,1936.000,1857.000,1952.000,1904.000,1881.000,1893.000,1908.000,1951.000,1963.000
2781.343,1822.000,1846.000,1872.000,1867.000,1869.000,1840.000,1855.000,1839.000,1834.000,1857.000
2784.145,1817.000,1808.000,1837.000,1848.000,1816.000,1786.000,1777.000,1834.000,1832.000,1812.000
2786.946,1738.000,1742.000,1802.000,1764.000,1747.000,1803.000,1737.000,1787.000,1774.000,1788.000
2789.747,1747.000,1748.000,1732.000,1727.000,1769.000,1752.000,1727.000,1746.000,1745.000,1792.000
2792.546,1667.000,1736.000,1709.000,1734.000,1737.000,1746.000,1734.000,1759.000,1690.000,1699.000
2795.344,1725.000,1731.000,1687.000,1706.000,1717.000,1735.000,1705.000,1735.000,1714.000,1732.000
2798.141,1657.000,1703.000,1727.000,1705.000,1693.000,1739.000,1741.000,1712.000,1696.000,1718.000
2800.937,1726.000,1765.000,1741.000,1733.000,1740.000,1750.000,1771.000,1772.000,1755.000,1742.000
2803.732,1740.000,1766.000,1754.000,1734.000,1779.000,1765.000,1760.000,1724.000,1773.000,1741.000
2806.527,1815.000,1799.000,1811.000,1801.000,1840.000,1813.000,1847.000,1840.000,1811.000,1814.000
2809.320,1811.000,1879.000,1882.000,1848.000,1811.000,1875.000,1855.000,1865.000,1868.000,1863.000
2812.113,1918.000,1932.000,1919.000,1930.000,1946.000,1975.000,1898.000,1897.000,1952.000,1912.000
2814.904,2013.000,1990.000,2027.000,2035.000,2016.000,2002.000,2016.000,2052.000,2030.000,2000.000
2817.694,2167.000,2123.000,2156.000,2177.000,2159.000,2174.000,2194.000,2225.000,2186.000,2194.000
2820.483,2265.000,2290.000,2290.000,2338.000,2266.000,2305.000,2342.000,2363.000,2303.000,2319.000
2823.273,2513.000,2514.000,2530.000,2530.000,2522.000,2523.000,2499.000,2548.000,2498.000,2566.000
2826.060,2643.000,2714.000,2674.000,2692.000,2661.000,2676.000,2709.000,2752.000,2709.000,2713.000
2828.846,2859.000,2895.000,2834.000,2856.000,2916.000,2854.000,2839.000,2853.000,2902.000,2872.000
2831.631,2949.000,3037.000,3010.000,3041.000,3061.000,3023.000,3018.000,3039.000,3029.000,3020.000
2834.416,3137.000,3202.000,3167.000,3174.000,3117.000,3252.000,3167.000,3171.000,3147.000,3187.000
2837.199,3274.000,3327.000,3329.000,3275.000,3324.000,3304.000,3195.000,3271.000,3296.000,3315.000
2839.983,3614.000,3662.000,3594.000,3623.000,3690.000,3619.000,3649.000,3631.000,3636.000,3643.000
2842.764,3953.000,4058.000,3995.000,3981.000,3988.000,3989.000,4024.000,4014.000,4019.000,3972.000
2845.545,4650.000,4718.000,4645.000,4643.000,4711.000,4727.000,4694.000,4657.000,4663.000,4675.000
2848.324,5589.000,5643.000,5654.000,5754.000,5669.000,5593.000,5603.000,5672.000,5729.000,5710.000
2851.103,7303.000,7428.000,7509.000,7592.000,7428.000,7420.000,7458.000,7511.000,7519.000,7403.000
2853.880,9950.000,10079.000,10166.000,10122.000,10096.000,10114.000,9967.000,10043.000,10078.000,10054.000
2856.658,13548.000,13504.000,13569.000,13674.000,13573.000,13660.000,13734.000,13757.000,13662.000,13623.000
2859.434,16305.000,16511.000,16646.000,16360.000,16587.000,16484.000,16505.000,16542.000,16531.000,16536.000
2862.208,18499.000,18678.000,18741.000,18543.000,18628.000,18691.000,18793.000,18588.000,18574.000,18687.000
2864.982,19078.000,19349.000,19286.000,19344.000,19278.000,19318.000,19231.000,19312.000,19368.000,19542.000
2867.755,19815.000,20135.000,20176.000,20181.000,20036.000,20090.000,20452.000,20283.000,20233.000,20184.000
2870.526,20294.000,20353.000,20585.000,20564.000,20693.000,20485.000,20580.000,20433.000,20504.000,20487.000
2873.299,21695.000,22183.000,22088.000,22195.000,21982.000,22032.000,22084.000,22143.000,21867.000,22017.000
2876.068,21994.000,22317.000,22514.000,22325.000,22399.000,22347.000,22361.000,22417.000,22456.000,22315.000
2878.837,23558.000,23888.000,23856.000,23764.000,23878.000,23723.000,23893.000,23761.000,23696.000,23874.000
2881.605,23061.000,23316.000,23320.000,23415.000,23299.000,23329.000,23451.000,23430.000,23362.000,23380.000
2884.372,23216.000,23483.000,23635.000,23587.000,23480.000,23598.000,23467.000,23531.000,23578.000,23766.000
2887.138,22412.000,22566.000,22550.000,22704.000,22595.000,22670.000,22565.000,22528.000,22751.000,22738.000
2889.904,22189.000,22605.000,22559.000,22646.000,22835.000,22620.000,22532.000,22574.000,22569.000,22488.000
2892.668,21321.000,21566.000,21561.000,21425.000,21609.000,21660.000,21582.000,21769.000,21553.000,21796.000
2895.432,22353.000,22849.000,22898.000,22814.000,22830.000,23027.000,22773.000,22666.000,22741.000,22836.000
2898.194,24141.000,24122.000,24336.000,24383.000,24310.000,24330.000,24389.000,24279.000,24708.000,24323.000
2900.955,27095.000,27642.000,27771.000,27828.000,27760.000,27584.000,27598.000,27737.000,27677.000,27712.000
2903.715,31501.000,32125.000,32057.000,32064.000,32064.000,31919.000,32033.000,32111.000,31896.000,31857.000
2906.476,35464.000,35819.000,35585.000,35815.000,35599.000,35821.000,35777.000,35593.000,35634.000,35652.000
2909.234,34417.000,35067.000,34837.000,35323.000,34792.000,35151.000,35100.000,35074.000,34964.000,34934.000
2911.991,33472.000,33711.000,33731.000,33810.000,33549.000,33734.000,33834.000,33682.000,33876.000,33842.000
2914.748,30512.000,31161.000,31179.000,30954.000,31157.000,30798.000,31041.000,31107.000,31116.000,31051.000
2917.503,29315.000,29715.000,29852.000,29897.000,29760.000,29575.000,29566.000,29834.000,29794.000,29513.000
2920.257,27902.000,28201.000,28065.000,27836.000,28138.000,28134.000,27820.000,28332.000,28187.000,27923.000
2923.012,27240.000,27376.000,27384.000,27446.000,27448.000,27462.000,27620.000,27609.000,27299.000,27418.000
2925.765,26038.000,26275.000,26310.000,26413.000,26590.000,26309.000,26366.000,26233.000,26486.000,26389.000
2928.516,27016.000,27286.000,27424.000,27333.000,27182.000,27329.000,27383.000,27367.000,27220.000,27206.000
2931.267,27472.000,27815.000,28016.000,27859.000,28007.000,27816.000,27854.000,27907.000,27834.000,27908.000
2934.017,28422.000,28898.000,28920.000,28922.000,28923.000,28976.000,28796.000,28960.000,28835.000,28728.000
2936.765,28183.000,28555.000,28428.000,28442.000,28507.000,28390.000,28461.000,28393.000,28338.000,28422.000
2939.515,26950.000,27007.000,27169.000,27262.000,26809.000,27273.000,27013.000,27164.000,26957.000,27043.000
2942.261,24910.000,25310.000,25196.000,25240.000,25222.000,25315.000,25081.000,25172.000,25260.000,25217.000
2945.007,23010.000,23291.000,23204.000,23296.000,23438.000,23447.000,23615.000,23337.000,23285.000,23345.000
2947.752,20776.000,21182.000,21207.000,21313.000,21062.000,21199.000,21265.000,21026.000,21248.000,21098.000
2950.496,18649.000,18754.000,18987.000,18866.000,18816.000,18743.000,18841.000,18843.000,18835.000,18697.000
2953.239,17015.000,17053.000,17084.000,17063.000,17077.000,17083.000,16980.000,17041.000,16945.000,17119.000
2955.983,16532.000,15191.000,15198.000,15341.000,15186.000,15427.000,15082.000,15214.000,15016.000,15174.000
2958.724,13775.000,13936.000,13963.000,13852.000,13840.000,13949.000,13995.000,13801.000,13763.000,13932.000
2961.464,12552.000,12627.000,12752.000,12547.000,12701.000,12510.000,12696.000,12642.000,12592.000,12689.000
2964.203,11522.000,11639.000,11526.000,11634.000,11569.000,11672.000,11681.000,11662.000,11649.000,11583.000
2966.941,10679.000,10769.000,10824.000,10808.000,10795.000,10740.000,10783.000,10660.000,10727.000,10765.000
2969.679,10062.000,10349.000,10177.000,10234.000,10280.000,10209.000,10200.000,10221.000,10262.000,10207.000
2972.417,9204.000,9286.000,9291.000,9224.000,9240.000,9239.000,9259.000,9223.000,9294.000,9226.000
2975.152,8348.000,8419.000,8438.000,8444.000,8519.000,8456.000,8556.000,8406.000,8517.000,8483.000
2977.886,7395.000,7538.000,7458.000,7407.000,7489.000,7496.000,7421.000,7528.000,7490.000,7499.000
2980.620,6521.000,6667.000,6712.000,6671.000,6707.000,6581.000,6647.000,6683.000,6600.000,6685.000
2983.353,5772.000,5903.000,5902.000,5865.000,5763.000,5821.000,5766.000,5821.000,5885.000,5887.000
2986.084,5252.000,5372.000,5314.000,5435.000,5363.000,5434.000,5318.000,5350.000,5322.000,5312.000
2988.816,4582.000,4640.000,4650.000,4677.000,4630.000,4631.000,4640.000,4619.000,4613.000,4685.000
2991.546,4263.000,4315.000,4297.000,4412.000,4349.000,4309.000,4293.000,4322.000,4349.000,4401.000
2994.275,3840.000,3849.000,3947.000,3857.000,3906.000,3879.000,3892.000,3866.000,3877.000,3891.000
2997.003,3641.000,3622.000,3644.000,3620.000,3543.000,3611.000,3655.000,3654.000,3624.000,3561.000
2999.730,3297.000,3340.000,3241.000,3275.000,3294.000,3312.000,3253.000,3272.000,3346.000,3288.000
3002.456,3165.000,3137.000,3170.000,3161.000,3139.000,3139.000,3163.000,3123.000,3199.000,3157.000
3005.182,2906.000,2898.000,2893.000,2885.000,2937.000,2872.000,2824.000,2955.000,2889.000,2877.000
3007.906,2771.000,2747.000,2765.000,2797.000,2752.000,2785.000,2787.000,2744.000,2743.000,2795.000
3010.629,2612.000,2658.000,2609.000,2729.000,2644.000,2638.000,2638.000,2610.000,2589.000,2554.000
3013.352,2535.000,2543.000,2500.000,2457.000,2564.000,2524.000,2493.000,2506.000,2474.000,2514.000
3016.073,2378.000,2413.000,2397.000,2435.000,2455.000,2399.000,2354.000,2406.000,2373.000,2392.000
3018.793,2298.000,2318.000,2318.000,2338.000,2335.000,2355.000,2328.000,2300.000,2282.000,2331.000
3021.514,2247.000,2201.000,2241.000,2214.000,2237.000,2218.000,2212.000,2232.000,2248.000,2243.000
3024.233,2181.000,2164.000,2146.000,2143.000,2179.000,2195.000,2143.000,2210.000,2170.000,2171.000
3026.950,2119.000,2132.000,2164.000,2127.000,2189.000,2148.000,2135.000,2147.000,2135.000,2114.000
3029.667,2040.000,2076.000,2050.000,2077.000,2088.000,2054.000,2036.000,2079.000,2053.000,2068.000
3032.382,2007.000,2050.000,2059.000,2024.000,2054.000,2008.000,2056.000,2092.000,2038.000,2067.000
3035.097,2014.000,1988.000,2000.000,2027.000,2004.000,2000.000,1994.000,2028.000,2026.000,2062.000
3037.812,2003.000,1995.000,1980.000,1967.000,1979.000,1937.000,1988.000,1986.000,1954.000,1928.000
3040.525,1909.000,1924.000,1922.000,1915.000,1943.000,1910.000,1924.000,1921.000,1935.000,1900.000
3043.237,1949.000,1908.000,1953.000,1982.000,1935.000,1944.000,1910.000,1941.000,1920.000,1897.000
3045.948,1861.000,1900.000,1851.000,1909.000,1911.000,1862.000,1881.000,1896.000,1884.000,1918.000
3048.658,1875.000,1902.000,1918.000,1899.000,1961.000,1953.000,1905.000,1878.000,1865.000,1912.000
3051.367,1851.000,1873.000,1856.000,1877.000,1864.000,1897.000,1885.000,1885.000,1866.000,1905.000
3054.077,1881.000,1911.000,1893.000,1877.000,1893.000,1897.000,1923.000,1885.000,1888.000,1858.000
3056.784,1833.000,1887.000,1871.000,1909.000,1931.000,1870.000,1885.000,1906.000,1838.000,1907.000
3059.491,1946.000,1932.000,1951.000,1928.000,1938.000,1918.000,1909.000,1952.000,1977.000,1915.000
3062.196,1880.000,1918.000,1881.000,1934.000,1904.000,1874.000,1895.000,1894.000,1898.000,1894.000
3064.900,1895.000,1950.000,1959.000,1888.000,1893.000,1916.000,1919.000,1930.000,1938.000,1884.000
3067.604,1914.000,1927.000,1920.000,1906.000,1894.000,1935.000,1899.000,1907.000,1891.000,1943.000
3070.308,1902.000,1895.000,1892.000,1910.000,1882.000,1916.000,1908.000,1936.000,1915.000,1917.000
3073.010,1877.000,1875.000,1886.000,1889.000,1853.000,1882.000,1890.000,1901.000,1857.000,1900.000
3075.711,1851.000,1866.000,1904.000,1883.000,1832.000,1921.000,1888.000,1872.000,1872.000,1886.000
3078.410,1864.000,1848.000,1850.000,1820.000,1838.000,1826.000,1835.000,1845.000,1821.000,1856.000
3081.109,1795.000,1794.000,1785.000,1845.000,1828.000,1811.000,1824.000,1794.000,1794.000,1814.000
3083.807,1776.000,1819.000,1798.000,1766.000,1786.000,1769.000,1833.000,1771.000,1781.000,1782.000
3086.506,1707.000,1730.000,1686.000,1733.000,1734.000,1702.000,1724.000,1747.000,1776.000,1689.000
3089.202,1748.000,1711.000,1709.000,1724.000,1688.000,1721.000,1716.000,1675.000,1734.000,1721.000
3091.897,1660.000,1680.000,1636.000,1663.000,1646.000,1657.000,1674.000,1665.000,1654.000,1641.000
3094.591,1615.000,1648.000,1625.000,1621.000,1665.000,1643.000,1643.000,1649.000,1614.000,1650.000
3097.285,1581.000,1600.000,1594.000,1597.000,1600.000,1620.000,1602.000,1583.000,1605.000,1552.000
3099.977,1619.000,1597.000,1584.000,1624.000,1580.000,1550.000,1588.000,1556.000,1565.000,1572.000
3102.670,1497.000,1491.000,1486.000,1518.000,1479.000,1513.000,1482.000,1496.000,1504.000,1478.000
3105.361,1464.000,1479.000,1500.000,1505.000,1480.000,1517.000,1481.000,1489.000,1486.000,1504.000
3108.050,1422.000,1416.000,1414.000,1416.000,1402.000,1437.000,1445.000,1428.000,1413.000,1398.000
3110.739,1408.000,1378.000,1440.000,1401.000,1395.000,1407.000,1403.000,1417.000,1407.000,1405.000
3113.427,1325.000,1371.000,1307.000,1344.000,1346.000,1369.000,1361.000,1377.000,1355.000,1337.000
3116.114,1341.000,1367.000,1338.000,1361.000,1313.000,1348.000,1351.000,1368.000,1349.000,1315.000
3118.801,1268.000,1304.000,1280.000,1311.000,1280.000,1306.000,1320.000,1298.000,1298.000,1305.000
3121.486,1287.000,1266.000,1281.000,1272.000,1275.000,1279.000,1308.000,1267.000,1281.000,1283.000
3124.170,1260.000,1258.000,1260.000,1249.000,1222.000,1246.000,1258.000,1215.000,1249.000,1272.000
3126.853,1212.000,1219.000,1241.000,1215.000,1216.000,1249.000,1214.000,1225.000,1237.000,1231.000
3129.536,1226.000,1207.000,1212.000,1206.000,1189.000,1245.000,1212.000,1226.000,1206.000,1209.000
3132.217,1180.000,1207.000,1188.000,1195.000,1176.000,1174.000,1186.000,1199.000,1204.000,1167.000
3134.899,1168.000,1173.000,1188.000,1184.000,1166.000,1169.000,1173.000,1186.000,1166.000,1190.000
3137.579,1162.000,1146.000,1153.000,1162.000,1165.000,1173.000,1143.000,1196.000,1167.000,1143.000
3140.257,1163.000,1144.000,1151.000,1161.000,1154.000,1161.000,1141.000,1145.000,1159.000,1150.000
3142.935,1144.000,1132.000,1137.000,1145.000,1121.000,1132.000,1106.000,1152.000,1113.000,1126.000
3145.612,1114.000,1109.000,1114.000,1140.000,1150.000,1119.000,1121.000,1134.000,1134.000,1130.000
3148.288,1114.000,1112.000,1136.000,1107.000,1104.000,1113.000,1107.000,1116.000,1133.000,1132.000
3150.964,1123.000,1125.000,1101.000,1105.000,1108.000,1140.000,1111.000,1116.000,1087.000,1109.000
3153.638,1095.000,1100.000,1078.000,1099.000,1095.000,1091.000,1113.000,1109.000,1113.000,1117.000
3156.311,1100.000,1108.000,1115.000,1121.000,1097.000,1113.000,1109.000,1128.000,1123.000,1084.000
3158.983,1084.000,1112.000,1109.000,1079.000,1069.000,1109.000,1102.000,1051.000,1110.000,1122.000
3161.655,1120.000,1121.000,1107.000,1102.000,1112.000,1109.000,1117.000,1110.000,1102.000,1100.000
3164.325,1129.000,1139.000,1080.000,1098.000,1101.000,1106.000,1105.000,1103.000,1085.000,1115.000
3166.996,1093.000,1106.000,1090.000,1124.000,1108.000,1093.000,1103.000,1105.000,1105.000,1108.000
3169.665,1119.000,1114.000,1098.000,1105.000,1081.000,1130.000,1114.000,1089.000,1098.000,1120.000
3172.332,1104.000,1144.000,1111.000,1137.000,1114.000,1119.000,1130.000,1126.000,1110.000,1120.000
3174.999,1100.000,1161.000,1130.000,1137.000,1111.000,1147.000,1116.000,1126.000,1113.000,1159.000
3177.665,1118.000,1117.000,1151.000,1117.000,1118.000,1126.000,1136.000,1141.000,1126.000,1128.000
3180.330,1141.000,1141.000,1176.000,1162.000,1168.000,1160.000,1129.000,1163.000,1147.000,1150.000
3182.995,1143.000,1151.000,1161.000,1159.000,1149.000,1169.000,1144.000,1165.000,1143.000,1166.000
3185.658,1174.000,1201.000,1176.000,1179.000,1202.000,1196.000,1182.000,1191.000,1169.000,1187.000
3188.320,1198.000,1211.000,1199.000,1164.000,1187.000,1228.000,1212.000,1206.000,1180.000,1217.000
3190.982,1212.000,1215.000,1238.000,1221.000,1206.000,1211.000,1211.000,1221.000,1210.000,1207.000
3193.642,1229.000,1229.000,1219.000,1208.000,1227.000,1199.000,1234.000,1202.000,1230.000,1235.000
3196.302,1263.000,1224.000,1267.000,1252.000,1241.000,1255.000,1229.000,1262.000,1245.000,1233.000
3198.962,1220.000,1231.000,1283.000,1238.000,1228.000,1254.000,1259.000,1232.000,1236.000,1242.000
3201.619,1262.000,1283.000,1277.000,1299.000,1315.000,1247.000,1257.000,1261.000,1281.000,1283.000
3204.276,1279.000,1291.000,1276.000,1279.000,1284.000,1280.000,1277.000,1310.000,1275.000,1267.000
3206.932,1272.000,1311.000,1306.000,1289.000,1314.000,1314.000,1302.000,1287.000,1289.000,1291.000
3209.587,1306.000,1300.000,1305.000,1300.000,1336.000,1313.000,1267.000,1298.000,1267.000,1292.000
3212.241,1303.000,1318.000,1315.000,1321.000,1279.000,1295.000,1303.000,1311.000,1283.000,1329.000
3214.895,1313.000,1320.000,1319.000,1349.000,1345.000,1340.000,1345.000,1321.000,1316.000,1339.000
3217.548,1341.000,1356.000,1364.000,1319.000,1354.000,1350.000,1335.000,1339.000,1340.000,1320.000
3220.199,1337.000,1371.000,1356.000,1361.000,1323.000,1365.000,1343.000,1367.000,1374.000,1357.000
3222.849,1363.000,1361.000,1372.000,1358.000,1381.000,1378.000,1370.000,1346.000,1368.000,1359.000
3225.499,1395.000,1386.000,1381.000,1359.000,1375.000,1398.000,1398.000,1390.000,1362.000,1356.000
3228.148,1386.000,1406.000,1406.000,1386.000,1424.000,1383.000,1396.000,1396.000,1381.000,1411.000
3230.797,1436.000,1463.000,1398.000,1475.000,1435.000,1446.000,1418.000,1431.000,1423.000,1453.000
3233.444,1437.000,1462.000,1439.000,1460.000,1463.000,1439.000,1431.000,1447.000,1463.000,1448.000
3236.090,1508.000,1494.000,1498.000,1526.000,1508.000,1479.000,1513.000,1508.000,1509.000,1501.000
3238.735,1544.000,1529.000,1497.000,1557.000,1529.000,1517.000,1509.000,1559.000,1503.000,1566.000
3241.379,1587.000,1606.000,1585.000,1598.000,1597.000,1581.000,1578.000,1581.000,1584.000,1586.000
3244.022,1621.000,1632.000,1631.000,1647.000,1629.000,1626.000,1663.000,1671.000,1638.000,1631.000
3246.666,1715.000,1708.000,1705.000,1700.000,1714.000,1712.000,1721.000,1687.000,1698.000,1714.000
3249.307,1789.000,1812.000,1768.000,1776.000,1786.000,1768.000,1775.000,1742.000,1783.000,1761.000
3251.948,1846.000,1871.000,1859.000,1867.000,1860.000,1848.000,1832.000,1860.000,1869.000,1845.000
3254.587,1943.000,1916.000,1925.000,1937.000,1944.000,1924.000,1876.000,1960.000,1940.000,1985.000
3257.226,1988.000,2073.000,2032.000,2048.000,2008.000,1991.000,2012.000,1988.000,2011.000,1979.000
3259.864,2092.000,2157.000,2164.000,2152.000,2124.000,2141.000,2153.000,2162.000,2093.000,2148.000
3262.502,2184.000,2277.000,2234.000,2247.000,2283.000,2252.000,2216.000,2246.000,2251.000,2211.000
3265.138,2344.000,2318.000,2288.000,2390.000,2343.000,2327.000,2320.000,2320.000,2345.000,2347.000
3267.773,2474.000,2465.000,2501.000,2447.000,2459.000,2488.000,2431.000,2494.000,2438.000,2423.000
3270.408,2614.000,2644.000,2644.000,2647.000,2563.000,2658.000,2661.000,2612.000,2669.000,2625.000
3273.041,2721.000,3403.000,2753.000,2749.000,2781.000,2741.000,2721.000,2750.000,2720.000,2736.000
3275.674,2927.000,2947.000,2929.000,2944.000,2960.000,2945.000,2930.000,2944.000,2987.000,2908.000
3278.305,3037.000,3112.000,3045.000,3088.000,3102.000,3063.000,3074.000,3065.000,3083.000,3123.000
3280.937,3320.000,3281.000,3228.000,3257.000,3327.000,3327.000,3355.000,3287.000,3301.000,3328.000
3283.567,3482.000,3473.000,3509.000,3491.000,3473.000,3496.000,3552.000,3464.000,3461.000,3484.000
3286.196,3775.000,3814.000,3761.000,3822.000,3747.000,3779.000,3790.000,3818.000,3774.000,3757.000
3288.824,4077.000,4190.000,4142.000,4172.000,4149.000,4103.000,4113.000,4163.000,4084.000,4098.000
3291.451,4578.000,4619.000,4609.000,4558.000,4575.000,4603.000,4591.000,4626.000,4569.000,4577.000
3294.079,5123.000,5321.000,5205.000,5217.000,5132.000,5183.000,5161.000,5185.000,5254.000,5345.000
3296.704,5844.000,5944.000,5914.000,5921.000,5958.000,6021.000,5896.000,6027.000,5977.000,5896.000
3299.329,6787.000,6805.000,6873.000,6915.000,6853.000,6769.000,6838.000,6831.000,6871.000,6891.000
3301.952,7282.000,7301.000,7300.000,7302.000,7354.000,7299.000,7338.000,7392.000,7324.000,7399.000
3304.575,7354.000,7362.000,7373.000,7342.000,7330.000,7416.000,7298.000,7352.000,7261.000,7356.000
3307.197,6776.000,6969.000,6830.000,6802.000,6813.000,6835.000,6838.000,6950.000,6762.000,6877.000
3309.818,6210.000,6332.000,6230.000,6322.000,6324.000,6431.000,6304.000,6316.000,6245.000,6289.000
3312.439,5602.000,5660.000,5670.000,5650.000,5701.000,5687.000,5652.000,5736.000,5717.000,5584.000
3315.058,5106.000,5122.000,5149.000,5159.000,5176.000,5101.000,5142.000,5200.000,5155.000,5074.000
3317.676,4746.000,4778.000,4859.000,4852.000,4827.000,4839.000,4867.000,4734.000,4809.000,4831.000
3320.294,4469.000,4571.000,4461.000,4529.000,4520.000,4509.000,4472.000,4507.000,4562.000,4503.000
3322.910,4199.000,4280.000,4297.000,4272.000,4204.000,4170.000,4189.000,4256.000,4262.000,4181.000
3325.527,3977.000,3972.000,4052.000,4025.000,4039.000,3962.000,4074.000,3975.000,3986.000,4028.000
3328.142,3739.000,3743.000,3790.000,3789.000,3781.000,3754.000,3779.000,3787.000,3794.000,3741.000
3330.756,3395.000,3445.000,3423.000,3444.000,3469.000,3428.000,3483.000,3469.000,3453.000,3499.000
3333.369,3264.000,3251.000,3224.000,3254.000,3257.000,3276.000,3260.000,3251.000,3208.000,3248.000
3335.981,2967.000,2994.000,2966.000,3015.000,3009.000,3007.000,3036.000,3005.000,2970.000,2970.000
3338.592,2818.000,2823.000,2837.000,2836.000,2824.000,2800.000,2783.000,2863.000,2792.000,2815.000
3341.202,2664.000,2628.000,2702.000,2616.000,2633.000,2639.000,2614.000,2649.000,2626.000,2663.000
3343.813,2533.000,2505.000,2484.000,2512.000,2517.000,2523.000,2503.000,2556.000,2505.000,2581.000
3346.422,2346.000,2365.000,2324.000,2382.000,2342.000,2335.000,2346.000,2367.000,2387.000,2358.000
3349.029,2204.000,2270.000,2275.000,2283.000,3599.000,2268.000,2203.000,2266.000,2223.000,2246.000
3351.636,2134.000,2168.000,2165.000,2145.000,2157.000,2143.000,2173.000,2170.000,2118.000,2122.000
3354.242,2048.000,2071.000,2027.000,2033.000,2030.000,2039.000,2065.000,2035.000,2065.000,2073.000
3356.848,1926.000,1897.000,1952.000,1955.000,2551.000,1942.000,1990.000,1909.000,1958.000,1941.000
3359.453,1878.000,1844.000,1834.000,1889.000,1858.000,1859.000,1852.000,1837.000,1840.000,1843.000
3362.056,1814.000,1755.000,1795.000,1811.000,1824.000,1784.000,1793.000,1779.000,1799.000,1822.000
3364.658,1677.000,1695.000,1707.000,1723.000,1721.000,1695.000,1733.000,1755.000,1759.000,1699.000
3367.260,1614.000,1704.000,1660.000,1681.000,1663.000,1663.000,1648.000,1685.000,1705.000,1661.000
3369.860,1621.000,1604.000,1603.000,1577.000,1616.000,1633.000,1614.000,1600.000,1616.000,1620.000
3372.460,1548.000,1536.000,1576.000,1532.000,1551.000,1571.000,1536.000,1582.000,1584.000,1544.000
3375.060,1509.000,1515.000,1526.000,1482.000,1542.000,1504.000,1547.000,1514.000,1525.000,1545.000
3377.658,1496.000,1457.000,1484.000,1491.000,1477.000,1476.000,1476.000,1511.000,1470.000,1480.000
3380.256,1428.000,1448.000,1422.000,1437.000,1431.000,1430.000,1453.000,1429.000,1430.000,1442.000
3382.852,1404.000,1422.000,1406.000,1447.000,1414.000,1418.000,1410.000,1426.000,1407.000,1426.000
3385.447,1360.000,1423.000,1384.000,1382.000,1385.000,1359.000,1365.000,1377.000,1357.000,1373.000
3388.043,1312.000,1361.000,1347.000,1385.000,1353.000,1342.000,1368.000,1398.000,1364.000,1346.000
3390.637,1335.000,1334.000,1347.000,1353.000,1356.000,1327.000,1319.000,1317.000,1339.000,1329.000
3393.229,1307.000,1320.000,1302.000,1293.000,1318.000,1308.000,1335.000,1309.000,1293.000,1323.000
3395.821,1273.000,1306.000,1300.000,1291.000,1296.000,1288.000,1274.000,1271.000,1284.000,1305.000
3398.412,1255.000,1284.000,1262.000,1269.000,1250.000,1269.000,1278.000,1266.000,1263.000,1237.000
3401.002,1253.000,1276.000,1256.000,1232.000,1280.000,1262.000,1263.000,1255.000,1257.000,1267.000
3403.592,1243.000,1248.000,1211.000,1219.000,1232.000,1236.000,1235.000,1206.000,1200.000,1214.000
3406.182,1209.000,1226.000,1219.000,1237.000,1233.000,1235.000,1226.000,1250.000,1219.000,1231.000
3408.769,1208.000,1179.000,1218.000,1216.000,1220.000,1230.000,1214.000,1200.000,1213.000,1220.000
3411.356,1190.000,1172.000,1241.000,1199.000,1229.000,1217.000,1195.000,1212.000,1192.000,1197.000
3413.941,1173.000,1201.000,1214.000,1180.000,1208.000,1190.000,1183.000,1216.000,1194.000,1218.000
3416.526,1189.000,1144.000,1185.000,1163.000,1171.000,1188.000,1196.000,1188.000,1182.000,1172.000
3419.112,1154.000,1184.000,1172.000,1165.000,1164.000,1143.000,1163.000,1162.000,1187.000,1193.000
3421.695,1192.000,1151.000,1169.000,1154.000,1153.000,1144.000,1118.000,1141.000,1153.000,1168.000
3424.277,1149.000,1122.000,1175.000,1152.000,1186.000,1137.000,1188.000,1171.000,1159.000,1141.000
3426.859,1133.000,1153.000,1154.000,1155.000,1145.000,1154.000,1142.000,1113.000,1160.000,1136.000
3429.439,1161.000,1143.000,1141.000,1147.000,1139.000,1138.000,1133.000,1141.000,1131.000,1122.000
3432.019,1129.000,1147.000,1128.000,1147.000,1113.000,1128.000,1151.000,1142.000,1117.000,1147.000
3434.598,1131.000,1111.000,1147.000,1110.000,1136.000,1143.000,1148.000,1112.000,1126.000,1129.000
3437.177,1119.000,1099.000,1123.000,1107.000,1106.000,1114.000,1117.000,1120.000,1096.000,1115.000
3439.754,1084.000,1125.000,1115.000,1127.000,1107.000,1119.000,1097.000,1099.000,1117.000,1124.000
3442.331,1096.000,1097.000,1110.000,1092.000,1097.000,1108.000,1077.000,1118.000,1091.000,1095.000
3444.906,1097.000,1108.000,1122.000,1118.000,1085.000,1118.000,1107.000,1102.000,1106.000,1112.000
3447.481,1129.000,1086.000,1099.000,1092.000,1104.000,1107.000,1116.000,1113.000,1119.000,1107.000
3450.056,1100.000,1117.000,1094.000,1110.000,1073.000,1125.000,1099.000,1084.000,1094.000,1087.000
3452.628,1072.000,1079.000,1077.000,1085.000,1051.000,1095.000,1055.000,1082.000,1078.000,1100.000
3455.200,1088.000,1067.000,1104.000,1095.000,1063.000,1070.000,1095.000,1304.000,1067.000,1037.000
3457.771,1072.000,1063.000,1065.000,1075.000,1070.000,1061.000,1068.000,1106.000,1072.000,1054.000
3460.342,1047.000,1042.000,1021.000,1027.000,1048.000,1047.000,1049.000,1034.000,1069.000,1023.000
3462.911,1035.000,1038.000,1031.000,1047.000,1018.000,1043.000,1029.000,1037.000,1017.000,1046.000
3465.479,994.000,1023.000,1026.000,1022.000,1014.000,1026.000,1005.000,1019.000,1010.000,1043.000
3468.048,970.000,987.000,986.000,999.000,1018.000,1002.000,1000.000,1020.000,993.000,996.000
3470.615,993.000,983.000,993.000,990.000,1003.000,1003.000,995.000,977.000,993.000,977.000
3473.181,970.000,997.000,988.000,979.000,983.000,1006.000,986.000,991.000,970.000,978.000
3475.746,984.000,959.000,953.000,947.000,978.000,971.000,956.000,970.000,936.000,959.000
3478.310,949.000,947.000,951.000,956.000,946.000,968.000,955.000,963.000,935.000,967.000
3480.875,941.000,962.000,956.000,964.000,956.000,966.000,956.000,947.000,942.000,939.000
3483.438,933.000,974.000,940.000,1736.000,947.000,939.000,975.000,947.000,942.000,935.000
3485.999,954.000,954.000,940.000,957.000,943.000,925.000,931.000,947.000,953.000,963.000
3488.560,940.000,942.000,934.000,928.000,931.000,923.000,947.000,939.000,949.000,945.000
3491.120,929.000,931.000,924.000,920.000,927.000,935.000,928.000,924.000,923.000,911.000
3493.679,926.000,922.000,909.000,925.000,925.000,906.000,925.000,908.000,909.000,905.000
3496.237,924.000,926.000,927.000,915.000,922.000,922.000,915.000,918.000,909.000,912.000
3498.796,902.000,909.000,899.000,912.000,907.000,895.000,914.000,916.000,920.000,906.000
3501.352,890.000,912.000,889.000,908.000,890.000,914.000,915.000,919.000,893.000,918.000
3503.908,895.000,912.000,895.000,919.000,907.000,903.000,906.000,895.000,925.000,896.000
3506.463,879.000,892.000,919.000,895.000,902.000,894.000,910.000,891.000,912.000,910.000
3509.017,890.000,895.000,887.000,886.000,880.000,913.000,883.000,873.000,886.000,920.000
3511.570,867.000,1505.000,922.000,906.000,897.000,905.000,896.000,893.000,882.000,901.000
3514.123,865.000,872.000,885.000,913.000,894.000,874.000,876.000,885.000,867.000,891.000
3516.675,907.000,868.000,871.000,880.000,895.000,880.000,863.000,867.000,883.000,871.000
3519.225,881.000,883.000,878.000,874.000,874.000,894.000,875.000,888.000,863.000,848.000
3521.775,886.000,875.000,896.000,863.000,900.000,867.000,873.000,864.000,869.000,876.000
3524.324,850.000,865.000,873.000,871.000,870.000,884.000,878.000,888.000,861.000,869.000
3526.871,860.000,853.000,861.000,863.000,857.000,862.000,885.000,872.000,865.000,860.000
3529.420,865.000,861.000,863.000,865.000,850.000,832.000,865.000,867.000,849.000,845.000
3531.966,839.000,863.000,852.000,862.000,854.000,844.000,842.000,866.000,870.000,844.000
3534.512,843.000,865.000,856.000,862.000,857.000,850.000,860.000,861.000,837.000,850.000
3537.056,838.000,847.000,846.000,829.000,855.000,864.000,859.000,854.000,841.000,853.000
3539.600,851.000,858.000,849.000,852.000,844.000,863.000,842.000,840.000,843.000,846.000
3542.143,842.000,843.000,840.000,841.000,845.000,840.000,863.000,836.000,831.000,841.000
3544.686,838.000,824.000,829.000,842.000,838.000,833.000,849.000,828.000,848.000,863.000
3547.227,841.000,825.000,844.000,838.000,828.000,839.000,842.000,841.000,828.000,831.000
3549.768,821.000,838.000,844.000,831.000,821.000,825.000,837.000,835.000,826.000,825.000
3552.307,823.000,831.000,821.000,813.000,834.000,821.000,829.000,821.000,810.000,833.000
3554.846,838.000,836.000,822.000,821.000,835.000,845.000,829.000,826.000,827.000,831.000
3557.383,820.000,818.000,835.000,832.000,825.000,825.000,818.000,822.000,819.000,821.000
3559.922,830.000,811.000,834.000,816.000,836.000,832.000,830.000,814.000,821.000,821.000
3562.458,834.000,819.000,828.000,821.000,809.000,825.000,828.000,813.000,827.000,823.000
3564.993,811.000,822.000,819.000,804.000,798.000,822.000,812.000,815.000,833.000,824.000
3567.528,820.000,815.000,816.000,801.000,804.000,811.000,826.000,821.000,813.000,820.000
3570.061,809.000,813.000,814.000,826.000,837.000,818.000,812.000,804.000,809.000,816.000
3572.594,803.000,804.000,818.000,809.000,1369.000,790.000,813.000,811.000,805.000,800.000
3575.127,826.000,797.000,810.000,802.000,822.000,793.000,797.000,787.000,805.000,816.000
3577.658,813.000,806.000,806.000,831.000,815.000,811.000,818.000,804.000,819.000,829.000
3580.188,807.000,800.000,819.000,814.000,792.000,808.000,803.000,813.000,822.000,804.000
3582.718,805.000,817.000,798.000,811.000,806.000,811.000,804.000,813.000,809.000,797.000
3585.246,804.000,798.000,805.000,822.000,810.000,825.000,792.000,816.000,801.000,800.000
3587.774,806.000,807.000,810.000,817.000,799.000,802.000,801.000,790.000,810.000,807.000
3590.302,786.000,803.000,816.000,794.000,819.000,796.000,812.000,811.000,797.000,806.000
3592.828,811.000,822.000,809.000,823.000,822.000,815.000,801.000,826.000,811.000,787.000
3595.353,799.000,816.000,791.000,799.000,817.000,819.000,807.000,807.000,811.000,802.000
3597.877,800.000,787.000,821.000,827.000,805.000,798.000,819.000,809.000,808.000,807.000
3600.401,811.000,802.000,804.000,818.000,804.000,811.000,812.000,796.000,817.000,1692.000
3602.924,799.000,791.000,805.000,799.000,811.000,803.000,795.000,799.000,811.000,800.000
3605.447,802.000,813.000,806.000,806.000,930.000,812.000,804.000,800.000,791.000,804.000
3607.968,807.000,793.000,815.000,807.000,1659.000,803.000,817.000,808.000,803.000,798.000
3610.488,811.000,790.000,802.000,815.000,809.000,811.000,809.000,807.000,816.000,801.000
3613.007,805.000,812.000,817.000,806.000,806.000,791.000,812.000,816.000,811.000,800.000
3615.526,806.000,816.000,815.000,811.000,799.000,808.000,792.000,804.000,794.000,799.000
3618.043,795.000,817.000,802.000,815.000,804.000,818.000,816.000,804.000,793.000,802.000
3620.561,799.000,808.000,809.000,811.000,798.000,820.000,801.000,802.000,816.000,819.000
3623.077,813.000,811.000,809.000,801.000,803.000,821.000,804.000,801.000,811.000,801.000
3625.592,801.000,803.000,812.000,816.000,816.000,818.000,801.000,801.000,808.000,807.000
3628.107,799.000,803.000,826.000,813.000,810.000,804.000,817.000,812.000,811.000,823.000
3630.620,798.000,805.000,818.000,805.000,802.000,802.000,829.000,807.000,808.000,819.000
3633.133,826.000,823.000,810.000,806.000,827.000,800.000,818.000,827.000,818.000,825.000
3635.646,821.000,829.000,815.000,811.000,811.000,819.000,837.000,820.000,799.000,825.000
3638.157,822.000,819.000,828.000,843.000,843.000,815.000,805.000,817.000,824.000,804.000
3640.667,807.000,816.000,823.000,813.000,830.000,821.000,831.000,814.000,807.000,833.000
3643.176,833.000,822.000,819.000,826.000,822.000,834.000,833.000,815.000,812.000,826.000
3645.685,822.000,822.000,831.000,823.000,818.000,832.000,808.000,817.000,821.000,829.000
3648.192,825.000,824.000,820.000,830.000,811.000,811.000,821.000,809.000,822.000,843.000
3650.701,823.000,813.000,825.000,837.000,819.000,838.000,830.000,827.000,820.000,826.000
3653.206,826.000,835.000,840.000,823.000,820.000,826.000,840.000,831.000,820.000,829.000
3655.712,844.000,830.000,829.000,819.000,840.000,819.000,838.000,838.000,856.000,841.000
3658.216,830.000,831.000,836.000,841.000,841.000,839.000,825.000,841.000,830.000,843.000
3660.719,836.000,840.000,824.000,830.000,835.000,1146.000,839.000,832.000,840.000,840.000
3663.222,856.000,848.000,838.000,834.000,843.000,831.000,830.000,832.000,840.000,832.000
3665.725,851.000,835.000,841.000,846.000,844.000,846.000,845.000,848.000,862.000,851.000
3668.226,847.000,843.000,841.000,844.000,856.000,842.000,846.000,868.000,871.000,857.000
3670.726,869.000,866.000,852.000,859.000,858.000,863.000,863.000,855.000,846.000,873.000
3673.226,866.000,865.000,872.000,876.000,859.000,871.000,871.000,852.000,860.000,866.000
3675.724,884.000,874.000,867.000,871.000,891.000,884.000,880.000,856.000,860.000,880.000
3678.222,878.000,884.000,874.000,880.000,880.000,880.000,887.000,866.000,895.000,876.000
3680.720,896.000,872.000,878.000,877.000,884.000,878.000,879.000,875.000,875.000,867.000
3683.216,4528.000,877.000,881.000,877.000,876.000,876.000,893.000,876.000,892.000,896.000
3685.711,880.000,875.000,868.000,884.000,884.000,881.000,879.000,891.000,871.000,876.000
3688.206,879.000,858.000,861.000,872.000,858.000,866.000,868.000,875.000,866.000,868.000
3690.699,866.000,870.000,863.000,862.000,856.000,870.000,854.000,851.000,857.000,870.000
3693.192,856.000,872.000,860.000,840.000,867.000,858.000,865.000,865.000,864.000,868.000
3695.685,863.000,855.000,875.000,839.000,848.000,867.000,858.000,865.000,877.000,873.000
3698.177,872.000,866.000,870.000,862.000,861.000,887.000,859.000,859.000,858.000,865.000
3700.667,857.000,856.000,872.000,869.000,861.000,861.000,865.000,863.000,856.000,883.000
3703.156,873.000,871.000,857.000,868.000,872.000,858.000,857.000,857.000,887.000,859.000
3705.645,870.000,851.000,880.000,871.000,874.000,864.000,882.000,859.000,875.000,859.000
3708.133,861.000,868.000,870.000,863.000,860.000,854.000,866.000,876.000,849.000,846.000
3710.621,862.000,875.000,872.000,868.000,871.000,868.000,853.000,864.000,857.000,850.000
3713.107,849.000,855.000,863.000,870.000,840.000,866.000,830.000,861.000,853.000,847.000
3715.593,856.000,851.000,864.000,843.000,1603.000,855.000,860.000,863.000,864.000,857.000
3718.077,870.000,870.000,862.000,862.000,853.000,841.000,865.000,859.000,855.000,857.000
3720.561,848.000,820.000,863.000,859.000,839.000,839.000,844.000,855.000,860.000,841.000
3723.044,847.000,839.000,863.000,840.000,869.000,838.000,850.000,855.000,849.000,856.000
3725.527,833.000,846.000,856.000,843.000,849.000,851.000,853.000,848.000,855.000,858.000
3728.008,848.000,857.000,843.000,840.000,847.000,851.000,835.000,842.000,837.000,853.000
3730.489,842.000,848.000,842.000,841.000,841.000,851.000,855.000,854.000,831.000,852.000
3732.969,840.000,844.000,858.000,846.000,868.000,852.000,845.000,866.000,840.000,847.000
3735.447,851.000,854.000,849.000,863.000,851.000,857.000,844.000,839.000,851.000,861.000
3737.925,839.000,856.000,864.000,856.000,864.000,856.000,844.000,836.000,854.000,885.000
3740.404,840.000,864.000,846.000,848.000,859.000,848.000,861.000,841.000,842.000,854.000
3742.880,849.000,853.000,849.000,861.000,866.000,856.000,859.000,865.000,870.000,871.000
3745.356,862.000,865.000,862.000,872.000,862.000,870.000,869.000,851.000,876.000,860.000
3747.831,862.000,892.000,866.000,873.000,852.000,856.000,872.000,864.000,864.000,877.000
3750.304,883.000,848.000,875.000,855.000,851.000,853.000,860.000,880.000,864.000,874.000
3752.778,868.000,881.000,870.000,855.000,863.000,850.000,858.000,873.000,878.000,865.000
3755.251,870.000,869.000,872.000,877.000,886.000,858.000,874.000,871.000,866.000,847.000
3757.723,875.000,860.000,856.000,872.000,867.000,858.000,878.000,854.000,870.000,887.000
3760.193,867.000,883.000,860.000,860.000,880.000,874.000,872.000,884.000,865.000,880.000
3762.663,878.000,861.000,894.000,868.000,862.000,866.000,871.000,882.000,871.000,851.000
3765.132,858.000,882.000,872.000,867.000,859.000,863.000,893.000,878.000,879.000,858.000
3767.601,892.000,889.000,889.000,878.000,864.000,884.000,875.000,874.000,886.000,859.000
3770.069,868.000,894.000,876.000,890.000,875.000,864.000,889.000,889.000,859.000,862.000
3772.536,893.000,869.000,873.000,881.000,884.000,878.000,888.000,887.000,881.000,888.000
3775.002,875.000,876.000,881.000,889.000,895.000,893.000,900.000,899.000,890.000,887.000
3777.467,900.000,878.000,883.000,887.000,892.000,895.000,882.000,896.000,894.000,898.000
3779.931,905.000,904.000,879.000,888.000,887.000,884.000,888.000,910.000,892.000,882.000
3782.394,903.000,910.000,909.000,897.000,906.000,906.000,895.000,904.000,915.000,907.000
3784.858,911.000,903.000,895.000,903.000,888.000,894.000,895.000,900.000,905.000,911.000
3787.320,890.000,900.000,899.000,906.000,915.000,907.000,911.000,904.000,903.000,886.000
3789.781,910.000,909.000,901.000,895.000,895.000,896.000,912.000,908.000,928.000,903.000
3792.241,892.000,917.000,901.000,917.000,915.000,907.000,915.000,917.000,904.000,909.000
3794.701,908.000,908.000,914.000,902.000,923.000,941.000,905.000,907.000,907.000,895.000
3797.159,929.000,923.000,909.000,927.000,907.000,925.000,904.000,916.000,906.000,920.000
3799.618,907.000,920.000,929.000,3837.000,932.000,928.000,919.000,944.000,924.000,909.000
3802.075,920.000,916.000,927.000,993.000,931.000,932.000,921.000,930.000,923.000,937.000
3804.531,922.000,938.000,930.000,1059.000,939.000,935.000,943.000,934.000,933.000,942.000
3806.987,955.000,925.000,925.000,952.000,938.000,949.000,942.000,933.000,929.000,953.000
3809.441,942.000,943.000,964.000,951.000,955.000,963.000,948.000,944.000,956.000,927.000
3811.895,963.000,977.000,949.000,964.000,964.000,971.000,953.000,979.000,947.000,948.000
3814.349,967.000,999.000,968.000,966.000,977.000,965.000,963.000,957.000,982.000,963.000
3816.801,983.000,985.000,987.000,953.000,983.000,967.000,980.000,978.000,974.000,979.000
3819.252,979.000,970.000,986.000,976.000,995.000,968.000,978.000,988.000,967.000,966.000
3821.703,985.000,993.000,992.000,981.000,997.000,995.000,999.000,994.000,974.000,983.000
3824.153,982.000,1023.000,1009.000,1016.000,1015.000,1006.000,990.000,1005.000,1018.000,1022.000
3826.602,1016.000,1035.000,1034.000,1038.000,1015.000,1007.000,1011.000,1030.000,1028.000,1005.000
3829.051,1046.000,1040.000,1019.000,1035.000,1010.000,1044.000,1030.000,1057.000,1033.000,1027.000
3831.498,1058.000,1047.000,1049.000,1031.000,1066.000,1057.000,1046.000,1064.000,1067.000,1054.000
3833.945,1090.000,1089.000,1082.000,1084.000,1086.000,1082.000,1061.000,1075.000,1059.000,1056.000
3836.391,1089.000,1079.000,1083.000,1079.000,1091.000,1074.000,1101.000,1109.000,1086.000,1086.000
3838.835,1125.000,1130.000,1138.000,1119.000,1121.000,1131.000,1117.000,1111.000,1132.000,1142.000
3841.280,1143.000,1153.000,1151.000,1169.000,1130.000,1133.000,1151.000,1128.000,1163.000,1151.000
3843.724,1175.000,1163.000,1194.000,1184.000,1176.000,1177.000,1168.000,1158.000,1176.000,1152.000
3846.167,1206.000,1202.000,1232.000,1228.000,1214.000,1243.000,1234.000,1217.000,1226.000,1234.000
3848.608,1277.000,1287.000,1312.000,1277.000,1302.000,1296.000,1260.000,1274.000,1257.000,1270.000
3849.829,1331.000,1339.000,1317.000,1319.000,1322.000,1300.000,1327.000,1339.000,1324.000,1309.000