File: Raman/2022_11_26/Data/2022_11_26_Hagfish_Film_Unstreched_532nm_Pol_6mW_750mm_600gv_0wn_iDus_100s_10accum_Pos1.csv
-1054.088,691.000,690.000,700.000,689.000,701.000,700.000,700.000,707.000,684.000,682.000
-1049.746,698.000,694.000,704.000,703.000,689.000,699.000,690.000,687.000,702.000,695.000
-1045.406,693.000,702.000,697.000,699.000,694.000,692.000,688.000,696.000,690.000,696.000
-1041.068,700.000,703.000,692.000,700.000,702.000,697.000,696.000,701.000,699.000,693.000
-1036.731,697.000,703.000,697.000,775.000,697.000,705.000,691.000,711.000,691.000,704.000
-1032.397,704.000,703.000,699.000,699.000,704.000,700.000,691.000,693.000,701.000,695.000
-1028.063,705.000,696.000,696.000,700.000,691.000,697.000,693.000,688.000,697.000,699.000
-1023.733,699.000,696.000,687.000,876.000,699.000,699.000,702.000,694.000,694.000,699.000
-1019.403,715.000,699.000,699.000,706.000,692.000,695.000,698.000,693.000,710.000,699.000
-1015.077,700.000,695.000,694.000,697.000,711.000,700.000,699.000,693.000,702.000,696.000
-1010.751,699.000,704.000,711.000,700.000,708.000,686.000,698.000,716.000,698.000,693.000
-1006.429,698.000,703.000,695.000,703.000,699.000,701.000,697.000,695.000,710.000,700.000
-1002.107,697.000,703.000,714.000,717.000,698.000,709.000,696.000,703.000,712.000,697.000
-997.788,704.000,705.000,693.000,706.000,704.000,700.000,703.000,708.000,705.000,699.000
-993.469,692.000,712.000,706.000,705.000,703.000,699.000,701.000,699.000,702.000,703.000
-989.154,988.000,708.000,711.000,702.000,706.000,707.000,705.000,690.000,707.000,709.000
-984.840,706.000,705.000,707.000,706.000,711.000,699.000,713.000,703.000,711.000,712.000
-980.529,699.000,697.000,694.000,692.000,711.000,710.000,709.000,699.000,703.000,705.000
-976.218,702.000,714.000,712.000,713.000,699.000,705.000,698.000,699.000,705.000,699.000
-971.910,713.000,712.000,711.000,702.000,692.000,709.000,696.000,699.000,692.000,697.000
-967.603,701.000,700.000,714.000,703.000,707.000,710.000,695.000,704.000,704.000,699.000
-963.299,711.000,708.000,708.000,712.000,701.000,709.000,703.000,704.000,703.000,699.000
-958.996,700.000,701.000,698.000,706.000,707.000,707.000,707.000,701.000,699.000,706.000
-954.696,707.000,707.000,710.000,702.000,697.000,705.000,702.000,715.000,718.000,696.000
-950.397,705.000,700.000,707.000,705.000,718.000,706.000,716.000,695.000,709.000,718.000
-946.100,704.000,704.000,714.000,696.000,716.000,712.000,704.000,720.000,704.000,703.000
-941.805,701.000,712.000,714.000,715.000,715.000,706.000,704.000,707.000,1276.000,712.000
-937.512,713.000,698.000,709.000,714.000,706.000,707.000,699.000,714.000,708.000,705.000
-933.220,718.000,708.000,717.000,718.000,701.000,710.000,718.000,704.000,703.000,708.000
-928.931,715.000,708.000,708.000,716.000,712.000,690.000,714.000,717.000,712.000,717.000
-924.643,702.000,712.000,705.000,708.000,701.000,709.000,713.000,707.000,702.000,704.000
-920.358,708.000,706.000,707.000,711.000,721.000,705.000,711.000,717.000,700.000,707.000
-916.073,710.000,713.000,706.000,703.000,721.000,712.000,697.000,721.000,707.000,704.000
-911.792,719.000,702.000,711.000,714.000,703.000,712.000,717.000,715.000,709.000,717.000
-907.511,708.000,724.000,720.000,721.000,718.000,720.000,711.000,716.000,714.000,727.000
-903.233,716.000,723.000,716.000,1344.000,714.000,715.000,711.000,705.000,713.000,714.000
-898.956,713.000,708.000,715.000,719.000,713.000,709.000,705.000,718.000,712.000,710.000
-894.682,715.000,707.000,716.000,712.000,710.000,710.000,715.000,706.000,720.000,710.000
-890.409,716.000,703.000,714.000,717.000,711.000,712.000,712.000,695.000,716.000,705.000
-886.138,722.000,724.000,702.000,715.000,721.000,716.000,714.000,728.000,716.000,725.000
-881.869,717.000,721.000,708.000,714.000,715.000,719.000,717.000,704.000,715.000,715.000
-877.602,712.000,727.000,724.000,712.000,712.000,713.000,717.000,714.000,710.000,715.000
-873.336,721.000,717.000,727.000,725.000,730.000,716.000,721.000,721.000,725.000,720.000
-869.073,2646.000,729.000,707.000,717.000,714.000,727.000,700.000,710.000,728.000,720.000
-864.811,727.000,724.000,717.000,723.000,729.000,724.000,716.000,718.000,733.000,719.000
-860.552,724.000,724.000,732.000,711.000,714.000,714.000,715.000,720.000,712.000,724.000
-856.293,717.000,718.000,720.000,709.000,730.000,721.000,713.000,727.000,722.000,719.000
-852.038,721.000,708.000,718.000,716.000,718.000,716.000,715.000,723.000,727.000,724.000
-847.783,716.000,719.000,720.000,715.000,727.000,714.000,716.000,723.000,728.000,716.000
-843.531,728.000,735.000,717.000,728.000,716.000,734.000,727.000,723.000,728.000,715.000
-839.280,730.000,719.000,736.000,725.000,720.000,720.000,717.000,718.000,717.000,732.000
-835.032,722.000,710.000,725.000,728.000,724.000,722.000,720.000,717.000,719.000,728.000
-830.784,730.000,726.000,729.000,721.000,732.000,714.000,727.000,718.000,725.000,736.000
-826.540,726.000,713.000,718.000,724.000,723.000,725.000,727.000,735.000,720.000,720.000
-822.296,742.000,733.000,720.000,727.000,731.000,723.000,727.000,733.000,729.000,725.000
-818.055,736.000,736.000,729.000,727.000,732.000,725.000,711.000,723.000,725.000,746.000
-813.815,731.000,724.000,727.000,736.000,720.000,736.000,717.000,718.000,728.000,727.000
-809.578,736.000,737.000,730.000,727.000,718.000,727.000,731.000,739.000,724.000,727.000
-805.341,726.000,730.000,733.000,731.000,725.000,728.000,727.000,740.000,728.000,729.000
-801.108,732.000,741.000,717.000,725.000,716.000,729.000,719.000,729.000,721.000,728.000
-796.875,727.000,730.000,734.000,738.000,735.000,719.000,733.000,733.000,731.000,729.000
-792.645,731.000,737.000,722.000,712.000,729.000,733.000,737.000,736.000,723.000,737.000
-788.416,735.000,734.000,730.000,731.000,718.000,732.000,728.000,722.000,739.000,732.000
-784.190,722.000,728.000,740.000,716.000,726.000,732.000,722.000,727.000,725.000,746.000
-779.964,727.000,732.000,735.000,737.000,728.000,735.000,734.000,724.000,733.000,724.000
-775.742,735.000,726.000,732.000,735.000,730.000,732.000,738.000,732.000,728.000,728.000
-771.520,741.000,732.000,739.000,734.000,745.000,735.000,729.000,733.000,743.000,727.000
-767.301,724.000,732.000,728.000,743.000,725.000,737.000,735.000,741.000,738.000,733.000
-763.083,730.000,743.000,734.000,742.000,739.000,738.000,731.000,729.000,747.000,736.000
-758.867,742.000,732.000,730.000,726.000,722.000,741.000,728.000,730.000,726.000,731.000
-754.653,743.000,735.000,737.000,727.000,740.000,729.000,735.000,728.000,740.000,738.000
-750.441,744.000,1800.000,745.000,739.000,734.000,730.000,742.000,740.000,728.000,721.000
-746.230,738.000,737.000,734.000,742.000,740.000,743.000,719.000,735.000,738.000,742.000
-742.022,748.000,746.000,733.000,731.000,733.000,738.000,737.000,753.000,742.000,738.000
-737.815,736.000,741.000,743.000,748.000,743.000,735.000,734.000,737.000,747.000,726.000
-733.610,741.000,732.000,745.000,748.000,744.000,748.000,755.000,739.000,732.000,741.000
-729.407,750.000,755.000,750.000,745.000,743.000,744.000,735.000,740.000,747.000,745.000
-725.205,760.000,735.000,749.000,754.000,739.000,744.000,731.000,751.000,748.000,737.000
-721.007,747.000,735.000,765.000,727.000,729.000,745.000,739.000,742.000,739.000,740.000
-716.808,733.000,748.000,739.000,731.000,738.000,733.000,738.000,730.000,742.000,740.000
-712.612,735.000,728.000,747.000,751.000,740.000,738.000,740.000,730.000,755.000,739.000
-708.417,739.000,751.000,746.000,756.000,741.000,744.000,740.000,750.000,748.000,738.000
-704.227,740.000,742.000,749.000,750.000,751.000,739.000,735.000,751.000,743.000,761.000
-700.036,744.000,734.000,743.000,754.000,751.000,746.000,756.000,745.000,736.000,747.000
-695.846,751.000,749.000,750.000,735.000,741.000,750.000,752.000,746.000,756.000,731.000
-691.659,752.000,741.000,735.000,750.000,749.000,747.000,747.000,752.000,747.000,740.000
-687.475,748.000,756.000,739.000,746.000,754.000,739.000,746.000,750.000,744.000,756.000
-683.292,747.000,754.000,743.000,755.000,752.000,746.000,752.000,740.000,754.000,755.000
-679.109,741.000,745.000,758.000,744.000,741.000,750.000,744.000,753.000,747.000,737.000
-674.929,744.000,758.000,743.000,748.000,758.000,755.000,735.000,751.000,756.000,750.000
-670.753,759.000,758.000,744.000,753.000,748.000,759.000,745.000,758.000,749.000,748.000
-666.576,763.000,745.000,749.000,755.000,749.000,739.000,749.000,735.000,748.000,748.000
-662.401,767.000,752.000,744.000,755.000,748.000,747.000,744.000,741.000,751.000,754.000
-658.228,754.000,760.000,756.000,763.000,747.000,754.000,753.000,747.000,746.000,755.000
-654.059,767.000,753.000,743.000,753.000,766.000,754.000,746.000,746.000,760.000,746.000
-649.889,767.000,757.000,746.000,757.000,758.000,747.000,762.000,763.000,755.000,747.000
-645.722,749.000,754.000,765.000,747.000,754.000,755.000,754.000,767.000,747.000,758.000
-641.556,761.000,755.000,759.000,755.000,758.000,758.000,756.000,765.000,746.000,745.000
-637.394,767.000,757.000,759.000,766.000,757.000,771.000,761.000,755.000,750.000,753.000
-633.231,766.000,768.000,757.000,762.000,761.000,751.000,757.000,763.000,744.000,762.000
-629.071,749.000,763.000,755.000,766.000,769.000,773.000,748.000,760.000,771.000,747.000
-624.912,754.000,765.000,752.000,762.000,773.000,767.000,765.000,762.000,765.000,755.000
-620.757,759.000,751.000,767.000,754.000,762.000,773.000,756.000,754.000,751.000,755.000
-616.602,765.000,766.000,752.000,758.000,753.000,774.000,763.000,770.000,760.000,757.000
-612.448,759.000,758.000,757.000,770.000,765.000,769.000,766.000,747.000,778.000,759.000
-608.297,763.000,763.000,775.000,773.000,763.000,769.000,757.000,753.000,770.000,759.000
-604.149,781.000,770.000,775.000,767.000,765.000,773.000,767.000,761.000,780.000,770.000
-600.001,764.000,764.000,767.000,769.000,768.000,762.000,768.000,758.000,754.000,756.000
-595.854,767.000,764.000,770.000,767.000,766.000,767.000,753.000,770.000,767.000,769.000
-591.710,762.000,766.000,757.000,769.000,757.000,760.000,771.000,767.000,749.000,764.000
-587.569,768.000,775.000,768.000,764.000,771.000,773.000,770.000,769.000,767.000,754.000
-583.428,776.000,767.000,764.000,767.000,778.000,765.000,759.000,771.000,768.000,769.000
-579.289,778.000,777.000,754.000,764.000,770.000,773.000,773.000,764.000,779.000,767.000
-575.151,772.000,766.000,767.000,773.000,771.000,766.000,771.000,761.000,757.000,764.000
-571.017,781.000,783.000,786.000,764.000,780.000,782.000,771.000,757.000,766.000,761.000
-566.883,781.000,771.000,777.000,782.000,768.000,765.000,772.000,778.000,776.000,756.000
-562.751,782.000,779.000,779.000,781.000,788.000,767.000,778.000,767.000,779.000,772.000
-558.621,780.000,781.000,779.000,765.000,768.000,780.000,772.000,781.000,767.000,770.000
-554.494,779.000,776.000,766.000,784.000,784.000,781.000,787.000,776.000,771.000,780.000
-550.367,795.000,785.000,778.000,771.000,780.000,776.000,774.000,786.000,777.000,773.000
-546.242,794.000,788.000,786.000,786.000,779.000,779.000,787.000,794.000,784.000,764.000
-542.118,783.000,795.000,774.000,796.000,782.000,768.000,783.000,776.000,780.000,765.000
-537.999,783.000,786.000,798.000,783.000,782.000,780.000,780.000,788.000,771.000,787.000
-533.879,794.000,807.000,794.000,788.000,788.000,791.000,793.000,782.000,775.000,779.000
-529.761,776.000,782.000,790.000,779.000,776.000,767.000,778.000,782.000,783.000,791.000
-525.644,791.000,802.000,800.000,785.000,782.000,783.000,777.000,795.000,780.000,792.000
-521.532,786.000,777.000,785.000,780.000,795.000,783.000,780.000,801.000,778.000,772.000
-517.419,798.000,800.000,791.000,785.000,790.000,773.000,772.000,786.000,796.000,785.000
-513.308,797.000,805.000,794.000,795.000,795.000,803.000,791.000,780.000,778.000,792.000
-509.198,785.000,794.000,792.000,778.000,797.000,788.000,785.000,799.000,776.000,781.000
-505.093,808.000,790.000,808.000,774.000,807.000,793.000,804.000,795.000,795.000,779.000
-500.987,793.000,805.000,796.000,793.000,809.000,810.000,779.000,795.000,802.000,800.000
-496.883,785.000,785.000,795.000,804.000,800.000,786.000,775.000,795.000,786.000,790.000
-492.780,804.000,797.000,818.000,789.000,796.000,805.000,791.000,811.000,796.000,790.000
-488.682,1175.000,793.000,814.000,797.000,803.000,805.000,788.000,797.000,800.000,796.000
-484.583,788.000,804.000,792.000,799.000,801.000,803.000,786.000,802.000,803.000,792.000
-480.486,803.000,812.000,801.000,808.000,795.000,802.000,801.000,800.000,799.000,800.000
-476.390,825.000,804.000,806.000,813.000,798.000,799.000,793.000,797.000,809.000,792.000
-472.299,830.000,807.000,810.000,803.000,810.000,809.000,805.000,807.000,803.000,799.000
-468.207,2008.000,819.000,823.000,812.000,815.000,815.000,812.000,813.000,812.000,805.000
-464.116,820.000,805.000,806.000,812.000,809.000,811.000,811.000,806.000,808.000,802.000
-460.028,817.000,808.000,800.000,806.000,812.000,818.000,803.000,806.000,794.000,816.000
-455.943,803.000,827.000,814.000,812.000,807.000,817.000,799.000,793.000,814.000,800.000
-451.858,811.000,823.000,818.000,792.000,793.000,806.000,797.000,800.000,827.000,802.000
-447.775,808.000,817.000,810.000,812.000,832.000,814.000,827.000,800.000,818.000,811.000
-443.693,806.000,809.000,828.000,807.000,822.000,805.000,823.000,813.000,828.000,810.000
-439.616,830.000,801.000,821.000,811.000,828.000,812.000,804.000,813.000,806.000,814.000
-435.538,823.000,820.000,825.000,820.000,822.000,829.000,815.000,817.000,840.000,830.000
-431.461,831.000,822.000,827.000,812.000,809.000,833.000,803.000,808.000,811.000,821.000
-427.386,832.000,821.000,818.000,827.000,827.000,822.000,819.000,801.000,814.000,810.000
-423.316,817.000,818.000,812.000,826.000,832.000,832.000,795.000,815.000,827.000,831.000
-419.244,839.000,815.000,823.000,814.000,824.000,820.000,832.000,815.000,811.000,818.000
-415.175,825.000,822.000,824.000,830.000,838.000,822.000,828.000,822.000,808.000,805.000
-411.107,819.000,832.000,829.000,808.000,843.000,823.000,846.000,821.000,821.000,817.000
-407.043,850.000,834.000,827.000,814.000,831.000,826.000,836.000,821.000,828.000,827.000
-402.979,824.000,846.000,841.000,819.000,845.000,817.000,832.000,835.000,807.000,834.000
-398.916,831.000,843.000,842.000,831.000,821.000,810.000,818.000,828.000,826.000,812.000
-394.855,831.000,820.000,825.000,826.000,846.000,828.000,818.000,820.000,828.000,820.000
-390.799,831.000,834.000,832.000,827.000,843.000,828.000,837.000,841.000,836.000,831.000
-386.741,831.000,841.000,837.000,834.000,823.000,831.000,835.000,832.000,830.000,828.000
-382.685,851.000,815.000,842.000,835.000,824.000,833.000,823.000,827.000,827.000,835.000
-378.631,832.000,856.000,831.000,851.000,841.000,832.000,845.000,817.000,825.000,850.000
-374.581,838.000,829.000,831.000,837.000,836.000,838.000,843.000,819.000,840.000,815.000
-370.531,839.000,854.000,850.000,850.000,828.000,828.000,820.000,857.000,833.000,833.000
-366.482,847.000,853.000,835.000,833.000,843.000,843.000,844.000,863.000,843.000,832.000
-362.434,851.000,821.000,845.000,838.000,851.000,840.000,844.000,847.000,848.000,852.000
-358.391,853.000,838.000,850.000,860.000,845.000,849.000,837.000,862.000,843.000,829.000
-354.347,849.000,846.000,869.000,848.000,861.000,858.000,867.000,836.000,859.000,844.000
-350.305,863.000,839.000,862.000,858.000,863.000,847.000,861.000,843.000,841.000,848.000
-346.265,856.000,863.000,866.000,861.000,876.000,854.000,852.000,861.000,851.000,852.000
-342.229,881.000,871.000,853.000,866.000,864.000,855.000,853.000,868.000,855.000,857.000
-338.192,865.000,885.000,836.000,859.000,867.000,862.000,852.000,882.000,845.000,860.000
-334.156,900.000,858.000,866.000,875.000,873.000,870.000,860.000,871.000,873.000,863.000
-330.123,886.000,873.000,882.000,866.000,883.000,888.000,876.000,859.000,886.000,882.000
-326.093,873.000,868.000,879.000,873.000,883.000,868.000,875.000,861.000,875.000,851.000
-322.063,888.000,878.000,893.000,895.000,897.000,887.000,874.000,869.000,880.000,882.000
-318.035,897.000,887.000,875.000,896.000,875.000,880.000,878.000,869.000,859.000,883.000
-314.008,876.000,875.000,876.000,878.000,895.000,875.000,892.000,874.000,899.000,873.000
-309.985,871.000,893.000,885.000,912.000,893.000,916.000,895.000,881.000,901.000,877.000
-305.962,912.000,889.000,895.000,885.000,888.000,891.000,883.000,882.000,917.000,872.000
-301.940,908.000,884.000,896.000,910.000,919.000,903.000,905.000,882.000,909.000,883.000
-297.920,925.000,894.000,892.000,930.000,921.000,900.000,897.000,888.000,906.000,907.000
-293.904,906.000,894.000,901.000,894.000,886.000,916.000,902.000,901.000,901.000,912.000
-289.887,921.000,909.000,920.000,911.000,903.000,917.000,889.000,933.000,901.000,919.000
-285.872,903.000,951.000,921.000,912.000,933.000,921.000,925.000,914.000,904.000,915.000
-281.859,922.000,913.000,915.000,904.000,932.000,1313.000,921.000,930.000,917.000,937.000
-277.850,950.000,968.000,944.000,944.000,956.000,925.000,943.000,946.000,959.000,934.000
-273.840,959.000,946.000,961.000,942.000,945.000,962.000,930.000,935.000,940.000,944.000
-269.832,966.000,955.000,955.000,948.000,949.000,944.000,941.000,967.000,953.000,943.000
-265.825,964.000,976.000,969.000,949.000,980.000,982.000,950.000,966.000,942.000,968.000
-261.823,980.000,958.000,966.000,954.000,959.000,988.000,961.000,960.000,975.000,947.000
-257.820,961.000,952.000,974.000,977.000,971.000,967.000,981.000,957.000,973.000,952.000
-253.818,977.000,984.000,982.000,1010.000,967.000,990.000,975.000,959.000,958.000,979.000
-249.818,990.000,953.000,968.000,974.000,959.000,994.000,977.000,983.000,980.000,966.000
-245.822,1001.000,1005.000,1011.000,1001.000,1006.000,976.000,974.000,984.000,999.000,990.000
-241.826,1042.000,976.000,1022.000,1019.000,1000.000,1002.000,996.000,997.000,1015.000,1025.000
-237.831,1003.000,1003.000,999.000,1014.000,1010.000,1029.000,984.000,1013.000,979.000,990.000
-233.838,1022.000,1023.000,1023.000,1002.000,1010.000,1025.000,1003.000,1012.000,1005.000,1019.000
-229.849,1034.000,1040.000,1032.000,1027.000,1029.000,1031.000,1035.000,1027.000,1013.000,1027.000
-225.859,1038.000,1050.000,1015.000,1008.000,1043.000,1045.000,1041.000,1032.000,1026.000,1026.000
-221.871,1051.000,1056.000,1061.000,1063.000,1066.000,1050.000,1071.000,1017.000,1052.000,1032.000
-217.885,1075.000,1076.000,1048.000,1068.000,1077.000,1061.000,1057.000,1052.000,1027.000,1065.000
-213.903,1057.000,1069.000,1058.000,1047.000,1064.000,1060.000,1068.000,1043.000,1046.000,1070.000
-209.920,1083.000,1092.000,1080.000,1062.000,1086.000,1071.000,1089.000,1097.000,1075.000,1088.000
-205.938,1104.000,1078.000,1101.000,1069.000,1094.000,1077.000,1078.000,1096.000,1084.000,1050.000
-201.959,1101.000,1082.000,1113.000,1062.000,1094.000,1096.000,1088.000,1093.000,1087.000,1075.000
-197.983,1112.000,1111.000,1093.000,1124.000,1117.000,1147.000,1140.000,1103.000,1113.000,1110.000
-194.006,1124.000,1123.000,1087.000,1087.000,1139.000,1113.000,1104.000,1116.000,1133.000,1114.000
-190.032,1134.000,1115.000,1108.000,1120.000,1138.000,1131.000,1143.000,1136.000,1114.000,1112.000
-186.059,1166.000,1170.000,1162.000,1147.000,1172.000,1135.000,1159.000,1129.000,1151.000,1127.000
-182.090,1175.000,1163.000,1177.000,1170.000,1139.000,1206.000,1182.000,1175.000,1172.000,1170.000
-178.120,1210.000,1188.000,1195.000,1174.000,1183.000,1181.000,1170.000,1186.000,1189.000,1185.000
-174.152,1221.000,1250.000,1240.000,1219.000,1259.000,1172.000,1216.000,1218.000,1204.000,1225.000
-170.185,1237.000,1242.000,1239.000,1192.000,1221.000,1251.000,1218.000,1191.000,1218.000,1232.000
-166.223,1280.000,1265.000,1271.000,1227.000,1250.000,1259.000,1251.000,1242.000,1251.000,1218.000
-162.260,1291.000,1305.000,1296.000,1297.000,1291.000,1287.000,1288.000,1321.000,1313.000,1294.000
-158.298,1331.000,1324.000,1337.000,1309.000,1314.000,1325.000,1287.000,1317.000,1282.000,1287.000
-154.339,1372.000,1353.000,1338.000,1314.000,1368.000,1383.000,1366.000,1349.000,1344.000,1335.000
-150.383,1423.000,1421.000,1402.000,1416.000,1399.000,1415.000,1386.000,1398.000,1426.000,1403.000
-146.426,1449.000,1442.000,1422.000,1426.000,1417.000,1436.000,1411.000,1447.000,1395.000,1439.000
-142.472,1483.000,1504.000,1458.000,1502.000,1475.000,1512.000,1513.000,1494.000,1505.000,1496.000
-138.518,1563.000,1554.000,1568.000,1515.000,1527.000,1549.000,1532.000,1526.000,1514.000,1549.000
-134.569,1587.000,1623.000,1599.000,1616.000,1603.000,1598.000,1583.000,1601.000,1578.000,1561.000
-130.619,1690.000,1680.000,1679.000,1698.000,1702.000,1669.000,1684.000,1676.000,1675.000,1681.000
-126.671,1784.000,1776.000,1734.000,1785.000,1746.000,1729.000,1691.000,1702.000,1737.000,1732.000
-122.724,1783.000,1802.000,1845.000,1805.000,1820.000,1786.000,1799.000,1754.000,1774.000,1796.000
-118.782,1910.000,1906.000,1896.000,1846.000,1911.000,1894.000,1950.000,1889.000,1935.000,1884.000
-114.838,1969.000,1965.000,1951.000,1917.000,1995.000,1975.000,1923.000,1968.000,1933.000,1959.000
-110.897,2074.000,2036.000,2011.000,2031.000,2025.000,1989.000,1996.000,2023.000,2009.000,2000.000
-106.957,2197.000,2193.000,2153.000,2189.000,2208.000,2219.000,2183.000,2188.000,2153.000,2145.000
-103.021,2272.000,2273.000,2325.000,2280.000,2242.000,2240.000,2248.000,2267.000,2264.000,2256.000
-99.084,2422.000,2397.000,2378.000,2348.000,2306.000,2353.000,2370.000,2365.000,2378.000,2303.000
-95.149,2623.000,2524.000,2512.000,2549.000,2567.000,2573.000,2507.000,2512.000,2561.000,2543.000
-91.216,2659.000,2602.000,2653.000,2645.000,2654.000,2640.000,2596.000,2621.000,2638.000,2637.000
-87.286,2824.000,2824.000,2772.000,2779.000,2774.000,2786.000,2756.000,2732.000,2745.000,2731.000
-83.356,2969.000,3009.000,2984.000,2961.000,2966.000,3005.000,2931.000,2908.000,2966.000,2989.000
-79.427,3132.000,3025.000,3032.000,3019.000,3002.000,3096.000,3040.000,3042.000,3034.000,2976.000
-75.500,3205.000,3257.000,3186.000,3171.000,3202.000,3151.000,3175.000,3187.000,3175.000,3151.000
-71.577,3352.000,3359.000,3377.000,3376.000,3404.000,3359.000,3400.000,3321.000,3381.000,3341.000
-67.654,3425.000,3513.000,3482.000,3436.000,3463.000,3451.000,3442.000,3417.000,3466.000,3423.000
-63.732,3647.000,3652.000,3654.000,3604.000,3600.000,3587.000,3565.000,3609.000,3639.000,3578.000
-59.811,3778.000,3798.000,3807.000,3713.000,3866.000,3780.000,3795.000,3741.000,3793.000,3820.000
-55.895,3835.000,3861.000,3865.000,3802.000,3806.000,3766.000,3738.000,3829.000,3803.000,3801.000
-51.978,4059.000,4057.000,4034.000,4019.000,4040.000,3984.000,4000.000,3944.000,3985.000,3910.000
-48.062,4181.000,4164.000,4154.000,4149.000,4153.000,4123.000,4116.000,4139.000,4077.000,4125.000
-44.149,4263.000,4208.000,4295.000,4137.000,4216.000,4198.000,4195.000,4150.000,4113.000,4122.000
-40.239,4419.000,4454.000,4465.000,4421.000,4393.000,4404.000,4375.000,4409.000,4314.000,4384.000
-36.328,4616.000,4596.000,4537.000,4574.000,4551.000,4539.000,4471.000,4537.000,4497.000,4562.000
-32.419,4665.000,4628.000,4672.000,4595.000,4605.000,4569.000,4635.000,4631.000,4682.000,4671.000
-28.512,4908.000,4969.000,5009.000,5303.000,4977.000,4832.000,4926.000,4943.000,4935.000,4931.000
-24.608,5068.000,5038.000,5131.000,5045.000,4968.000,5020.000,4954.000,4995.000,5018.000,5023.000
-20.704,5073.000,5078.000,5036.000,5046.000,5089.000,5109.000,5034.000,5043.000,5064.000,5036.000
-16.801,5285.000,5185.000,5271.000,5307.000,5197.000,5236.000,5211.000,5202.000,5356.000,5259.000
-12.901,5372.000,5226.000,5235.000,5203.000,5191.000,5270.000,5214.000,5184.000,5214.000,5133.000
-9.004,4949.000,4962.000,5023.000,4882.000,5027.000,5075.000,4945.000,4950.000,4958.000,5022.000
-5.106,4934.000,4901.000,4942.000,4964.000,4913.000,4927.000,4912.000,4843.000,4967.000,4898.000
-1.210,2916.000,2925.000,2935.000,2989.000,2902.000,2948.000,2902.000,2895.000,2880.000,2932.000
2.685,2527.000,2523.000,2483.000,2446.000,2515.000,2494.000,2432.000,2499.000,2510.000,2532.000
6.575,3619.000,3595.000,3571.000,3406.000,3455.000,3418.000,3450.000,3324.000,3284.000,3292.000
10.466,4652.000,4731.000,4674.000,4611.000,4616.000,4626.000,4625.000,4653.000,4639.000,4666.000
14.356,4739.000,4720.000,4666.000,4653.000,4670.000,4614.000,4693.000,4688.000,4687.000,4715.000
18.244,5085.000,5094.000,5103.000,5010.000,5026.000,5036.000,5041.000,5026.000,5075.000,5015.000
22.128,5368.000,5366.000,5355.000,5240.000,5313.000,5297.000,5371.000,5231.000,5305.000,5299.000
26.013,5583.000,5554.000,5534.000,5442.000,5465.000,5503.000,5469.000,5505.000,5473.000,5492.000
29.896,5787.000,5821.000,5850.000,5744.000,5693.000,5703.000,5682.000,5858.000,5804.000,5737.000
33.777,5656.000,5646.000,5711.000,5633.000,5643.000,5664.000,5620.000,5609.000,5663.000,5632.000
37.655,5541.000,5527.000,5480.000,5384.000,5408.000,5422.000,5446.000,5411.000,5453.000,5426.000
41.533,5617.000,5596.000,5583.000,5478.000,5532.000,5588.000,5557.000,5548.000,5540.000,5456.000
45.410,5290.000,5331.000,5234.000,5256.000,5208.000,5256.000,5173.000,5257.000,5261.000,5133.000
49.285,5159.000,5320.000,5234.000,5180.000,5109.000,5204.000,5082.000,5129.000,5152.000,5194.000
53.157,5228.000,5211.000,5188.000,5141.000,5130.000,5146.000,5172.000,5117.000,5178.000,5131.000
57.029,5019.000,5027.000,5003.000,4986.000,4955.000,4902.000,4995.000,4991.000,4958.000,4918.000
60.899,4873.000,4969.000,4924.000,4892.000,4864.000,4829.000,4845.000,4806.000,4812.000,4835.000
64.768,5028.000,5036.000,4968.000,5005.000,5082.000,4955.000,5007.000,4902.000,4953.000,4963.000
68.633,4755.000,4700.000,4747.000,4647.000,4704.000,4625.000,4671.000,4627.000,4664.000,4711.000
72.498,4664.000,4789.000,4691.000,4723.000,4658.000,4580.000,4646.000,4627.000,4652.000,4735.000
76.362,4744.000,4666.000,4684.000,4715.000,4691.000,4633.000,4623.000,4615.000,4622.000,4710.000
80.224,4469.000,4558.000,4470.000,4477.000,4394.000,4465.000,4463.000,4476.000,4385.000,4402.000
84.083,4315.000,4334.000,4286.000,4333.000,4384.000,4336.000,4370.000,4339.000,4286.000,4334.000
87.942,4340.000,4356.000,4324.000,4274.000,4287.000,4285.000,4295.000,4321.000,4322.000,4308.000
91.800,4048.000,4069.000,4005.000,3957.000,4071.000,3967.000,4013.000,4005.000,3944.000,3981.000
95.656,3964.000,3989.000,3960.000,3927.000,4039.000,4001.000,4010.000,3912.000,3929.000,3907.000
99.508,3863.000,3896.000,3846.000,3814.000,3841.000,3822.000,3870.000,3838.000,3898.000,3811.000
103.361,3613.000,3561.000,3585.000,3642.000,3552.000,3554.000,3603.000,3544.000,3605.000,3508.000
107.212,3522.000,3513.000,3480.000,3474.000,3466.000,3469.000,3430.000,3443.000,3561.000,3525.000
111.061,3495.000,3436.000,3420.000,3374.000,3436.000,3425.000,3369.000,3426.000,3433.000,3325.000
114.907,3226.000,3189.000,3229.000,3184.000,3120.000,3164.000,3117.000,3130.000,3102.000,3121.000
118.754,3172.000,3110.000,3138.000,3039.000,3108.000,3015.000,3089.000,3094.000,3093.000,3021.000
122.599,3031.000,3032.000,3021.000,2959.000,2996.000,2973.000,2969.000,3005.000,3051.000,2998.000
126.442,2864.000,2857.000,2800.000,2850.000,2822.000,2842.000,2804.000,2765.000,2802.000,2763.000
130.281,2815.000,2747.000,2787.000,2672.000,2754.000,2762.000,2721.000,2734.000,2761.000,2747.000
134.122,2715.000,2636.000,2650.000,2647.000,2653.000,2672.000,2674.000,2676.000,2631.000,2639.000
137.960,2527.000,2485.000,2561.000,2542.000,2483.000,2515.000,2469.000,2452.000,2514.000,2508.000
141.797,2463.000,2513.000,2472.000,2426.000,2451.000,2482.000,2456.000,2405.000,2439.000,2416.000
145.630,2367.000,2392.000,2384.000,2348.000,2390.000,2367.000,2365.000,2348.000,2385.000,2397.000
149.464,2219.000,2208.000,2206.000,2227.000,2215.000,2196.000,2246.000,2224.000,2257.000,2216.000
153.296,2209.000,2201.000,2197.000,2152.000,2184.000,2179.000,2211.000,2183.000,2189.000,2108.000
157.127,2109.000,2132.000,2092.000,2134.000,2090.000,2104.000,2119.000,2093.000,2083.000,2083.000
160.954,1974.000,2033.000,2010.000,2001.000,2016.000,2062.000,1992.000,1992.000,2016.000,2017.000
164.781,1998.000,1977.000,1993.000,2019.000,1961.000,1955.000,1988.000,1997.000,1999.000,1947.000
168.607,1980.000,1907.000,1970.000,1978.000,1938.000,1991.000,1909.000,1913.000,1937.000,1931.000
172.432,1868.000,1814.000,1854.000,1836.000,1831.000,1866.000,1823.000,1852.000,1874.000,1900.000
176.252,1844.000,1813.000,1859.000,1847.000,1837.000,1873.000,1819.000,1829.000,1844.000,1821.000
180.074,1791.000,1770.000,1813.000,1791.000,1823.000,1819.000,1745.000,1776.000,1815.000,1760.000
183.893,1718.000,1736.000,1722.000,1703.000,1730.000,1734.000,1711.000,1713.000,1713.000,1679.000
187.711,1784.000,1709.000,1732.000,1720.000,1753.000,1712.000,1715.000,1723.000,1702.000,1768.000
191.526,1699.000,1719.000,1730.000,1736.000,1696.000,1690.000,1731.000,1666.000,1670.000,1690.000
195.341,1644.000,1657.000,1646.000,1662.000,1656.000,1656.000,1630.000,1631.000,1660.000,1628.000
199.154,1655.000,1651.000,1658.000,1659.000,1683.000,1696.000,1663.000,1666.000,1677.000,1651.000
202.966,1655.000,1677.000,1643.000,1639.000,1655.000,1637.000,1654.000,1640.000,1678.000,1613.000
206.774,1613.000,1642.000,1622.000,1599.000,1586.000,1620.000,1639.000,1592.000,1605.000,1623.000
210.583,1656.000,1644.000,1595.000,1638.000,1631.000,1646.000,1603.000,1598.000,1592.000,1623.000
214.390,1618.000,1635.000,1627.000,1598.000,1612.000,1599.000,1618.000,1618.000,1603.000,1653.000
218.196,1619.000,1615.000,1569.000,1579.000,1591.000,1578.000,1609.000,1584.000,1544.000,1585.000
221.998,1638.000,1636.000,1596.000,1603.000,1620.000,1599.000,1579.000,1576.000,1593.000,1596.000
225.800,1591.000,1590.000,1598.000,1591.000,1584.000,1605.000,1613.000,1588.000,1584.000,1596.000
229.601,1578.000,1571.000,1548.000,1569.000,1589.000,1519.000,1542.000,1562.000,1585.000,1559.000
233.400,1641.000,1590.000,1583.000,1573.000,1581.000,1583.000,1567.000,1569.000,1574.000,1563.000
237.196,1586.000,1592.000,1553.000,1561.000,1576.000,1579.000,1573.000,1585.000,1566.000,1561.000
240.992,1543.000,1543.000,1503.000,1541.000,1559.000,1548.000,1512.000,1528.000,1540.000,1529.000
244.787,1561.000,1574.000,1559.000,1537.000,1551.000,1526.000,1533.000,1538.000,1550.000,1519.000
248.580,1552.000,1488.000,1567.000,1489.000,1543.000,1513.000,1488.000,1545.000,1525.000,1519.000
252.370,1548.000,1508.000,1468.000,1495.000,1496.000,1506.000,1500.000,1494.000,1478.000,1480.000
256.160,1512.000,1533.000,1522.000,1495.000,1507.000,1502.000,1489.000,1505.000,1514.000,1515.000
259.948,1510.000,1523.000,1530.000,1516.000,1532.000,1528.000,1492.000,1536.000,1489.000,1472.000
263.735,1502.000,1520.000,1487.000,1468.000,1485.000,1474.000,1503.000,1459.000,1469.000,1463.000
267.518,1492.000,1492.000,1511.000,1506.000,1514.000,1470.000,1483.000,1491.000,1462.000,1499.000
271.302,1495.000,1494.000,1483.000,1470.000,1474.000,1510.000,1476.000,1472.000,1504.000,1475.000
275.085,1500.000,1477.000,1457.000,1465.000,1469.000,1480.000,1471.000,1479.000,1462.000,1476.000
278.865,1505.000,1509.000,1478.000,1495.000,1470.000,1453.000,1493.000,1486.000,1456.000,1472.000
282.643,1495.000,1485.000,1484.000,1464.000,1456.000,1469.000,1453.000,1476.000,1439.000,1444.000
286.420,1446.000,1462.000,1431.000,1407.000,1460.000,1422.000,1437.000,1423.000,1383.000,1427.000
290.196,1428.000,1464.000,1432.000,1425.000,1440.000,1423.000,1416.000,1418.000,1407.000,1422.000
293.971,1434.000,1391.000,1409.000,1389.000,1408.000,1400.000,1395.000,1394.000,1386.000,1371.000
297.742,1367.000,1353.000,1362.000,1375.000,1363.000,1350.000,1387.000,1333.000,1382.000,1329.000
301.513,1366.000,1403.000,1357.000,1361.000,1361.000,1355.000,1330.000,1375.000,1337.000,1369.000
305.283,1360.000,1358.000,1352.000,1366.000,1361.000,1373.000,1345.000,1331.000,1294.000,1340.000
309.052,1333.000,1342.000,1349.000,1345.000,1310.000,1347.000,1306.000,1347.000,1335.000,1313.000
312.817,1365.000,1331.000,1310.000,1324.000,1347.000,1360.000,1318.000,1341.000,1297.000,1315.000
316.582,1361.000,1344.000,1327.000,1314.000,1339.000,1351.000,1323.000,1340.000,1320.000,1319.000
320.346,1295.000,1330.000,1317.000,1297.000,1306.000,1335.000,1285.000,1314.000,1297.000,1300.000
324.108,1321.000,1313.000,1288.000,1341.000,1312.000,1295.000,1265.000,1345.000,1307.000,1309.000
327.867,1311.000,1309.000,1291.000,1294.000,1327.000,1295.000,1250.000,1284.000,1352.000,1299.000
331.626,1301.000,1305.000,1315.000,1316.000,1289.000,1280.000,1303.000,1243.000,1271.000,1274.000
335.384,1292.000,1302.000,1312.000,1290.000,1313.000,1278.000,1302.000,1268.000,1288.000,1294.000
339.140,1302.000,1315.000,1316.000,1302.000,1300.000,1276.000,1318.000,1294.000,1287.000,1276.000
342.893,1267.000,1278.000,1266.000,1250.000,1252.000,1256.000,1218.000,1246.000,1262.000,1221.000
346.646,1264.000,1252.000,1277.000,1273.000,1289.000,1257.000,1270.000,1267.000,1276.000,1244.000
350.398,1296.000,1250.000,1233.000,1253.000,1272.000,1274.000,1266.000,1243.000,1255.000,1271.000
354.148,1230.000,1251.000,1276.000,1211.000,1231.000,1263.000,1206.000,1227.000,1232.000,1225.000
357.894,1249.000,1223.000,1244.000,1225.000,1227.000,1257.000,1236.000,1231.000,1234.000,1207.000
361.641,1276.000,1280.000,1275.000,1257.000,1212.000,1215.000,1234.000,1221.000,1227.000,1220.000
365.387,1222.000,1218.000,1207.000,1207.000,1239.000,1247.000,1233.000,1229.000,1209.000,1175.000
369.131,1249.000,1218.000,1220.000,1240.000,1245.000,1240.000,1243.000,1224.000,1208.000,1201.000
372.871,1229.000,1232.000,1197.000,1219.000,1234.000,1224.000,1207.000,1211.000,1184.000,1208.000
376.612,1221.000,1221.000,1252.000,1195.000,1220.000,1200.000,1191.000,1198.000,1228.000,1197.000
380.351,1211.000,1233.000,1228.000,1205.000,1211.000,1237.000,1419.000,1203.000,1212.000,1235.000
384.089,1231.000,1218.000,1215.000,1215.000,1264.000,1191.000,1198.000,1199.000,1205.000,1217.000
387.824,1208.000,1215.000,1217.000,1200.000,1269.000,1227.000,1186.000,1218.000,1213.000,1236.000
391.559,1215.000,1217.000,1224.000,1204.000,1233.000,1202.000,1212.000,1197.000,1203.000,1198.000
395.292,1219.000,1237.000,1235.000,1243.000,1232.000,1234.000,1200.000,1232.000,1207.000,1217.000
399.024,1232.000,1218.000,1230.000,1204.000,1236.000,1228.000,1213.000,1234.000,1196.000,1198.000
402.752,1250.000,1247.000,1205.000,1231.000,1247.000,1213.000,1236.000,1211.000,1221.000,1213.000
406.481,1247.000,1260.000,1260.000,1233.000,1276.000,1259.000,1261.000,1234.000,1238.000,1223.000
410.208,1295.000,1256.000,1233.000,1248.000,1262.000,1250.000,1262.000,1264.000,1245.000,1228.000
413.934,1266.000,1270.000,1258.000,1281.000,1273.000,1282.000,1245.000,1247.000,1233.000,1258.000
417.656,1292.000,1252.000,1264.000,1245.000,1281.000,1242.000,1250.000,1219.000,1255.000,1272.000
421.379,1251.000,1288.000,1264.000,1241.000,1270.000,1250.000,1279.000,1248.000,1260.000,1240.000
425.100,1265.000,1249.000,1272.000,1233.000,1247.000,1232.000,1248.000,1240.000,1246.000,1232.000
428.820,2074.000,1259.000,1247.000,1243.000,1264.000,1248.000,1247.000,1230.000,1242.000,1218.000
432.536,3914.000,1245.000,1242.000,1223.000,1268.000,1253.000,1248.000,1219.000,1230.000,1235.000
436.253,1428.000,1249.000,1236.000,1237.000,1213.000,1267.000,1242.000,1222.000,1247.000,1208.000
439.969,1248.000,1254.000,1269.000,1271.000,1240.000,1227.000,1239.000,1235.000,1238.000,1250.000
443.682,1247.000,1246.000,1233.000,1244.000,1270.000,1259.000,1232.000,1216.000,1238.000,1233.000
447.393,1261.000,1239.000,1267.000,1208.000,1264.000,1236.000,1223.000,1232.000,1239.000,1239.000
451.103,1279.000,1284.000,1260.000,1251.000,1272.000,1246.000,1235.000,1239.000,1239.000,1244.000
454.813,1289.000,1282.000,1277.000,1262.000,1257.000,1266.000,1241.000,1248.000,1235.000,1231.000
458.520,1248.000,1232.000,1250.000,1219.000,1227.000,1256.000,1251.000,1270.000,1245.000,1239.000
462.225,1233.000,1259.000,1262.000,1248.000,1239.000,1246.000,1226.000,1223.000,1296.000,1235.000
465.929,1251.000,1228.000,1226.000,1245.000,1249.000,1237.000,1222.000,1218.000,1239.000,1219.000
469.633,1241.000,1252.000,1213.000,1231.000,1218.000,1222.000,1217.000,1206.000,1196.000,1228.000
473.334,1255.000,1259.000,1239.000,1237.000,1224.000,1234.000,1243.000,1239.000,1233.000,1225.000
477.033,1217.000,1225.000,1242.000,1265.000,1243.000,1243.000,1258.000,1238.000,1233.000,1254.000
480.731,1248.000,1257.000,1250.000,1219.000,1225.000,1243.000,1181.000,1245.000,1219.000,1200.000
484.429,1267.000,1256.000,1237.000,1241.000,1240.000,1255.000,1277.000,1240.000,1229.000,1232.000
488.124,1268.000,1235.000,1243.000,1259.000,1230.000,1224.000,1238.000,1271.000,1276.000,1235.000
491.817,1279.000,1253.000,1258.000,1236.000,1239.000,1216.000,1227.000,1573.000,1264.000,1230.000
495.510,1261.000,1256.000,1253.000,1228.000,1257.000,1238.000,1241.000,1252.000,1234.000,1256.000
499.201,1273.000,1288.000,1265.000,1255.000,1251.000,1256.000,1239.000,1260.000,1268.000,1252.000
502.891,1255.000,1241.000,1247.000,1250.000,1205.000,1256.000,1213.000,1230.000,1227.000,1235.000
506.577,1261.000,1243.000,1260.000,1246.000,1256.000,1255.000,1237.000,1232.000,1247.000,1238.000
510.264,1255.000,1270.000,1284.000,1232.000,1259.000,1254.000,1248.000,1219.000,1252.000,1224.000
513.949,1217.000,1241.000,1208.000,1246.000,1252.000,1233.000,1247.000,1251.000,1215.000,1228.000
517.633,1264.000,1264.000,1242.000,1247.000,1256.000,1293.000,1222.000,1233.000,1229.000,1252.000
521.314,1284.000,1253.000,1268.000,1254.000,1271.000,1257.000,1249.000,1239.000,1245.000,1257.000
524.994,1258.000,1273.000,1279.000,1246.000,1258.000,1272.000,1247.000,1272.000,1227.000,1238.000
528.674,1281.000,1270.000,1286.000,1259.000,1297.000,1251.000,1228.000,1278.000,1277.000,1257.000
532.352,1302.000,1275.000,1262.000,1255.000,1271.000,1272.000,1296.000,1266.000,1252.000,1284.000
536.026,1279.000,1251.000,1273.000,1249.000,1260.000,1266.000,1251.000,1248.000,1279.000,1249.000
539.701,1272.000,1290.000,1299.000,1280.000,1307.000,1266.000,1286.000,1267.000,1279.000,1257.000
543.375,1307.000,1326.000,1283.000,1293.000,1308.000,1318.000,1275.000,1285.000,1309.000,1275.000
547.047,1279.000,1292.000,1271.000,1290.000,1308.000,1297.000,1291.000,1248.000,1284.000,1292.000
550.715,1321.000,1285.000,1268.000,1265.000,1289.000,1291.000,1287.000,1289.000,1276.000,1269.000
554.385,1310.000,1305.000,1297.000,1275.000,1296.000,1279.000,1270.000,1304.000,1283.000,1276.000
558.052,1304.000,1309.000,1329.000,1268.000,1290.000,1287.000,1267.000,1287.000,1237.000,1279.000
561.718,1277.000,1279.000,1270.000,1284.000,1277.000,1266.000,1286.000,1270.000,1274.000,1279.000
565.381,1275.000,1302.000,1284.000,1255.000,1293.000,1298.000,1297.000,1246.000,1287.000,1297.000
569.044,1321.000,1287.000,1277.000,1249.000,1292.000,1270.000,1279.000,1277.000,1260.000,1245.000
572.706,1316.000,1299.000,1284.000,1320.000,1294.000,1290.000,1270.000,1286.000,1287.000,1246.000
576.366,1283.000,1291.000,1280.000,1287.000,1258.000,1269.000,1281.000,1283.000,1253.000,1256.000
580.023,1291.000,1304.000,1266.000,1285.000,1285.000,1258.000,1259.000,1275.000,1290.000,1266.000
583.680,1256.000,1262.000,1258.000,1254.000,1274.000,1264.000,1276.000,1237.000,1278.000,1229.000
587.336,1288.000,1285.000,1286.000,1279.000,1313.000,1290.000,1257.000,1258.000,1285.000,1260.000
590.990,1273.000,1275.000,1288.000,1275.000,1280.000,1304.000,1270.000,1272.000,1279.000,1254.000
594.641,1266.000,1254.000,1257.000,1257.000,1246.000,1259.000,1246.000,1233.000,1264.000,1259.000
598.293,1288.000,1270.000,1283.000,1270.000,1305.000,1253.000,1268.000,1250.000,1267.000,1235.000
601.943,1269.000,1277.000,1271.000,1261.000,1275.000,1234.000,1253.000,1249.000,1268.000,1243.000
605.591,1248.000,1262.000,1233.000,1266.000,1247.000,1266.000,1244.000,1234.000,1247.000,1228.000
609.236,1280.000,1238.000,1282.000,1257.000,1279.000,1273.000,1265.000,1259.000,1248.000,1250.000
612.882,1275.000,1259.000,1243.000,1287.000,1300.000,1280.000,1239.000,1267.000,1279.000,1263.000
616.526,1246.000,1287.000,1266.000,1264.000,1279.000,1213.000,1265.000,1260.000,1206.000,1247.000
620.169,1301.000,1339.000,1303.000,1298.000,1308.000,1316.000,1290.000,1276.000,1293.000,1294.000
623.808,1322.000,1351.000,1292.000,1304.000,1354.000,1311.000,1314.000,1300.000,1295.000,1289.000
627.448,1291.000,1233.000,1270.000,1242.000,1256.000,1255.000,1255.000,1238.000,1248.000,1231.000
631.086,1282.000,1287.000,1277.000,1244.000,1283.000,1293.000,1265.000,1253.000,1268.000,1262.000
634.723,1290.000,1285.000,1301.000,1287.000,1327.000,1310.000,1281.000,1292.000,1278.000,1280.000
638.356,1319.000,1324.000,1314.000,1321.000,1291.000,1282.000,1305.000,1300.000,1291.000,1295.000
641.990,1353.000,1349.000,1424.000,1348.000,1346.000,1399.000,1366.000,1358.000,1328.000,1330.000
645.623,1374.000,1331.000,1334.000,1376.000,1371.000,1396.000,1365.000,1333.000,1376.000,1306.000
649.254,1326.000,1308.000,1294.000,1287.000,1295.000,1313.000,1319.000,1279.000,1248.000,1259.000
652.881,1292.000,1293.000,1279.000,1305.000,1288.000,1297.000,1267.000,1290.000,1290.000,1265.000
656.509,1310.000,1290.000,1280.000,1263.000,1298.000,1293.000,1261.000,1308.000,1277.000,1284.000
660.136,1284.000,1289.000,1268.000,1292.000,1291.000,1286.000,1278.000,1272.000,1288.000,1243.000
663.761,1302.000,1319.000,1289.000,1288.000,1267.000,1279.000,1240.000,1275.000,1272.000,1267.000
667.383,1292.000,1259.000,1297.000,1253.000,1277.000,1300.000,1282.000,1277.000,1274.000,1261.000
671.005,1319.000,1288.000,1293.000,1240.000,1297.000,1294.000,1259.000,1293.000,1279.000,1246.000
674.626,1278.000,1281.000,1257.000,1246.000,1302.000,1279.000,1277.000,1261.000,1243.000,1255.000
678.246,1292.000,1317.000,1279.000,1278.000,1266.000,1279.000,1305.000,1263.000,1278.000,1243.000
681.862,1280.000,1284.000,1306.000,1278.000,1282.000,1288.000,1269.000,1258.000,1318.000,1291.000
685.478,1274.000,1283.000,1281.000,1316.000,1254.000,1320.000,1279.000,1297.000,1247.000,1271.000
689.093,1322.000,1341.000,1306.000,1277.000,1292.000,1304.000,1296.000,1254.000,1276.000,1279.000
692.707,1350.000,1324.000,1333.000,1299.000,1323.000,1301.000,1344.000,1312.000,1315.000,1301.000
696.317,1326.000,1279.000,1309.000,1315.000,1322.000,1302.000,1277.000,1308.000,1259.000,1299.000
699.928,1341.000,1340.000,1331.000,1348.000,1332.000,1316.000,1300.000,1337.000,1333.000,1324.000
703.537,1339.000,1332.000,1345.000,1312.000,1336.000,1328.000,1297.000,1320.000,1337.000,1296.000
707.145,1310.000,1339.000,1330.000,1342.000,1314.000,1287.000,1291.000,1287.000,1314.000,1302.000
710.750,1341.000,1344.000,1338.000,1359.000,1314.000,1334.000,1311.000,1346.000,1327.000,1328.000
714.355,1360.000,1366.000,1368.000,1362.000,1328.000,1349.000,1338.000,1340.000,1345.000,1341.000
717.958,1347.000,1375.000,1392.000,1408.000,1375.000,1352.000,1344.000,1344.000,1357.000,1345.000
721.560,1408.000,1393.000,1404.000,1405.000,1387.000,1386.000,1394.000,1364.000,1411.000,1403.000
725.159,1408.000,1378.000,1392.000,1393.000,1399.000,1409.000,1393.000,1388.000,1388.000,1388.000
728.758,1371.000,1355.000,1371.000,1343.000,1406.000,1364.000,1361.000,1328.000,1367.000,1335.000
732.356,1368.000,1361.000,1354.000,1342.000,1374.000,1345.000,1353.000,1347.000,1346.000,1353.000
735.953,1376.000,1373.000,1385.000,1351.000,1370.000,1373.000,1344.000,1373.000,1352.000,1330.000
739.546,1369.000,1369.000,1372.000,1380.000,1388.000,1393.000,1354.000,1381.000,1355.000,1312.000
743.139,1401.000,1414.000,1346.000,1412.000,1399.000,1402.000,1383.000,1379.000,1374.000,1370.000
746.731,1427.000,1449.000,1415.000,1376.000,1405.000,1391.000,1396.000,1370.000,1389.000,1405.000
750.322,1443.000,1433.000,1423.000,1393.000,1448.000,1410.000,1405.000,1417.000,1407.000,1404.000
753.909,1458.000,1424.000,1447.000,1432.000,1454.000,1401.000,1439.000,1432.000,1429.000,1402.000
757.497,1465.000,1477.000,1490.000,1452.000,1441.000,1450.000,1466.000,1446.000,1447.000,1445.000
761.084,1486.000,1481.000,1456.000,1481.000,1471.000,1498.000,1465.000,1487.000,1450.000,1431.000
764.669,1461.000,1456.000,1442.000,1428.000,1453.000,1417.000,1405.000,1412.000,1451.000,1402.000
768.250,1431.000,1443.000,1411.000,1410.000,1443.000,1384.000,1419.000,1410.000,1455.000,1391.000
771.832,1460.000,1451.000,1451.000,1420.000,1429.000,1396.000,1460.000,1432.000,1441.000,1400.000
775.413,1418.000,1412.000,1410.000,1441.000,1409.000,1428.000,1403.000,1388.000,1401.000,1402.000
778.992,1426.000,1406.000,1439.000,1428.000,1417.000,1444.000,1416.000,1407.000,1392.000,1404.000
782.568,1440.000,1441.000,1444.000,1421.000,1447.000,1429.000,1422.000,1447.000,1413.000,1436.000
786.145,1425.000,1426.000,1405.000,1393.000,1410.000,1413.000,1380.000,1392.000,1387.000,1377.000
789.720,1415.000,1412.000,1405.000,1403.000,1388.000,1386.000,1377.000,1362.000,1370.000,1430.000
793.293,1406.000,1384.000,1385.000,1387.000,1399.000,1368.000,1386.000,1388.000,1407.000,1374.000
796.864,1405.000,1399.000,1382.000,1407.000,1380.000,1409.000,1368.000,1363.000,1383.000,1345.000
800.434,1399.000,1399.000,1402.000,1423.000,1406.000,1408.000,1382.000,1408.000,1383.000,1356.000
804.004,1474.000,1473.000,1398.000,1389.000,1428.000,1404.000,1411.000,1421.000,1390.000,1411.000
807.572,1427.000,1408.000,1383.000,1427.000,1448.000,1435.000,1403.000,1385.000,1409.000,1386.000
811.136,1437.000,1390.000,1433.000,1430.000,1419.000,1429.000,1394.000,1418.000,1813.000,1410.000
814.701,1456.000,1466.000,1451.000,1463.000,1433.000,1481.000,1446.000,1427.000,1446.000,1464.000
818.265,1487.000,1480.000,1483.000,1485.000,1485.000,1487.000,1459.000,1479.000,1478.000,1495.000
821.827,1544.000,1545.000,1554.000,1542.000,1511.000,1503.000,1525.000,1516.000,1503.000,1545.000
825.386,1595.000,1624.000,1641.000,1594.000,1597.000,1605.000,1606.000,1606.000,1605.000,1587.000
828.946,1665.000,1671.000,1673.000,1632.000,1676.000,1644.000,1627.000,1633.000,1645.000,1677.000
832.504,1588.000,1626.000,1609.000,1587.000,1617.000,1592.000,1619.000,1614.000,1564.000,1591.000
836.060,1571.000,1579.000,1586.000,1555.000,1584.000,1571.000,1562.000,1555.000,1528.000,1555.000
839.614,1583.000,1553.000,1599.000,1567.000,1597.000,1585.000,1579.000,1568.000,1584.000,1573.000
843.167,1589.000,1565.000,1561.000,1575.000,1548.000,1573.000,1529.000,1576.000,1576.000,1543.000
846.720,1623.000,1633.000,1663.000,1614.000,1651.000,1647.000,1581.000,1633.000,1628.000,1646.000
850.271,1816.000,1714.000,1756.000,1684.000,1746.000,1721.000,1726.000,1708.000,1725.000,1711.000
853.819,1790.000,1745.000,1728.000,1780.000,1750.000,1759.000,1726.000,1767.000,1768.000,1732.000
857.367,1688.000,1708.000,1691.000,1699.000,1690.000,1701.000,1675.000,1743.000,1693.000,1693.000
860.914,1663.000,1660.000,1648.000,1636.000,1651.000,1677.000,1677.000,1675.000,1634.000,1660.000
864.459,1661.000,1633.000,1607.000,1592.000,1624.000,1586.000,1595.000,1597.000,1605.000,1598.000
868.001,1584.000,1597.000,1567.000,1579.000,1612.000,1605.000,1614.000,1608.000,1591.000,1611.000
871.544,1666.000,1620.000,1598.000,1586.000,1626.000,1574.000,1648.000,1607.000,1593.000,1599.000
875.085,1686.000,1655.000,1646.000,1657.000,1638.000,1631.000,1661.000,1654.000,1620.000,1620.000
878.625,1660.000,1699.000,1676.000,1660.000,1656.000,1673.000,1639.000,1664.000,1686.000,1650.000
882.161,1677.000,1679.000,1665.000,1660.000,1665.000,1669.000,1615.000,1676.000,1691.000,1667.000
885.698,1720.000,1690.000,1674.000,1671.000,1688.000,1732.000,1672.000,1662.000,1642.000,1675.000
889.234,1735.000,1736.000,1671.000,1688.000,1709.000,1695.000,1709.000,1686.000,1684.000,1710.000
892.768,1726.000,1690.000,1714.000,1702.000,1727.000,1679.000,1655.000,1705.000,1685.000,1695.000
896.299,1734.000,1703.000,1718.000,1720.000,1741.000,1751.000,1750.000,1719.000,1734.000,1725.000
899.830,1791.000,1750.000,1754.000,1730.000,1701.000,1699.000,1739.000,1710.000,1720.000,1726.000
903.360,1732.000,1734.000,1719.000,1714.000,1715.000,1722.000,1749.000,1720.000,1703.000,1740.000
906.889,1756.000,1745.000,1734.000,1763.000,1768.000,1726.000,1726.000,1718.000,1722.000,1723.000
910.414,1751.000,1755.000,1751.000,1735.000,1751.000,1782.000,1742.000,1707.000,1744.000,1728.000
913.940,1760.000,1743.000,1755.000,1725.000,1736.000,1717.000,1742.000,1755.000,1733.000,1742.000
917.465,1776.000,1803.000,1781.000,1767.000,1787.000,1789.000,1782.000,1741.000,1745.000,1762.000
920.988,1868.000,1802.000,1815.000,1803.000,1832.000,1804.000,1826.000,1785.000,1787.000,1801.000
924.508,1816.000,1837.000,1853.000,1829.000,1815.000,1832.000,1823.000,1839.000,1795.000,1783.000
928.028,1887.000,1856.000,1865.000,1850.000,1882.000,1856.000,1895.000,1822.000,1849.000,1869.000
931.547,1948.000,1963.000,1900.000,1898.000,1943.000,1896.000,1925.000,1918.000,1935.000,1924.000
935.064,1962.000,1944.000,1964.000,1960.000,1968.000,1947.000,1925.000,1954.000,1889.000,1941.000
938.579,1995.000,2002.000,2010.000,1962.000,1990.000,1986.000,2037.000,1978.000,1988.000,1959.000
942.093,2056.000,2088.000,2038.000,2050.000,2054.000,2020.000,2055.000,2026.000,2023.000,2038.000
943.850,2078.000,2056.000,2107.000,2076.000,2091.000,2039.000,2096.000,2059.000,2048.000,2084.000