File: Raman/2022_11_26/Data/2022_11_26_Hagfish_Film_Unstreched_532nm_Pol_6mW_750mm_600gv_1200wn_iDus_100s_10accum_Pos2.csv
282.050,5689.000,3563.000,3037.000,2648.000,2520.000,2355.000,2250.000,2194.000,2135.000,1993.000
287.700,5623.000,3507.000,2933.000,2630.000,2449.000,2330.000,2217.000,2143.000,2023.000,1995.000
293.346,5768.000,3590.000,2951.000,2713.000,2528.000,2371.000,2217.000,2131.000,2073.000,1996.000
298.991,5640.000,3496.000,2864.000,2623.000,2449.000,2256.000,2147.000,2071.000,1980.000,1919.000
304.630,5791.000,3519.000,3004.000,2629.000,2483.000,2324.000,2187.000,2107.000,2020.000,1920.000
310.266,5685.000,3455.000,2867.000,2616.000,2418.000,2283.000,2160.000,2035.000,1962.000,1935.000
315.898,5915.000,3604.000,3007.000,2709.000,2478.000,2314.000,2151.000,2119.000,1996.000,1923.000
321.527,5710.000,3466.000,2958.000,2605.000,2378.000,2264.000,2128.000,2019.000,1931.000,1876.000
327.155,5871.000,3565.000,2958.000,2714.000,2471.000,2310.000,2183.000,2074.000,1989.000,1906.000
332.777,5885.000,3577.000,2947.000,2580.000,2421.000,2271.000,2139.000,2040.000,1973.000,1949.000
338.396,5999.000,3681.000,3024.000,2688.000,2504.000,2334.000,2125.000,2077.000,2019.000,1947.000
344.011,5951.000,3579.000,2919.000,2650.000,2415.000,2303.000,2180.000,2038.000,1975.000,1880.000
349.623,6118.000,3693.000,3070.000,2678.000,2487.000,2262.000,2195.000,2066.000,1962.000,1936.000
355.233,5988.000,3568.000,2923.000,2647.000,2395.000,2285.000,2124.000,1986.000,1933.000,1878.000
360.838,6108.000,3687.000,3003.000,2674.000,2447.000,2313.000,2151.000,2023.000,1946.000,1896.000
366.440,5961.000,3619.000,2974.000,2605.000,2420.000,2247.000,2090.000,2025.000,1916.000,1874.000
372.038,6130.000,3612.000,3012.000,2691.000,2445.000,2297.000,2155.000,2016.000,1952.000,1870.000
377.633,6106.000,3641.000,2908.000,2670.000,2397.000,2249.000,2127.000,2005.000,1974.000,1881.000
383.226,6279.000,3651.000,3085.000,2694.000,2487.000,2291.000,2135.000,2080.000,1917.000,1880.000
388.815,6170.000,3680.000,2995.000,2687.000,2426.000,2330.000,2144.000,2001.000,1936.000,1879.000
394.399,6352.000,3760.000,3104.000,2721.000,2506.000,2328.000,2203.000,2069.000,1929.000,1889.000
399.980,6274.000,3683.000,3041.000,2713.000,2447.000,2318.000,2137.000,2066.000,2012.000,1909.000
405.560,6383.000,3827.000,3195.000,2746.000,2582.000,2382.000,2272.000,2128.000,2009.000,1965.000
411.135,6302.000,3723.000,3096.000,2760.000,2536.000,2371.000,2187.000,2056.000,2014.000,1955.000
416.706,6561.000,3813.000,3211.000,2791.000,2581.000,2399.000,2288.000,2088.000,2040.000,1978.000
422.274,6448.000,3741.000,3142.000,2782.000,2538.000,2381.000,2211.000,2127.000,2030.000,1962.000
427.838,6604.000,3915.000,3260.000,2848.000,2562.000,2485.000,2254.000,2217.000,2038.000,1968.000
433.401,7338.000,3843.000,3180.000,2790.000,2585.000,2393.000,2242.000,2125.000,2018.000,1949.000
438.959,6675.000,3928.000,3275.000,2856.000,2561.000,2449.000,2283.000,2152.000,2124.000,1964.000
444.513,6691.000,3950.000,3170.000,2875.000,2590.000,2396.000,2251.000,2147.000,1997.000,1956.000
450.064,6826.000,4076.000,3243.000,2841.000,2709.000,2462.000,2271.000,2195.000,2141.000,2030.000
455.611,6670.000,3942.000,3241.000,2893.000,2616.000,2426.000,2282.000,2116.000,2072.000,2025.000
461.158,6968.000,4115.000,3356.000,2886.000,2733.000,2528.000,2309.000,2211.000,2111.000,2027.000
466.698,6847.000,4919.000,3309.000,2904.000,2659.000,2472.000,2301.000,2183.000,2022.000,2043.000
472.236,6952.000,4085.000,3359.000,3017.000,2645.000,2506.000,2298.000,2250.000,2097.000,2039.000
477.770,7024.000,4099.000,3376.000,2962.000,2689.000,2518.000,2330.000,2202.000,2132.000,2030.000
483.301,7189.000,4117.000,3423.000,3020.000,2760.000,2603.000,2351.000,2219.000,2127.000,2061.000
488.830,7040.000,4156.000,3406.000,2976.000,2741.000,2534.000,2321.000,2249.000,2131.000,2079.000
494.354,7190.000,4168.000,3421.000,3024.000,2749.000,2580.000,2384.000,2264.000,2192.000,2098.000
499.875,7215.000,4227.000,3429.000,3015.000,2739.000,2536.000,2405.000,2247.000,2159.000,2098.000
505.393,7268.000,4223.000,3455.000,3044.000,2769.000,2536.000,2370.000,2239.000,2173.000,2126.000
510.907,7223.000,4240.000,3480.000,3025.000,2822.000,2572.000,2435.000,2231.000,2143.000,2137.000
516.420,7314.000,4268.000,3515.000,3051.000,2787.000,2651.000,2421.000,2314.000,2223.000,2161.000
521.927,7405.000,4306.000,3476.000,3056.000,2827.000,2629.000,2452.000,2329.000,2268.000,2142.000
527.431,7270.000,4319.000,3527.000,3118.000,2837.000,2667.000,2437.000,2382.000,2242.000,2146.000
532.932,7483.000,4358.000,3585.000,3123.000,2837.000,2634.000,2442.000,2352.000,2221.000,2203.000
538.430,7312.000,4370.000,3575.000,3135.000,2839.000,2684.000,2494.000,2329.000,2210.000,2196.000
543.926,7459.000,4351.000,3537.000,3159.000,2875.000,2667.000,2439.000,2332.000,2293.000,2213.000
549.417,7449.000,4328.000,3621.000,3172.000,2874.000,2691.000,2462.000,2355.000,2232.000,2170.000
554.904,7518.000,4463.000,3653.000,3207.000,2938.000,2701.000,2544.000,2409.000,2284.000,2182.000
560.389,7435.000,4424.000,3558.000,3136.000,2842.000,2700.000,2492.000,2361.000,2268.000,2184.000
565.870,7615.000,4559.000,3665.000,3212.000,3009.000,2644.000,2517.000,2363.000,2277.000,2241.000
571.350,7590.000,4385.000,3604.000,3098.000,2926.000,2681.000,2488.000,2331.000,2282.000,2193.000
576.824,7707.000,4500.000,3636.000,3210.000,2916.000,2746.000,2556.000,2371.000,2266.000,2177.000
582.295,7565.000,4444.000,3604.000,3175.000,2877.000,2718.000,2507.000,2343.000,2266.000,2154.000
587.763,7793.000,4464.000,3686.000,3179.000,2944.000,2765.000,2547.000,2411.000,2321.000,2208.000
593.228,7667.000,4396.000,3596.000,3202.000,2886.000,2701.000,2502.000,2385.000,2232.000,2217.000
598.691,7931.000,4574.000,3786.000,3250.000,2952.000,2770.000,2529.000,2399.000,2359.000,2220.000
604.149,7815.000,4505.000,3676.000,3162.000,2912.000,2711.000,2437.000,2401.000,2267.000,2198.000
609.604,8091.000,4525.000,3821.000,3278.000,2997.000,2773.000,2613.000,2455.000,2320.000,2219.000
615.055,7869.000,4590.000,3736.000,3327.000,3020.000,2798.000,2515.000,2412.000,2326.000,2229.000
620.505,8133.000,4799.000,3944.000,3403.000,3049.000,2877.000,2679.000,2568.000,2439.000,2345.000
625.950,7907.000,4615.000,3738.000,3271.000,2987.000,2818.000,2577.000,2451.000,2370.000,2257.000
631.392,8182.000,4704.000,3873.000,3366.000,3085.000,2828.000,2644.000,2567.000,2385.000,2327.000
636.831,8203.000,4770.000,3848.000,3407.000,3114.000,2828.000,2698.000,2544.000,2503.000,2373.000
642.266,8508.000,5028.000,4120.000,3577.000,3299.000,2988.000,2860.000,2717.000,2603.000,2513.000
647.700,8396.000,4861.000,3929.000,3416.000,3169.000,2909.000,2735.000,2499.000,2416.000,2404.000
653.128,8446.000,4880.000,3969.000,3502.000,3124.000,2877.000,2692.000,2614.000,2480.000,2395.000
658.554,8444.000,4842.000,3953.000,3448.000,3137.000,2888.000,2684.000,2578.000,2451.000,2373.000
663.976,8476.000,4879.000,3968.000,3512.000,3183.000,2927.000,2730.000,2611.000,2491.000,2395.000
669.395,8507.000,4959.000,3998.000,3558.000,3243.000,2897.000,2746.000,2577.000,2486.000,2361.000
674.813,8583.000,4928.000,4007.000,3470.000,3193.000,2940.000,2662.000,2562.000,2455.000,2379.000
680.225,8718.000,5008.000,3991.000,3560.000,3182.000,2983.000,2761.000,2611.000,2497.000,2422.000
685.634,8625.000,4930.000,4051.000,3543.000,3245.000,2960.000,2750.000,2592.000,2488.000,2423.000
691.040,8747.000,5053.000,4095.000,3614.000,3244.000,3061.000,2844.000,2693.000,2594.000,2434.000
696.443,8704.000,4972.000,4076.000,3594.000,3237.000,3082.000,2836.000,2616.000,2596.000,2450.000
701.845,8950.000,5149.000,4097.000,3693.000,3383.000,3043.000,2881.000,2729.000,2586.000,2497.000
707.241,8930.000,5079.000,4202.000,3678.000,3322.000,3046.000,2832.000,2665.000,2629.000,2472.000
712.634,9127.000,5158.000,4255.000,3711.000,3397.000,3219.000,2909.000,2799.000,2679.000,2593.000
718.024,9000.000,5153.000,4251.000,3734.000,3452.000,3141.000,2958.000,2793.000,2714.000,2588.000
723.411,9181.000,5329.000,4369.000,3766.000,3500.000,3248.000,3014.000,2823.000,2707.000,2704.000
728.796,8948.000,5264.000,4186.000,3717.000,3350.000,3053.000,2895.000,2779.000,2646.000,2500.000
734.177,9094.000,5343.000,4256.000,3775.000,3404.000,3208.000,2979.000,2762.000,2655.000,2580.000
739.554,9108.000,5251.000,4366.000,3820.000,3425.000,3142.000,2986.000,2773.000,2682.000,2564.000
744.928,9207.000,5431.000,4450.000,3844.000,3502.000,3268.000,3051.000,2919.000,2745.000,2627.000
750.298,9173.000,5323.000,4369.000,3814.000,3472.000,3259.000,3007.000,2868.000,2790.000,2673.000
755.668,9539.000,5554.000,4541.000,4000.000,3674.000,3480.000,3185.000,3057.000,2918.000,2782.000
761.032,9427.000,5422.000,4474.000,3916.000,3594.000,3323.000,3122.000,2947.000,2865.000,2787.000
766.393,9396.000,5569.000,4492.000,3930.000,3539.000,3361.000,3123.000,2960.000,2791.000,2709.000
771.751,9491.000,5488.000,4479.000,3942.000,3576.000,3328.000,3063.000,2882.000,2856.000,2653.000
777.106,9538.000,5505.000,4502.000,3885.000,3604.000,3334.000,3129.000,2937.000,2836.000,2763.000
782.459,9615.000,5562.000,4519.000,3930.000,3646.000,3359.000,3157.000,2917.000,2796.000,2652.000
787.808,9506.000,5509.000,4467.000,3912.000,3562.000,3423.000,3040.000,2867.000,2800.000,2664.000
793.153,9690.000,5578.000,4551.000,3921.000,3627.000,3337.000,3112.000,2867.000,2798.000,2660.000
798.495,9526.000,5565.000,4467.000,3907.000,3531.000,3300.000,3129.000,2901.000,2795.000,2661.000
803.836,9830.000,5733.000,4556.000,3995.000,3644.000,3359.000,3142.000,2897.000,2857.000,2710.000
809.171,9696.000,5567.000,4542.000,3994.000,3609.000,3386.000,3107.000,2907.000,2765.000,2668.000
814.504,9911.000,5791.000,4668.000,4112.000,3744.000,3514.000,3275.000,3060.000,2946.000,2817.000
819.833,9958.000,5850.000,4771.000,4205.000,3877.000,3523.000,3306.000,3173.000,3012.000,2909.000
825.159,10214.000,6200.000,5012.000,4472.000,4049.000,3795.000,3570.000,3387.000,3265.000,3153.000
830.484,9991.000,6001.000,4837.000,4279.000,3843.000,3670.000,3423.000,3254.000,3123.000,3010.000
835.804,10123.000,5995.000,4885.000,4194.000,3902.000,3601.000,3338.000,3198.000,3126.000,2989.000
841.121,9972.000,5886.000,4767.000,4239.000,3868.000,3605.000,3323.000,3129.000,3124.000,2971.000
846.435,10297.000,6084.000,5106.000,4507.000,4504.000,3869.000,3675.000,3440.000,3270.000,3238.000
851.745,10374.000,6130.000,5085.000,4489.000,4106.000,3897.000,3680.000,3528.000,3327.000,3283.000
857.054,10207.000,5973.000,5035.000,4427.000,4039.000,3767.000,3511.000,3399.000,3229.000,3057.000
862.359,10232.000,5923.000,4878.000,4338.000,3922.000,3677.000,3432.000,3264.000,3095.000,2996.000
867.660,10024.000,5995.000,4811.000,4282.000,3916.000,3675.000,3356.000,3259.000,3088.000,3006.000
872.958,10260.000,6029.000,4884.000,4368.000,3993.000,3665.000,3461.000,3321.000,3181.000,3086.000
878.252,10375.000,6155.000,4903.000,4421.000,4055.000,3659.000,3455.000,3288.000,3203.000,3095.000
883.546,10550.000,6165.000,4988.000,4309.000,4037.000,3820.000,3580.000,3305.000,3182.000,3105.000
888.835,10389.000,6041.000,4989.000,4382.000,4022.000,3707.000,3495.000,3296.000,3229.000,3108.000
894.120,10577.000,6223.000,5126.000,4464.000,4073.000,3853.000,3552.000,3381.000,3258.000,3147.000
899.402,10421.000,6079.000,5030.000,4449.000,4087.000,3776.000,3498.000,3359.000,3184.000,3105.000
904.681,10591.000,6131.000,5025.000,4452.000,4126.000,3799.000,3546.000,4190.000,3255.000,3153.000
909.959,10460.000,6100.000,5028.000,4395.000,4053.000,3741.000,3513.000,3331.000,3155.000,3062.000
915.232,10580.000,6218.000,5053.000,4449.000,4114.000,3783.000,3500.000,3380.000,3247.000,3100.000
920.502,10575.000,6178.000,5054.000,4453.000,4038.000,3804.000,3498.000,3389.000,3193.000,3117.000
925.769,10600.000,6319.000,5169.000,4524.000,4157.000,3875.000,3592.000,3424.000,3302.000,3191.000
931.033,10677.000,6347.000,5171.000,4500.000,4084.000,3871.000,3616.000,3439.000,3320.000,3119.000
936.295,10612.000,6219.000,5247.000,4590.000,4187.000,3839.000,3625.000,3505.000,3250.000,3175.000
941.552,10738.000,6246.000,5246.000,4527.000,4178.000,3875.000,3623.000,3437.000,3251.000,3176.000
946.807,10504.000,6229.000,5150.000,4500.000,4129.000,3819.000,3600.000,3400.000,3285.000,3158.000
952.058,10790.000,6235.000,5157.000,4608.000,4209.000,3843.000,3619.000,3465.000,3292.000,3160.000
957.306,10676.000,6212.000,5131.000,4492.000,4124.000,3894.000,3548.000,3411.000,3255.000,3153.000
962.553,10690.000,6194.000,5155.000,4479.000,4088.000,3946.000,3627.000,3423.000,3266.000,3162.000
967.795,10698.000,6121.000,5104.000,4502.000,4092.000,3820.000,3588.000,3402.000,3207.000,3112.000
973.034,10891.000,6349.000,5179.000,4612.000,4199.000,3881.000,3654.000,3457.000,3309.000,3179.000
978.270,10671.000,6274.000,5161.000,4557.000,4119.000,3889.000,3578.000,3427.000,3287.000,3179.000
983.503,11131.000,6561.000,5352.000,4672.000,4281.000,3973.000,3739.000,3550.000,3448.000,3304.000
988.734,10953.000,6503.000,5298.000,4679.000,4258.000,4046.000,3727.000,3567.000,3427.000,3327.000
993.961,11120.000,6708.000,5512.000,4884.000,4621.000,4241.000,3919.000,3824.000,3643.000,3567.000
999.184,12216.000,7764.000,6523.000,5960.000,5641.000,5293.000,4956.000,4781.000,4579.000,4547.000
1004.405,11391.000,6865.000,5714.000,5111.000,4770.000,4395.000,4097.000,3876.000,3781.000,3648.000
1009.622,11477.000,6851.000,5547.000,4963.000,4557.000,4236.000,4038.000,3834.000,3681.000,3522.000
1014.839,10987.000,6707.000,5501.000,4921.000,4436.000,4185.000,3933.000,3721.000,3599.000,3498.000
1020.050,11288.000,6787.000,5624.000,5023.000,4599.000,4304.000,4040.000,3834.000,3724.000,3559.000
1025.258,11248.000,6864.000,5730.000,5055.000,4743.000,4374.000,4132.000,3902.000,3819.000,3707.000
1030.463,11494.000,6901.000,5663.000,5041.000,4619.000,4348.000,4141.000,3829.000,3735.000,3649.000
1035.667,11145.000,6626.000,5475.000,4803.000,4485.000,4115.000,3942.000,3751.000,3581.000,3386.000
1040.867,11552.000,6777.000,5590.000,4923.000,4525.000,4252.000,3919.000,3717.000,3569.000,3501.000
1046.063,11308.000,6683.000,5542.000,4858.000,4497.000,4185.000,3903.000,3670.000,3557.000,3408.000
1051.256,11404.000,6913.000,5599.000,5012.000,4472.000,4235.000,3955.000,3669.000,3591.000,3467.000
1056.446,11505.000,6755.000,5574.000,4880.000,4538.000,4241.000,3983.000,3733.000,3542.000,3540.000
1061.634,11541.000,6879.000,5719.000,5009.000,4574.000,4282.000,3962.000,3764.000,3603.000,3439.000
1066.818,11668.000,6866.000,5611.000,4933.000,4470.000,4260.000,3970.000,3743.000,3509.000,3465.000
1071.999,11600.000,6878.000,5576.000,4992.000,4571.000,4170.000,3991.000,3793.000,3562.000,3471.000
1077.177,11729.000,6962.000,5748.000,4985.000,4620.000,4293.000,4018.000,3793.000,3630.000,3588.000
1082.352,11509.000,6768.000,5550.000,4860.000,4560.000,4190.000,4026.000,3774.000,3586.000,3479.000
1087.526,11765.000,6834.000,5621.000,4998.000,4523.000,4215.000,3895.000,3778.000,3565.000,3488.000
1092.694,11385.000,6727.000,5590.000,4893.000,4471.000,4141.000,3840.000,3588.000,3580.000,3404.000
1097.860,11761.000,6875.000,5555.000,4936.000,4506.000,4135.000,3907.000,3675.000,3586.000,3376.000
1103.023,11509.000,6833.000,5478.000,4821.000,4469.000,4116.000,3875.000,3599.000,3518.000,3390.000
1108.183,11780.000,6872.000,5735.000,4859.000,4513.000,4183.000,3884.000,3687.000,3507.000,3394.000
1113.341,11787.000,6977.000,5667.000,5073.000,4575.000,4247.000,3941.000,3717.000,3516.000,3471.000
1118.495,12032.000,7089.000,5746.000,5022.000,4618.000,4267.000,4022.000,3848.000,3600.000,3546.000
1123.646,11791.000,6965.000,5678.000,5009.000,4587.000,4245.000,4008.000,3784.000,3536.000,3440.000
1128.794,11666.000,6711.000,5508.000,4855.000,4413.000,4118.000,3754.000,3577.000,3448.000,3346.000
1133.938,11608.000,6748.000,5435.000,4789.000,4401.000,4039.000,3729.000,3558.000,3395.000,3274.000
1139.082,11304.000,6544.000,5409.000,4727.000,4281.000,4003.000,3698.000,3493.000,3343.000,3222.000
1144.221,11667.000,6770.000,5481.000,4846.000,4430.000,4156.000,3842.000,3633.000,3444.000,3357.000
1149.356,11546.000,6680.000,5501.000,4779.000,4446.000,4057.000,3817.000,3604.000,3421.000,3306.000
1154.489,11878.000,6803.000,5579.000,4855.000,4415.000,4124.000,3821.000,3654.000,3467.000,3352.000
1159.619,11578.000,6722.000,5482.000,4832.000,4365.000,4061.000,3772.000,3604.000,3399.000,3316.000
1164.748,11971.000,6976.000,5692.000,4996.000,4531.000,4221.000,3863.000,3742.000,3519.000,3429.000
1169.872,12042.000,6971.000,5704.000,4999.000,5955.000,4142.000,3947.000,3695.000,3546.000,3395.000
1174.992,11998.000,6958.000,5664.000,5001.000,4434.000,4131.000,3867.000,3619.000,3443.000,3340.000
1180.110,11928.000,6911.000,5560.000,4917.000,4493.000,4191.000,3828.000,3612.000,3414.000,3311.000
1185.225,11836.000,6753.000,5497.000,4853.000,4392.000,4090.000,3802.000,3569.000,3438.000,3395.000
1190.339,12027.000,6920.000,6818.000,4931.000,4476.000,4168.000,3913.000,3711.000,3528.000,3349.000
1195.448,11849.000,6921.000,5669.000,5063.000,4573.000,4264.000,3939.000,3818.000,3586.000,3501.000
1200.554,12267.000,7282.000,5939.000,5281.000,4916.000,4485.000,4273.000,4014.000,3846.000,4190.000
1205.657,12205.000,7317.000,5972.000,5333.000,4870.000,4439.000,4227.000,4045.000,3894.000,3706.000
1210.759,12595.000,7364.000,6158.000,5456.000,4923.000,4610.000,4321.000,4075.000,3918.000,3816.000
1215.856,12727.000,7683.000,6349.000,5533.000,5129.000,4857.000,4472.000,4278.000,4115.000,3993.000
1220.950,12991.000,7784.000,6541.000,5801.000,5391.000,4984.000,4745.000,4483.000,4250.000,4269.000
1226.041,13460.000,8040.000,6739.000,6062.000,5591.000,5206.000,4894.000,4721.000,4640.000,4437.000
1231.130,13326.000,8145.000,6775.000,6051.000,5484.000,5303.000,4973.000,4753.000,4559.000,4470.000
1236.217,13208.000,7999.000,6679.000,6065.000,5478.000,5220.000,4931.000,4728.000,4524.000,4344.000
1241.299,12819.000,7706.000,6511.000,5772.000,5313.000,4985.000,4670.000,4413.000,4300.000,4219.000
1246.379,12901.000,7765.000,6468.000,5802.000,5171.000,5015.000,4592.000,4379.000,4306.000,4194.000
1251.455,12658.000,7448.000,6219.000,5488.000,5111.000,4813.000,4434.000,4204.000,4100.000,3978.000
1256.529,12802.000,7661.000,6296.000,5588.000,5148.000,4759.000,4451.000,4227.000,4153.000,3969.000
1261.601,12831.000,7614.000,6167.000,5441.000,5103.000,4648.000,4365.000,4161.000,4006.000,3949.000
1266.669,12816.000,7521.000,6233.000,5534.000,4995.000,4727.000,4315.000,4198.000,4002.000,3958.000
1271.734,13018.000,7561.000,6204.000,5526.000,5048.000,4721.000,4302.000,4103.000,4056.000,3892.000
1276.795,12669.000,7427.000,6066.000,5310.000,4876.000,4689.000,4257.000,4090.000,3904.000,3796.000
1281.854,12705.000,7463.000,6046.000,5363.000,4913.000,4646.000,4255.000,4095.000,3868.000,3816.000
1286.912,12291.000,7268.000,5959.000,5246.000,4725.000,4458.000,4189.000,3921.000,3767.000,3658.000
1291.965,12389.000,7225.000,5841.000,5248.000,4748.000,4407.000,4169.000,3902.000,3753.000,3611.000
1297.015,12217.000,7087.000,5836.000,5115.000,4681.000,4353.000,4103.000,3909.000,3712.000,3552.000
1302.063,12433.000,7213.000,5899.000,5190.000,4724.000,4425.000,4175.000,3925.000,3774.000,3656.000
1307.107,12488.000,7289.000,6001.000,5209.000,4823.000,4509.000,4203.000,3904.000,3756.000,3631.000
1312.150,12730.000,7342.000,6017.000,5365.000,4943.000,4680.000,4314.000,4024.000,3950.000,3735.000
1317.189,12633.000,7501.000,6121.000,5319.000,4936.000,4585.000,4302.000,4079.000,3876.000,3713.000
1322.224,12608.000,7370.000,6058.000,5301.000,4892.000,4616.000,4241.000,4070.000,3869.000,3781.000
1327.257,12886.000,7491.000,6174.000,5415.000,5003.000,4657.000,4328.000,4096.000,3968.000,3851.000
1332.287,12537.000,7437.000,6151.000,5440.000,4923.000,4624.000,4257.000,4105.000,3926.000,3830.000
1337.316,12721.000,7519.000,6163.000,5397.000,5035.000,4662.000,4372.000,4184.000,4017.000,3835.000
1342.340,12521.000,7323.000,6082.000,5373.000,4891.000,4509.000,4252.000,4037.000,3892.000,3785.000
1347.361,12598.000,7394.000,6083.000,5329.000,4820.000,4522.000,4273.000,4037.000,3869.000,3727.000
1352.379,12654.000,7289.000,6010.000,5358.000,4771.000,4525.000,4114.000,3955.000,3814.000,3663.000
1357.395,12630.000,7321.000,6000.000,5285.000,4731.000,4477.000,4118.000,3847.000,3743.000,3580.000
1362.409,12808.000,7362.000,5979.000,5213.000,4784.000,4367.000,4165.000,3855.000,3706.000,3567.000
1367.418,12587.000,7199.000,5770.000,5093.000,4645.000,4319.000,3966.000,3795.000,3633.000,3551.000
1372.425,12557.000,7258.000,5842.000,5064.000,4593.000,4325.000,4031.000,3770.000,3620.000,3457.000
1377.429,12384.000,7065.000,5860.000,5079.000,4596.000,4258.000,3995.000,3712.000,3599.000,3364.000
1382.430,12574.000,7195.000,5934.000,5109.000,4613.000,4314.000,4017.000,3707.000,3614.000,3489.000
1387.430,12552.000,7217.000,5836.000,5159.000,4618.000,4366.000,4026.000,3741.000,3641.000,3520.000
1392.425,12851.000,7483.000,6070.000,5368.000,4770.000,4450.000,4127.000,3891.000,3723.000,3630.000
1397.418,12944.000,7463.000,6120.000,5397.000,4837.000,4509.000,4150.000,3940.000,3798.000,3591.000
1402.407,12837.000,7440.000,5990.000,5321.000,4770.000,4446.000,4080.000,3906.000,3767.000,3609.000
1407.394,12960.000,7380.000,5984.000,5232.000,4756.000,4439.000,4076.000,3839.000,3718.000,3545.000
1412.379,12687.000,7113.000,5876.000,5048.000,4642.000,4272.000,3971.000,3757.000,3513.000,3426.000
1417.360,12719.000,7263.000,5898.000,5158.000,4731.000,4278.000,3943.000,3741.000,3548.000,3491.000
1422.338,12487.000,7145.000,5760.000,5090.000,4569.000,4305.000,3968.000,3734.000,3518.000,3409.000
1427.314,12750.000,7318.000,5996.000,5170.000,4679.000,4395.000,4082.000,3871.000,3694.000,3653.000
1432.286,13088.000,7566.000,6133.000,5442.000,4978.000,4655.000,4340.000,4000.000,4131.000,3711.000
1437.257,13154.000,7732.000,6321.000,5594.000,5059.000,4808.000,4483.000,4208.000,4044.000,3902.000
1442.224,13441.000,7829.000,6545.000,5737.000,5251.000,4877.000,4566.000,4313.000,4134.000,4019.000
1447.188,13305.000,7724.000,6310.000,5594.000,5139.000,4777.000,4430.000,4286.000,4000.000,3905.000
1452.149,13216.000,7748.000,6288.000,5544.000,5032.000,4668.000,4416.000,4126.000,4002.000,3802.000
1457.109,13088.000,7389.000,6148.000,5372.000,4874.000,4592.000,4283.000,4055.000,3854.000,3728.000
1462.064,13031.000,7495.000,6015.000,5305.000,4788.000,4384.000,4182.000,3886.000,3753.000,3579.000
1467.017,12620.000,7216.000,5879.000,5134.000,4666.000,4333.000,3959.000,3783.000,3654.000,3514.000
1471.966,12880.000,7257.000,5856.000,4978.000,4537.000,4291.000,3953.000,3738.000,3462.000,3396.000
1476.913,12896.000,7273.000,5807.000,5019.000,4515.000,4193.000,3877.000,3645.000,3450.000,3374.000
1481.859,12671.000,7047.000,5712.000,4998.000,4478.000,4110.000,3708.000,3568.000,3424.000,3305.000
1486.800,12818.000,7145.000,5810.000,4996.000,4472.000,4121.000,3795.000,3514.000,3402.000,3218.000
1491.739,12702.000,7161.000,5686.000,4956.000,4445.000,4002.000,3763.000,3429.000,3277.000,3226.000
1496.674,12818.000,7185.000,5710.000,4951.000,4409.000,4005.000,3680.000,3492.000,3337.000,3138.000
1501.607,12497.000,7010.000,5641.000,4812.000,4378.000,4016.000,3669.000,3415.000,3231.000,3110.000
1506.539,12728.000,7203.000,5771.000,4929.000,4468.000,3989.000,3674.000,3523.000,3278.000,3141.000
1511.466,12931.000,7128.000,5760.000,5008.000,4457.000,4089.000,3749.000,3551.000,3338.000,3228.000
1516.390,12846.000,7161.000,5735.000,4983.000,4473.000,4096.000,3740.000,3519.000,3330.000,3197.000
1521.312,13263.000,7273.000,5862.000,5043.000,4491.000,4198.000,3849.000,3539.000,3338.000,3227.000
1526.230,13038.000,7191.000,5868.000,5049.000,4466.000,4174.000,3767.000,3559.000,3322.000,3236.000
1531.148,13210.000,7396.000,5832.000,5062.000,4548.000,4231.000,3841.000,3630.000,3351.000,3270.000
1536.061,13097.000,7197.000,5866.000,5094.000,4545.000,4234.000,3820.000,3617.000,3427.000,3285.000
1540.972,13160.000,7402.000,6029.000,5173.000,4713.000,4296.000,3950.000,3699.000,3476.000,3432.000
1545.879,13309.000,7376.000,5974.000,5207.000,4663.000,4278.000,3991.000,3738.000,3576.000,3346.000
1550.784,13095.000,7345.000,5973.000,5185.000,4600.000,4229.000,3940.000,3636.000,3504.000,3393.000
1555.688,13397.000,7567.000,6037.000,5237.000,4635.000,4270.000,3931.000,3687.000,3534.000,3384.000
1560.587,13170.000,7433.000,5934.000,5156.000,4523.000,4226.000,3942.000,3651.000,3465.000,3390.000
1565.483,13220.000,7879.000,6057.000,5143.000,4697.000,4395.000,4021.000,3694.000,3525.000,3325.000
1570.377,13314.000,7472.000,5938.000,5221.000,4625.000,4299.000,3909.000,3671.000,3443.000,3332.000
1575.269,13249.000,7413.000,5971.000,5188.000,4660.000,4224.000,3968.000,3590.000,3510.000,3330.000
1580.157,13349.000,7476.000,5920.000,5233.000,4681.000,4295.000,3935.000,3708.000,3480.000,3360.000
1585.043,13176.000,7438.000,6055.000,5140.000,4616.000,4217.000,3899.000,3591.000,3456.000,3352.000
1589.925,13415.000,7461.000,5969.000,5152.000,4663.000,4314.000,3987.000,3664.000,3530.000,3424.000
1594.805,13347.000,7493.000,6035.000,5271.000,4735.000,4412.000,4036.000,3774.000,3517.000,3430.000
1599.684,13528.000,7647.000,6163.000,5392.000,4862.000,4501.000,4117.000,3836.000,3694.000,3543.000
1604.558,13700.000,7653.000,6197.000,5358.000,4770.000,4481.000,4148.000,3903.000,3644.000,3619.000
1609.429,13720.000,7717.000,6269.000,5467.000,4912.000,4527.000,4117.000,3904.000,3716.000,3580.000
1614.298,13567.000,7667.000,6202.000,5379.000,4731.000,4362.000,4082.000,3792.000,3657.000,3487.000
1619.164,13319.000,7556.000,6088.000,5289.000,4809.000,4438.000,4047.000,3785.000,3621.000,3457.000
1624.029,13373.000,7568.000,6094.000,5360.000,4769.000,4502.000,4033.000,3789.000,3648.000,3523.000
1628.889,13662.000,7634.000,6173.000,5418.000,4831.000,4456.000,4216.000,3891.000,3711.000,3571.000
1633.747,13950.000,7966.000,6385.000,5587.000,5082.000,4669.000,4386.000,4087.000,3903.000,3798.000
1638.602,14100.000,8082.000,6544.000,5769.000,5266.000,4885.000,4521.000,4248.000,4070.000,3848.000
1643.454,14419.000,8455.000,6846.000,6055.000,5476.000,5059.000,4723.000,4515.000,4361.000,4225.000
1648.305,14415.000,8476.000,6996.000,6240.000,5653.000,5250.000,4942.000,4666.000,4504.000,4392.000
1653.152,14592.000,8764.000,7212.000,6384.000,5910.000,5536.000,5152.000,4863.000,4775.000,4519.000
1657.996,15200.000,9245.000,7820.000,6995.000,6447.000,6027.000,5772.000,5398.000,5308.000,5139.000
1662.837,15382.000,9402.000,7965.000,7217.000,6623.000,6347.000,5928.000,5695.000,5510.000,5348.000
1667.675,15313.000,9372.000,7641.000,6884.000,6296.000,5838.000,5525.000,5258.000,5122.000,4993.000
1672.513,14762.000,8510.000,7167.000,6234.000,5574.000,5307.000,4975.000,4642.000,4412.000,4314.000
1677.346,14298.000,8230.000,6641.000,5816.000,5262.000,4908.000,4543.000,4263.000,4091.000,3978.000
1682.176,13922.000,7919.000,6403.000,5504.000,5048.000,4575.000,4299.000,4022.000,3861.000,3633.000
1687.004,13619.000,7640.000,6293.000,5318.000,4851.000,4389.000,4081.000,3819.000,3651.000,3499.000
1691.829,13586.000,7503.000,6040.000,5215.000,4686.000,4256.000,3954.000,3733.000,3475.000,3401.000
1696.652,13362.000,7458.000,5960.000,5104.000,4554.000,4136.000,3846.000,3552.000,3399.000,3241.000
1701.472,13514.000,7468.000,6035.000,5078.000,4563.000,4244.000,3818.000,3596.000,3380.000,3245.000
1706.288,13584.000,7430.000,5945.000,5099.000,4487.000,4091.000,3752.000,3575.000,3271.000,3212.000
1711.102,13217.000,7275.000,5799.000,4959.000,4447.000,4048.000,3744.000,3436.000,3244.000,3114.000
1715.914,13210.000,7275.000,5783.000,4945.000,4441.000,4055.000,3599.000,3422.000,3225.000,3091.000
1720.724,13045.000,7074.000,5639.000,4949.000,4305.000,4001.000,3517.000,3363.000,3187.000,3022.000
1725.530,13133.000,7277.000,5754.000,4921.000,4389.000,3967.000,3612.000,3379.000,3185.000,3047.000
1730.333,13175.000,7243.000,5766.000,4930.000,4391.000,3999.000,3627.000,3378.000,3200.000,3039.000
1735.133,13502.000,7287.000,5839.000,4909.000,4434.000,4016.000,3641.000,3389.000,3205.000,3075.000
1739.931,13381.000,7311.000,5836.000,4930.000,4472.000,4012.000,3622.000,3362.000,3200.000,3108.000
1744.728,12936.000,7098.000,5585.000,4853.000,4326.000,3876.000,3558.000,3291.000,3129.000,2984.000
1749.520,13102.000,7127.000,5648.000,4829.000,4279.000,3907.000,3625.000,3349.000,3123.000,2988.000
1754.310,13073.000,7051.000,5560.000,4846.000,4332.000,3853.000,3508.000,3299.000,3127.000,2955.000
1759.097,13245.000,7275.000,5696.000,4877.000,4312.000,3921.000,3609.000,3323.000,3127.000,2943.000
1763.881,13450.000,7273.000,5827.000,4940.000,4384.000,4014.000,3634.000,3348.000,3184.000,3046.000
1768.664,15163.000,7334.000,5723.000,4897.000,4415.000,3950.000,3620.000,3349.000,3162.000,3044.000
1773.443,13185.000,7137.000,5703.000,4866.000,4349.000,3970.000,3536.000,3310.000,3156.000,3017.000
1778.219,12831.000,7065.000,5531.000,4702.000,4214.000,3858.000,3541.000,3219.000,3110.000,2919.000
1782.993,13036.000,7031.000,5601.000,4853.000,4280.000,3952.000,3600.000,3304.000,3113.000,2963.000
1787.764,13626.000,7257.000,5659.000,4904.000,4283.000,3954.000,3574.000,3329.000,3185.000,2990.000
1792.534,13393.000,7218.000,5836.000,4913.000,4397.000,3972.000,3691.000,3359.000,3201.000,3058.000
1797.299,13503.000,7421.000,5830.000,4988.000,4477.000,4065.000,3688.000,3391.000,3215.000,3068.000
1802.062,13241.000,7249.000,5695.000,4891.000,4275.000,3932.000,3552.000,3268.000,3164.000,2930.000
1806.822,13161.000,7113.000,5597.000,4808.000,4246.000,3866.000,3535.000,3265.000,3102.000,2972.000
1811.582,12952.000,7095.000,5652.000,4774.000,4225.000,3868.000,3572.000,3294.000,3047.000,2948.000
1816.336,13324.000,7279.000,5819.000,4867.000,4357.000,4020.000,3679.000,3393.000,3192.000,2998.000
1821.089,13655.000,7383.000,5914.000,5065.000,4415.000,4073.000,3723.000,3379.000,3222.000,3095.000
1825.838,13749.000,7482.000,5849.000,5056.000,4448.000,4069.000,3717.000,3384.000,3267.000,3071.000
1830.585,13516.000,7343.000,5882.000,4951.000,4386.000,4012.000,3592.000,3400.000,3160.000,3052.000
1835.331,13019.000,7144.000,5646.000,4895.000,4194.000,3780.000,3537.000,3286.000,3116.000,2942.000
1840.072,13115.000,7107.000,5745.000,4811.000,4250.000,3870.000,3515.000,3330.000,3134.000,2981.000
1844.811,13382.000,7302.000,5725.000,4924.000,4403.000,4020.000,3651.000,3328.000,3180.000,3034.000
1849.548,13790.000,7624.000,5894.000,5084.000,4500.000,4106.000,3716.000,3425.000,3255.000,3109.000
1854.281,13861.000,7504.000,5931.000,5012.000,4485.000,4118.000,3693.000,3412.000,3271.000,3069.000
1859.014,13335.000,7423.000,5734.000,5029.000,4379.000,3956.000,3639.000,3483.000,3191.000,3084.000
1863.742,13285.000,7278.000,5790.000,4925.000,4374.000,3964.000,3646.000,3354.000,3162.000,3020.000
1868.468,13263.000,7259.000,5790.000,4905.000,4411.000,3977.000,3571.000,3330.000,3109.000,2968.000
1873.191,13497.000,7386.000,5921.000,4992.000,4449.000,4055.000,3672.000,3384.000,3188.000,3096.000
1877.911,13956.000,7502.000,6028.000,5117.000,4558.000,4130.000,3721.000,3437.000,3328.000,3126.000
1882.631,13839.000,7526.000,5960.000,5061.000,4506.000,4039.000,3726.000,3434.000,3304.000,3122.000
1887.346,13466.000,7431.000,5859.000,5051.000,4404.000,4087.000,3688.000,3396.000,3248.000,3063.000
1892.058,13134.000,7238.000,5701.000,4911.000,4403.000,3969.000,3655.000,3359.000,3209.000,3009.000
1896.768,13587.000,7320.000,5790.000,4970.000,4463.000,4007.000,3748.000,3462.000,3214.000,3105.000
1901.476,13620.000,7507.000,5862.000,5070.000,4509.000,4096.000,3717.000,3500.000,3220.000,3107.000
1906.182,13862.000,7528.000,5996.000,5102.000,4497.000,4147.000,3771.000,3468.000,3258.000,3153.000
1910.884,13977.000,7584.000,5906.000,5046.000,4568.000,4130.000,3780.000,3526.000,3347.000,3106.000
1915.583,13414.000,7314.000,5797.000,4985.000,4415.000,4068.000,3642.000,3398.000,3265.000,3080.000
1920.280,13439.000,7423.000,5802.000,5001.000,4439.000,4137.000,3720.000,3416.000,3270.000,3051.000
1924.974,13602.000,7245.000,5823.000,5039.000,4485.000,4088.000,3769.000,3433.000,3238.000,3076.000
1929.668,14025.000,7678.000,6046.000,5071.000,4524.000,4116.000,3736.000,3528.000,3318.000,3169.000
1934.357,13989.000,7600.000,6166.000,5212.000,4561.000,4193.000,3782.000,3552.000,3340.000,3190.000
1939.043,13732.000,7543.000,6008.000,5183.000,4563.000,4082.000,3723.000,3450.000,3294.000,3136.000
1943.727,13810.000,7569.000,5965.000,5116.000,4591.000,4127.000,3773.000,3475.000,3259.000,3174.000
1948.410,13748.000,7592.000,5958.000,5121.000,4529.000,4190.000,3745.000,3467.000,3289.000,3172.000
1953.088,14136.000,7809.000,6107.000,5281.000,4663.000,4202.000,3887.000,3545.000,3317.000,3211.000
1957.764,14362.000,7837.000,6191.000,5372.000,4740.000,4321.000,3853.000,3592.000,3433.000,3245.000
1962.438,14365.000,7839.000,6085.000,5245.000,4718.000,4319.000,3895.000,3648.000,3424.000,3274.000
1967.108,14119.000,7674.000,6156.000,5244.000,4695.000,4187.000,3804.000,3593.000,3433.000,3217.000
1971.778,13991.000,7619.000,6036.000,5130.000,4689.000,4245.000,3877.000,3555.000,3385.000,3249.000
1976.444,14417.000,7779.000,6134.000,5273.000,4724.000,4262.000,3887.000,3628.000,3484.000,3319.000
1981.107,14518.000,7949.000,6291.000,5398.000,4814.000,4389.000,3985.000,3645.000,3537.000,3318.000
1985.767,14606.000,8035.000,6290.000,5405.000,4845.000,4393.000,3939.000,3727.000,3562.000,3418.000
1990.425,14363.000,7946.000,6369.000,5298.000,4709.000,4349.000,3988.000,3678.000,3459.000,3309.000
1995.082,14057.000,7667.000,6054.000,5204.000,4665.000,4335.000,3888.000,3704.000,3419.000,3226.000
1999.735,14298.000,7785.000,6172.000,5295.000,4769.000,4338.000,3981.000,3746.000,3462.000,3353.000
2004.385,14431.000,7904.000,6338.000,5437.000,4848.000,4389.000,4039.000,3790.000,3529.000,3422.000
2009.032,14826.000,8160.000,6549.000,5539.000,4911.000,4477.000,4175.000,3800.000,3676.000,3487.000
2013.677,14793.000,8069.000,6499.000,5605.000,4890.000,4549.000,4116.000,3883.000,3646.000,3534.000
2018.321,14550.000,8038.000,6421.000,5481.000,4921.000,4551.000,4123.000,3863.000,3630.000,3499.000
2022.961,14694.000,8047.000,6490.000,5487.000,4961.000,4610.000,4240.000,3921.000,3716.000,3559.000
2027.598,14605.000,8138.000,6529.000,5654.000,5123.000,4676.000,4255.000,3995.000,3802.000,3658.000