File: Raman/2022_11_26/Data/2022_11_26_Hagfish_Film_Unstreched_532nm_DePol_6mW_750mm_600gv_3200wn_iDus_100s_10accum_Pos1.csv
2487.376,1434.000,1401.000,1373.000,1355.000,1366.000,1314.000,1302.000,1278.000,1302.000,1296.000
2491.734,1456.000,1447.000,1394.000,1377.000,1372.000,1380.000,1327.000,1323.000,1291.000,1291.000
2496.090,1448.000,1414.000,1410.000,1371.000,1366.000,1343.000,1346.000,1329.000,1339.000,1300.000
2500.445,1454.000,1426.000,1404.000,1377.000,1347.000,1333.000,1322.000,1345.000,1309.000,1282.000
2504.796,1451.000,1443.000,1409.000,1361.000,1372.000,1348.000,1347.000,1340.000,1328.000,1283.000
2509.145,1477.000,1439.000,1410.000,1386.000,1365.000,1323.000,1346.000,1358.000,1333.000,1312.000
2513.491,1461.000,1450.000,1407.000,1383.000,1388.000,1335.000,1352.000,1303.000,1339.000,1302.000
2517.837,1481.000,1432.000,1410.000,1399.000,1366.000,1363.000,1357.000,1358.000,1346.000,1311.000
2522.179,1453.000,1449.000,1415.000,1410.000,1371.000,1358.000,1351.000,1351.000,1297.000,1337.000
2526.518,1513.000,1482.000,1388.000,1443.000,1411.000,1383.000,1368.000,1358.000,1335.000,1315.000
2530.855,1461.000,1430.000,1414.000,1416.000,1386.000,1388.000,1389.000,1359.000,1344.000,1323.000
2535.192,1471.000,1471.000,1461.000,1407.000,1372.000,1361.000,1398.000,1362.000,1335.000,1325.000
2539.524,1455.000,1583.000,1414.000,1400.000,1390.000,1368.000,1395.000,1369.000,1359.000,1342.000
2543.855,1501.000,1464.000,1410.000,1408.000,1395.000,1400.000,1372.000,1324.000,1366.000,1360.000
2548.183,1500.000,1491.000,1438.000,1437.000,1413.000,1424.000,1379.000,1368.000,1379.000,1340.000
2552.510,1484.000,1469.000,1434.000,1414.000,1402.000,1388.000,1383.000,1370.000,1353.000,1328.000
2556.833,1470.000,1488.000,1459.000,1452.000,1403.000,1397.000,1434.000,1383.000,1358.000,1354.000
2561.154,1517.000,1453.000,1423.000,1476.000,1391.000,1415.000,1365.000,1360.000,1347.000,1389.000
2565.473,1540.000,1489.000,1477.000,1436.000,1469.000,1424.000,1402.000,1396.000,1382.000,1378.000
2569.791,1524.000,1505.000,1452.000,1424.000,1469.000,1421.000,1407.000,1394.000,1407.000,1365.000
2574.105,1557.000,1499.000,1489.000,1471.000,1448.000,1366.000,1421.000,1350.000,1379.000,1356.000
2578.417,1571.000,1492.000,1473.000,1471.000,1438.000,1436.000,1634.000,1396.000,1365.000,1368.000
2582.727,1537.000,1503.000,1537.000,1495.000,1469.000,1447.000,1487.000,1401.000,1411.000,1383.000
2587.036,1551.000,1485.000,1503.000,1449.000,1453.000,1466.000,1453.000,1400.000,1409.000,1405.000
2591.341,1560.000,1536.000,1481.000,1499.000,1424.000,1427.000,1418.000,1392.000,1428.000,1369.000
2595.643,1556.000,1531.000,1518.000,1471.000,1463.000,1452.000,1406.000,1447.000,1383.000,1375.000
2599.944,1571.000,1524.000,1523.000,1516.000,1455.000,1426.000,1450.000,1402.000,1396.000,1400.000
2604.243,1522.000,1551.000,1543.000,1501.000,1465.000,1438.000,1466.000,1434.000,1412.000,1399.000
2608.539,1546.000,1563.000,1511.000,1482.000,1491.000,1464.000,1423.000,1418.000,1418.000,1425.000
2612.833,1602.000,1543.000,1478.000,1495.000,1466.000,1460.000,1443.000,1443.000,1422.000,1389.000
2617.124,1603.000,1566.000,1547.000,1519.000,2594.000,1454.000,1450.000,1441.000,1454.000,1395.000
2621.415,1616.000,1584.000,1554.000,1536.000,1468.000,1438.000,1470.000,1444.000,1416.000,1442.000
2625.702,1593.000,1560.000,1520.000,1507.000,1481.000,1450.000,1441.000,1419.000,1454.000,1414.000
2629.986,1609.000,1551.000,1574.000,1546.000,1504.000,1497.000,1439.000,1426.000,1455.000,1416.000
2634.268,1615.000,1551.000,1584.000,1536.000,1510.000,1455.000,1442.000,1449.000,1456.000,1429.000
2638.550,1640.000,1556.000,1558.000,1516.000,1499.000,1505.000,1488.000,1471.000,1419.000,1426.000
2642.827,1629.000,1591.000,1588.000,1513.000,1502.000,1496.000,1453.000,1469.000,1476.000,1457.000
2647.103,1627.000,1582.000,1542.000,1573.000,1523.000,1482.000,1469.000,1448.000,1438.000,1441.000
2651.376,1648.000,1587.000,1564.000,1546.000,1533.000,1506.000,1466.000,1467.000,1469.000,1446.000
2655.649,1873.000,1608.000,1548.000,1562.000,1511.000,1496.000,1477.000,1507.000,1458.000,1454.000
2659.917,1642.000,1618.000,1581.000,1568.000,1526.000,1506.000,1522.000,1444.000,1463.000,1487.000
2664.184,1618.000,1634.000,1570.000,1632.000,1526.000,1465.000,1467.000,1505.000,1472.000,1476.000
2668.448,1601.000,1615.000,1567.000,1543.000,1514.000,1540.000,1491.000,1476.000,1453.000,1428.000
2672.711,1666.000,1640.000,1575.000,1528.000,1512.000,1497.000,1495.000,1497.000,1478.000,1467.000
2676.971,1646.000,1596.000,1579.000,1599.000,1546.000,1543.000,1539.000,1467.000,1503.000,1474.000
2681.228,1631.000,1664.000,1567.000,1554.000,1550.000,1519.000,1516.000,1449.000,1471.000,1474.000
2685.483,1652.000,1634.000,1581.000,1548.000,1562.000,1536.000,1485.000,1505.000,1494.000,1483.000
2689.738,1625.000,1636.000,1630.000,1597.000,1552.000,1533.000,1537.000,1543.000,1472.000,1476.000
2693.988,1658.000,1651.000,1596.000,1563.000,1579.000,1518.000,1522.000,1496.000,1508.000,1468.000
2698.237,1629.000,1633.000,1600.000,1571.000,1566.000,1560.000,1516.000,1507.000,1472.000,1474.000
2702.483,1690.000,1631.000,1616.000,1591.000,1558.000,1566.000,1539.000,1488.000,1503.000,1490.000
2706.728,1676.000,1681.000,1616.000,1575.000,1585.000,1530.000,1503.000,1545.000,1514.000,1519.000
2710.970,1670.000,1679.000,1607.000,1561.000,1603.000,1536.000,1545.000,1516.000,1498.000,1461.000
2715.209,1704.000,1687.000,1613.000,1586.000,1565.000,1559.000,1523.000,1504.000,1501.000,1499.000
2719.447,3139.000,1663.000,1626.000,1598.000,1600.000,1573.000,1570.000,1516.000,1501.000,1514.000
2723.683,1723.000,1698.000,1618.000,1618.000,1598.000,1568.000,1541.000,1541.000,1530.000,1484.000
2727.916,1701.000,1674.000,1663.000,1595.000,1593.000,1567.000,1575.000,1536.000,1533.000,1530.000
2732.146,1719.000,1655.000,1641.000,1626.000,1571.000,1570.000,1545.000,1542.000,1527.000,1497.000
2736.375,1692.000,1702.000,1671.000,1661.000,1573.000,1548.000,1542.000,1510.000,1559.000,1513.000
2740.602,1714.000,1676.000,1694.000,1600.000,1579.000,1564.000,1566.000,1555.000,1544.000,1489.000
2744.826,1725.000,1729.000,1665.000,1616.000,1625.000,1613.000,1558.000,1544.000,1573.000,1547.000
2749.048,1714.000,1689.000,1649.000,1619.000,1598.000,1603.000,1579.000,1552.000,1564.000,1572.000
2753.267,1748.000,1703.000,1672.000,1637.000,1643.000,1592.000,1540.000,1575.000,1552.000,1542.000
2757.486,1732.000,1687.000,1660.000,1615.000,1625.000,1583.000,1587.000,1549.000,1555.000,1536.000
2761.701,1726.000,1717.000,1657.000,1641.000,1607.000,1599.000,1544.000,2588.000,1581.000,1549.000
2765.913,1732.000,1730.000,1662.000,1649.000,1620.000,1599.000,1550.000,1566.000,1557.000,1538.000
2770.124,2073.000,1683.000,1666.000,1628.000,1648.000,1621.000,1587.000,1541.000,1566.000,1540.000
2774.334,1742.000,1716.000,1641.000,1631.000,1628.000,1599.000,1579.000,1604.000,1571.000,1551.000
2778.540,1717.000,1722.000,1684.000,1651.000,1631.000,1625.000,1618.000,1592.000,1549.000,1560.000
2782.744,1730.000,1716.000,1684.000,1671.000,1630.000,1652.000,1580.000,1598.000,1569.000,1562.000
2786.946,1776.000,1689.000,1680.000,1697.000,1657.000,1588.000,1591.000,1566.000,1597.000,1545.000
2791.147,1760.000,1740.000,1668.000,1684.000,1618.000,1629.000,1595.000,1589.000,1591.000,1567.000
2795.344,1731.000,1716.000,1717.000,1666.000,1654.000,1585.000,1607.000,1549.000,1531.000,1631.000
2799.539,1736.000,1714.000,1695.000,1668.000,1640.000,1627.000,1622.000,1612.000,1603.000,1586.000
2803.732,1752.000,1726.000,1684.000,1651.000,1626.000,1599.000,1617.000,1566.000,1578.000,1555.000
2807.924,1787.000,1722.000,1713.000,1690.000,1651.000,1632.000,1634.000,1610.000,1561.000,1557.000
2812.113,1762.000,1726.000,1705.000,1655.000,1637.000,1643.000,1572.000,1607.000,1599.000,1569.000
2816.299,1777.000,1760.000,1751.000,1692.000,1695.000,1638.000,1644.000,1617.000,1589.000,1562.000
2820.483,1749.000,1734.000,1701.000,1687.000,1668.000,1603.000,1611.000,1630.000,1606.000,1582.000
2824.666,1777.000,1746.000,1719.000,1640.000,1658.000,1672.000,1619.000,1637.000,1556.000,1559.000
2828.846,1738.000,1786.000,1720.000,1690.000,1695.000,1669.000,1646.000,1600.000,1576.000,1581.000
2833.024,1795.000,1759.000,1691.000,1664.000,1670.000,1619.000,1658.000,1574.000,1611.000,1570.000
2837.199,1779.000,1731.000,1719.000,1697.000,1644.000,1644.000,1654.000,1596.000,1610.000,1584.000
2841.374,1768.000,1721.000,1714.000,1728.000,1720.000,1630.000,1624.000,1617.000,1602.000,1616.000
2845.545,1767.000,1778.000,1732.000,1697.000,1691.000,1642.000,1641.000,1598.000,1590.000,1593.000
2849.714,1847.000,1760.000,1742.000,1721.000,1676.000,1636.000,1664.000,1648.000,1621.000,1596.000
2853.880,1843.000,1809.000,1769.000,1768.000,1708.000,1687.000,1653.000,1654.000,1666.000,1620.000
2858.046,1834.000,1817.000,1803.000,1764.000,1754.000,1680.000,1677.000,1623.000,1641.000,1628.000
2862.208,1822.000,1833.000,1757.000,1760.000,1759.000,1737.000,1731.000,1673.000,1677.000,1677.000
2866.368,1906.000,1829.000,1823.000,1808.000,1794.000,1720.000,1680.000,1666.000,1711.000,1671.000
2870.526,1907.000,1867.000,1854.000,1836.000,1790.000,1732.000,1712.000,1695.000,1716.000,1685.000
2874.684,1933.000,1869.000,1851.000,1829.000,1832.000,1742.000,1726.000,1730.000,1748.000,1689.000
2878.837,1994.000,1894.000,1851.000,1853.000,1835.000,1763.000,1801.000,1778.000,1770.000,1765.000
2882.989,2039.000,1953.000,1891.000,1905.000,1887.000,1897.000,1854.000,1844.000,1808.000,1791.000
2887.138,2074.000,2042.000,1987.000,1983.000,1922.000,1965.000,1949.000,1866.000,1863.000,1879.000
2891.287,2115.000,2088.000,2025.000,2065.000,1977.000,1954.000,1938.000,1938.000,1934.000,1897.000
2895.432,2114.000,2105.000,2017.000,2036.000,2014.000,1978.000,1965.000,1944.000,1903.000,1929.000
2899.574,2114.000,2084.000,2035.000,2027.000,2000.000,1995.000,1930.000,1939.000,1931.000,1939.000
2903.715,2163.000,2145.000,2105.000,2061.000,1985.000,2009.000,1935.000,1934.000,1949.000,1937.000
2907.855,2183.000,2128.000,2081.000,2059.000,2064.000,2042.000,1943.000,2951.000,1949.000,1930.000
2911.991,2187.000,2165.000,2101.000,2103.000,2061.000,2005.000,1997.000,2014.000,1997.000,1971.000
2916.125,2157.000,2191.000,2161.000,2083.000,2121.000,2083.000,2031.000,1994.000,2029.000,1984.000
2920.257,2250.000,2179.000,2202.000,2152.000,2142.000,2051.000,2099.000,2080.000,2048.000,2084.000
2924.389,2227.000,2252.000,2193.000,2182.000,2125.000,2108.000,2144.000,2075.000,2116.000,2097.000
2928.516,2280.000,2273.000,2235.000,2192.000,2192.000,2173.000,2145.000,2200.000,2155.000,2098.000
2932.642,2359.000,2361.000,2272.000,2446.000,2168.000,2179.000,2170.000,2136.000,2124.000,2136.000
2936.765,2360.000,2277.000,2250.000,2279.000,2224.000,2243.000,2210.000,2164.000,2174.000,2153.000
2940.888,2333.000,2342.000,2266.000,2258.000,2224.000,2206.000,2210.000,2168.000,2143.000,2161.000
2945.007,2397.000,2314.000,2300.000,2268.000,2233.000,2234.000,2171.000,2178.000,2187.000,2137.000
2949.124,2338.000,2375.000,2303.000,2305.000,2236.000,2212.000,2169.000,2193.000,2188.000,2113.000
2953.239,2418.000,2372.000,2303.000,2257.000,2264.000,2231.000,2146.000,2194.000,2156.000,2180.000
2957.353,2340.000,2341.000,2316.000,2261.000,2255.000,2179.000,2178.000,2175.000,2192.000,2193.000
2961.464,2439.000,2405.000,2333.000,2329.000,2295.000,2302.000,2227.000,2291.000,2246.000,2218.000
2965.572,2418.000,2437.000,2374.000,2362.000,2339.000,2308.000,2304.000,2278.000,2284.000,2241.000
2969.679,2509.000,2489.000,2402.000,2352.000,2382.000,2366.000,2289.000,2306.000,2298.000,2289.000
2973.784,2504.000,2482.000,2400.000,2392.000,2362.000,2325.000,2319.000,2283.000,2297.000,2267.000
2977.886,2563.000,2471.000,2388.000,2390.000,2404.000,2352.000,2374.000,2359.000,2343.000,2288.000
2981.986,2479.000,2444.000,2380.000,2357.000,2310.000,2354.000,2292.000,2303.000,2264.000,2290.000
2986.084,2517.000,2391.000,2361.000,2387.000,2355.000,2293.000,2276.000,2236.000,2289.000,2256.000
2990.181,2406.000,2383.000,2322.000,2319.000,2286.000,2280.000,2230.000,2233.000,2216.000,2243.000
2994.275,2323.000,2312.000,2251.000,2269.000,2213.000,2199.000,2146.000,2162.000,2143.000,2153.000
2998.366,2266.000,2271.000,2195.000,2187.000,2188.000,2083.000,2073.000,2083.000,2059.000,2055.000
3002.456,2239.000,2169.000,2158.000,2169.000,2142.000,2052.000,2062.000,2010.000,1968.000,2006.000
3006.544,2150.000,2150.000,2112.000,2057.000,2036.000,2019.000,1953.000,1980.000,1949.000,1954.000
3010.629,2087.000,2057.000,2041.000,1999.000,1984.000,1965.000,1944.000,1912.000,1905.000,1862.000
3014.712,2054.000,2063.000,1973.000,1960.000,1923.000,1890.000,1875.000,1866.000,1899.000,1810.000
3018.793,2026.000,2003.000,1944.000,1954.000,1898.000,1906.000,1863.000,1873.000,1796.000,1810.000
3022.874,1991.000,1962.000,1979.000,1898.000,1896.000,1863.000,1820.000,1817.000,1779.000,1808.000
3026.950,1997.000,2022.000,1973.000,1906.000,1857.000,1850.000,1841.000,1789.000,1819.000,1791.000
3031.025,1989.000,1949.000,1929.000,1911.000,1869.000,1813.000,1800.000,1774.000,1792.000,1783.000
3035.097,2028.000,1958.000,1927.000,1854.000,1857.000,1876.000,1841.000,1795.000,1844.000,1741.000
3039.169,1987.000,1970.000,1970.000,1850.000,1869.000,1843.000,1824.000,1832.000,1790.000,1784.000
3043.237,2013.000,1983.000,1892.000,1908.000,1882.000,1841.000,1835.000,1822.000,1832.000,1783.000
3047.303,2052.000,2025.000,2007.000,1910.000,1874.000,1892.000,1855.000,1895.000,1829.000,1821.000
3051.367,2067.000,1956.000,1958.000,1921.000,1896.000,1892.000,1879.000,1823.000,1791.000,1782.000
3055.431,2030.000,1965.000,1945.000,1925.000,1894.000,1819.000,1863.000,1867.000,1811.000,1847.000
3059.491,2043.000,2031.000,1939.000,1937.000,1884.000,1911.000,1956.000,1865.000,1825.000,1804.000
3063.548,2056.000,1986.000,1949.000,1885.000,1844.000,1900.000,1829.000,1868.000,1834.000,1820.000
3067.604,2041.000,1969.000,1981.000,1936.000,1934.000,1876.000,1852.000,1880.000,1816.000,1857.000
3071.659,2013.000,1968.000,1923.000,1892.000,1856.000,1856.000,1845.000,1848.000,1782.000,1808.000
3075.711,2049.000,1932.000,1892.000,1899.000,1879.000,1839.000,1787.000,1824.000,1849.000,1793.000
3079.760,1978.000,1975.000,1941.000,1882.000,1827.000,1790.000,1810.000,1803.000,1780.000,1755.000
3083.807,1976.000,1958.000,1912.000,1864.000,1906.000,1840.000,1790.000,1792.000,1781.000,1749.000
3087.854,1936.000,1941.000,1844.000,1865.000,1791.000,1817.000,1737.000,1795.000,1780.000,1747.000
3091.897,1993.000,1957.000,1880.000,1895.000,1797.000,1808.000,1790.000,1783.000,1774.000,1771.000
3095.938,1913.000,1935.000,1871.000,1860.000,1852.000,1790.000,1772.000,1765.000,1779.000,1758.000
3099.977,2492.000,1915.000,1875.000,1855.000,1812.000,1801.000,1767.000,1777.000,1745.000,1763.000
3104.015,1908.000,1931.000,1862.000,1882.000,1781.000,1776.000,1777.000,1736.000,1779.000,1739.000
3108.050,1943.000,1880.000,1852.000,1826.000,1814.000,1782.000,1813.000,1760.000,1759.000,1736.000
3112.083,1915.000,1871.000,1853.000,1855.000,1791.000,1774.000,1776.000,1714.000,1725.000,1705.000
3116.114,1934.000,1938.000,1856.000,1815.000,1819.000,1796.000,1706.000,1729.000,1731.000,2349.000
3120.144,1931.000,1906.000,1841.000,1842.000,1816.000,1771.000,1712.000,1733.000,1760.000,1691.000
3124.170,1966.000,1888.000,1825.000,1826.000,1844.000,1776.000,1762.000,1740.000,1749.000,1738.000
3128.195,1951.000,1880.000,1837.000,1795.000,1825.000,1771.000,1726.000,1711.000,1729.000,1678.000
3132.217,1934.000,1924.000,1844.000,1789.000,1799.000,1771.000,1761.000,1725.000,1749.000,1719.000
3136.239,1955.000,1940.000,1843.000,1825.000,1829.000,1779.000,1731.000,1735.000,1744.000,1727.000
3140.257,1917.000,1887.000,1857.000,1824.000,1804.000,1793.000,1743.000,1754.000,1725.000,1728.000
3144.273,1895.000,1940.000,1834.000,1822.000,1778.000,1781.000,1739.000,1724.000,1677.000,1735.000
3148.288,1943.000,1881.000,1815.000,1837.000,1781.000,1752.000,1777.000,1763.000,1703.000,1746.000
3152.301,1911.000,1859.000,1824.000,1819.000,1804.000,1757.000,1771.000,1732.000,1724.000,1727.000
3156.311,1937.000,1871.000,1888.000,1823.000,1803.000,1758.000,1748.000,1755.000,1725.000,1703.000
3160.319,1935.000,1881.000,1837.000,1813.000,1757.000,1748.000,1729.000,1731.000,1699.000,1700.000
3164.325,1971.000,1931.000,1853.000,1841.000,1796.000,1785.000,1735.000,1718.000,1750.000,1714.000
3168.330,1945.000,1843.000,1832.000,1799.000,1767.000,1731.000,1768.000,1749.000,1681.000,1716.000
3172.332,1933.000,1902.000,1855.000,1820.000,1815.000,1791.000,1739.000,1753.000,1734.000,1700.000
3176.332,1953.000,1863.000,1828.000,1819.000,1818.000,1774.000,1735.000,1700.000,1747.000,1706.000
3180.330,1952.000,1904.000,1847.000,1819.000,1820.000,1783.000,1779.000,1732.000,1732.000,1715.000
3184.327,1957.000,1865.000,1814.000,1837.000,1777.000,1787.000,1758.000,1739.000,1743.000,1696.000
3188.320,1957.000,1922.000,1870.000,2077.000,1801.000,1754.000,1757.000,1730.000,1732.000,1714.000
3192.312,1954.000,1855.000,1823.000,1797.000,1815.000,1780.000,1771.000,1712.000,1731.000,1683.000
3196.302,1945.000,1922.000,1904.000,1867.000,1845.000,1829.000,1791.000,1771.000,1777.000,1762.000
3200.291,1937.000,1927.000,1867.000,1831.000,1836.000,1749.000,1767.000,1775.000,1711.000,1728.000
3204.276,1997.000,1910.000,1852.000,1841.000,1808.000,1801.000,1734.000,1736.000,1721.000,1746.000
3208.259,1916.000,1936.000,1867.000,1849.000,1777.000,1802.000,1746.000,1742.000,1729.000,1753.000
3212.241,1945.000,1906.000,1902.000,1845.000,1844.000,1789.000,1749.000,1744.000,1736.000,1741.000
3216.222,1896.000,1928.000,1879.000,1870.000,1780.000,1791.000,1775.000,1770.000,1734.000,1754.000
3220.199,1955.000,1937.000,1901.000,1870.000,1835.000,1796.000,1744.000,1743.000,1744.000,1748.000
3224.174,1963.000,1930.000,1909.000,1872.000,1852.000,1852.000,1777.000,1742.000,1721.000,1745.000
3228.148,1994.000,1965.000,1872.000,1877.000,1863.000,1797.000,1790.000,1800.000,1739.000,1717.000
3232.120,1996.000,1924.000,1884.000,1832.000,1830.000,1791.000,1804.000,1749.000,1738.000,1787.000
3236.090,1946.000,1889.000,1854.000,1852.000,1869.000,1823.000,1775.000,1742.000,1749.000,1735.000
3240.057,1978.000,1920.000,1904.000,1867.000,1882.000,1850.000,1786.000,1764.000,1823.000,2072.000
3244.022,1995.000,1904.000,1895.000,1892.000,1883.000,1828.000,1785.000,1771.000,1792.000,1759.000
3247.987,1961.000,1970.000,1911.000,1903.000,1847.000,1829.000,1821.000,1782.000,2123.000,1758.000
3251.948,1963.000,1975.000,1908.000,1887.000,1803.000,1855.000,1802.000,1770.000,1759.000,1763.000
3255.907,2022.000,1982.000,1891.000,1913.000,1870.000,1794.000,1802.000,1794.000,1786.000,1791.000
3259.864,1980.000,1961.000,1948.000,1947.000,1853.000,1825.000,1814.000,1805.000,1794.000,1759.000
3263.820,1973.000,1975.000,1924.000,1918.000,1842.000,1859.000,1807.000,1792.000,1830.000,1782.000
3267.773,1972.000,1933.000,1930.000,1890.000,1887.000,1802.000,1815.000,1814.000,1786.000,1739.000
3271.725,2006.000,1947.000,1929.000,1966.000,1882.000,1861.000,1859.000,1814.000,1777.000,1771.000
3275.674,2079.000,2007.000,1958.000,1905.000,1864.000,1838.000,1851.000,1792.000,1823.000,1765.000
3279.622,2013.000,1971.000,1929.000,1958.000,1884.000,1823.000,1820.000,1802.000,1806.000,1820.000
3283.567,1995.000,1988.000,1890.000,1895.000,1917.000,1843.000,1828.000,1802.000,1784.000,1781.000
3287.510,1981.000,1958.000,1935.000,1930.000,1902.000,1859.000,1847.000,1841.000,1813.000,1783.000
3291.451,2041.000,1955.000,1944.000,1901.000,1889.000,1836.000,1830.000,1837.000,1793.000,1781.000
3295.392,1991.000,1958.000,1947.000,1919.000,1868.000,1867.000,1819.000,1836.000,1791.000,1793.000
3299.329,2014.000,2001.000,1922.000,1919.000,1869.000,1859.000,1862.000,1810.000,1789.000,1800.000
3303.264,1979.000,1983.000,1951.000,1909.000,1889.000,1851.000,1823.000,1791.000,1792.000,1790.000
3307.197,1992.000,1979.000,1957.000,1917.000,1871.000,1849.000,1807.000,1805.000,1765.000,1803.000
3311.129,2062.000,1966.000,1915.000,1868.000,1868.000,1861.000,1855.000,1822.000,1769.000,1804.000
3315.058,2027.000,1997.000,1916.000,1878.000,1824.000,1821.000,1814.000,1771.000,1799.000,1771.000
3318.985,1978.000,1968.000,1890.000,1909.000,1894.000,1799.000,1810.000,1799.000,1826.000,1790.000
3322.910,1976.000,1957.000,1930.000,1887.000,1857.000,1885.000,1829.000,1795.000,1787.000,1766.000
3326.835,1961.000,2011.000,1932.000,1859.000,1870.000,1822.000,1803.000,1812.000,1807.000,1791.000
3330.756,1973.000,1909.000,1941.000,1872.000,1878.000,1820.000,1798.000,1822.000,1754.000,1764.000
3334.675,2019.000,1946.000,1909.000,1887.000,1878.000,1804.000,1823.000,1791.000,1754.000,1779.000
3338.592,1954.000,1963.000,1940.000,1897.000,1841.000,1827.000,1780.000,1770.000,1777.000,1760.000
3342.509,2025.000,1930.000,1888.000,1900.000,1863.000,1852.000,1835.000,1802.000,1788.000,1775.000
3346.422,1966.000,1956.000,1859.000,1877.000,1883.000,1798.000,1815.000,1766.000,1731.000,1824.000
3350.333,2050.000,1969.000,1950.000,1883.000,1849.000,1802.000,1858.000,1742.000,1749.000,1756.000
3354.242,1983.000,1958.000,1929.000,1904.000,1851.000,1825.000,1775.000,1747.000,1817.000,1731.000
3358.151,2006.000,1969.000,1881.000,1860.000,1849.000,1819.000,1788.000,1818.000,1804.000,1785.000
3362.056,1993.000,1926.000,1887.000,1902.000,1839.000,1826.000,1767.000,1778.000,1781.000,1767.000
3365.959,1980.000,1979.000,1896.000,1870.000,1857.000,1845.000,1811.000,1787.000,1738.000,1755.000
3369.860,1955.000,1894.000,1935.000,1878.000,1835.000,1837.000,1786.000,1777.000,1777.000,1748.000
3373.761,2017.000,1945.000,1920.000,1844.000,1822.000,1829.000,1769.000,1719.000,1746.000,1764.000
3377.658,1997.000,1949.000,1969.000,1851.000,1884.000,1816.000,1812.000,1746.000,1781.000,1790.000
3381.554,1958.000,1963.000,1898.000,1863.000,1847.000,1834.000,1802.000,1796.000,1746.000,1749.000
3385.447,1981.000,1952.000,1920.000,1863.000,1857.000,1835.000,1807.000,1782.000,1783.000,1769.000
3389.340,2011.000,1972.000,1935.000,1869.000,1829.000,1824.000,1783.000,1741.000,1762.000,1779.000
3393.229,1982.000,1922.000,1932.000,1886.000,1858.000,1781.000,1763.000,1803.000,1752.000,1746.000
3397.117,1937.000,1915.000,1871.000,1877.000,1839.000,1796.000,1794.000,1787.000,1754.000,1791.000
3401.002,1981.000,1954.000,1913.000,1913.000,1836.000,1827.000,1799.000,1771.000,1755.000,1763.000
3404.887,1968.000,1895.000,1882.000,1824.000,1810.000,1795.000,1797.000,1751.000,1768.000,1754.000
3408.769,2013.000,1897.000,1861.000,1838.000,1869.000,1846.000,1773.000,1770.000,1733.000,1743.000
3412.649,2000.000,1944.000,1888.000,1840.000,1824.000,1793.000,1756.000,1724.000,1790.000,1740.000
3416.526,1962.000,1891.000,1931.000,1877.000,1838.000,1796.000,1764.000,1769.000,1783.000,1756.000
3420.404,1917.000,1932.000,1854.000,1839.000,1795.000,1789.000,1759.000,1747.000,1763.000,1760.000
3424.277,1992.000,1933.000,1918.000,1857.000,1815.000,1824.000,1810.000,1748.000,1777.000,1783.000
3428.149,1995.000,1848.000,1858.000,1844.000,1781.000,1802.000,1761.000,1769.000,1729.000,1707.000
3432.019,1974.000,1996.000,1884.000,1852.000,1782.000,1818.000,1784.000,1748.000,1739.000,1733.000
3435.888,1946.000,1913.000,1888.000,1825.000,1830.000,1794.000,1720.000,1728.000,1740.000,1749.000
3439.754,1960.000,1930.000,1874.000,1820.000,1846.000,1780.000,1750.000,1760.000,1757.000,1731.000
3443.618,1948.000,1887.000,1837.000,1849.000,1813.000,1787.000,1784.000,1763.000,1754.000,1724.000
3447.481,1953.000,1936.000,1898.000,1859.000,1804.000,1780.000,1792.000,1741.000,1708.000,1752.000
3451.342,1901.000,1938.000,1855.000,1832.000,1824.000,1791.000,1728.000,1740.000,1727.000,1743.000
3455.200,1995.000,1918.000,1846.000,1822.000,1813.000,1765.000,1767.000,1762.000,1733.000,1709.000
3459.057,1939.000,1887.000,1850.000,1846.000,1809.000,1777.000,1735.000,1694.000,1685.000,1728.000
3462.911,1958.000,1864.000,1836.000,1793.000,1812.000,1767.000,1714.000,1734.000,1691.000,1719.000
3466.765,1960.000,1930.000,1851.000,1865.000,1799.000,1806.000,1755.000,1742.000,1729.000,1754.000
3470.615,1953.000,1914.000,1865.000,1872.000,1846.000,1772.000,1748.000,1715.000,1740.000,1692.000
3474.464,1914.000,1919.000,1849.000,1853.000,1811.000,1780.000,1758.000,1739.000,1712.000,1707.000
3478.310,1956.000,1951.000,1910.000,1872.000,1827.000,1783.000,1810.000,1784.000,1697.000,1731.000
3482.156,1946.000,1919.000,1878.000,1829.000,1801.000,1787.000,1771.000,1763.000,1704.000,1740.000
3485.999,1920.000,1894.000,1862.000,1832.000,1816.000,1773.000,1723.000,1692.000,1707.000,1728.000
3489.840,1955.000,1901.000,1813.000,1861.000,1843.000,1803.000,1736.000,1780.000,1718.000,1691.000
3493.679,1961.000,1883.000,1858.000,1847.000,1778.000,1766.000,1755.000,1793.000,1713.000,1736.000
3497.517,1963.000,1905.000,1869.000,1799.000,1795.000,1786.000,1746.000,1721.000,1719.000,1726.000
3501.352,1979.000,1889.000,1846.000,1817.000,1817.000,1765.000,1755.000,1765.000,1730.000,1702.000
3505.185,1941.000,1883.000,1840.000,1823.000,1785.000,1823.000,1734.000,1751.000,1758.000,1706.000
3509.017,1946.000,1873.000,1855.000,1804.000,1809.000,1791.000,1728.000,1728.000,1727.000,1685.000
3512.847,1954.000,1917.000,1853.000,1845.000,1798.000,1791.000,1798.000,1719.000,1727.000,1738.000
3516.675,1963.000,1905.000,1859.000,1834.000,1782.000,1831.000,1751.000,1764.000,1723.000,1688.000
3520.500,1891.000,1889.000,1860.000,1844.000,1818.000,1802.000,1755.000,1731.000,1716.000,1660.000
3524.324,1909.000,1890.000,1872.000,1854.000,1790.000,1774.000,1766.000,1774.000,1733.000,1754.000
3528.147,1961.000,1918.000,1845.000,1828.000,1819.000,1779.000,1746.000,1705.000,1729.000,1736.000
3531.966,1929.000,1881.000,1823.000,1812.000,1808.000,1809.000,1747.000,1713.000,1752.000,1741.000
3535.784,1902.000,1893.000,1844.000,1805.000,1812.000,1751.000,1732.000,1752.000,1757.000,1723.000
3539.600,1960.000,1921.000,1862.000,1874.000,1814.000,1783.000,1731.000,1726.000,1732.000,1734.000
3543.415,1941.000,1942.000,1855.000,1862.000,1818.000,1769.000,1725.000,1694.000,1718.000,1743.000
3547.227,1936.000,1916.000,1838.000,1859.000,1785.000,1786.000,1731.000,1716.000,1713.000,1735.000
3551.037,1910.000,1912.000,1838.000,1824.000,1827.000,1793.000,1748.000,1706.000,1713.000,1708.000
3554.846,1926.000,1909.000,1863.000,1851.000,1851.000,1766.000,1761.000,1728.000,1722.000,1709.000
3558.653,1907.000,1873.000,1830.000,1811.000,1811.000,1751.000,1784.000,1705.000,1758.000,1656.000
3562.458,1956.000,1833.000,1862.000,1826.000,1785.000,1783.000,1758.000,1763.000,1764.000,1710.000
3566.260,1941.000,1906.000,1864.000,1813.000,1789.000,1785.000,1733.000,1743.000,1708.000,1704.000
3570.061,1928.000,1894.000,1859.000,1802.000,1796.000,1756.000,1766.000,1717.000,1733.000,1716.000
3573.861,1909.000,1902.000,1809.000,1840.000,1815.000,1765.000,1742.000,1746.000,1763.000,1712.000
3577.658,1883.000,1896.000,1853.000,1808.000,1803.000,1761.000,1753.000,1726.000,1696.000,1722.000
3581.453,1911.000,1874.000,1807.000,1809.000,1848.000,1773.000,1759.000,1713.000,1711.000,1669.000
3585.246,1886.000,1896.000,1855.000,1806.000,1787.000,1750.000,1750.000,1739.000,1706.000,1708.000
3589.039,1940.000,1881.000,1878.000,1826.000,1794.000,1779.000,1737.000,1702.000,1710.000,1683.000
3592.828,1911.000,1893.000,1857.000,1845.000,1787.000,1759.000,1709.000,1775.000,1729.000,1692.000
3596.615,1930.000,1879.000,1845.000,1817.000,1822.000,1775.000,1739.000,1750.000,1712.000,1715.000
3600.401,1932.000,1904.000,1855.000,1821.000,1779.000,1769.000,1762.000,1726.000,1731.000,1669.000
3604.186,1902.000,1870.000,1835.000,1839.000,1831.000,1772.000,1715.000,1726.000,1709.000,1720.000
3607.968,1923.000,1868.000,1825.000,1811.000,1950.000,1780.000,1752.000,1722.000,1760.000,1700.000
3611.748,1896.000,1885.000,1880.000,1814.000,1786.000,1758.000,1757.000,1733.000,1728.000,1746.000
3615.526,1974.000,1889.000,1841.000,1784.000,1772.000,1752.000,1760.000,1717.000,1696.000,1702.000
3619.303,1939.000,1883.000,1843.000,1849.000,1754.000,1776.000,1769.000,1741.000,1731.000,1686.000
3623.077,1933.000,1899.000,1798.000,1808.000,1797.000,1748.000,1767.000,1690.000,1707.000,1659.000
3626.850,1933.000,1907.000,1868.000,1835.000,1832.000,1714.000,1765.000,1739.000,1734.000,1696.000
3630.620,1932.000,1883.000,1855.000,1835.000,1780.000,1781.000,1767.000,1733.000,1689.000,1715.000
3634.389,1895.000,1870.000,1860.000,1823.000,1811.000,1765.000,1780.000,1748.000,1718.000,1705.000
3638.157,1938.000,1939.000,1864.000,1814.000,1815.000,1760.000,1766.000,1704.000,1745.000,1696.000
3641.922,1914.000,1880.000,1838.000,1841.000,1803.000,1838.000,1726.000,1714.000,1729.000,1718.000
3645.685,1939.000,1880.000,1856.000,1855.000,1772.000,4063.000,1757.000,1727.000,1688.000,1713.000
3649.447,1950.000,1880.000,1875.000,1844.000,1782.000,1795.000,1731.000,1742.000,1729.000,1662.000
3653.206,1907.000,1885.000,1861.000,1823.000,1811.000,1806.000,1756.000,1752.000,1709.000,1723.000
3656.964,1886.000,1891.000,1860.000,1821.000,1777.000,1727.000,1693.000,1751.000,1714.000,1710.000
3660.719,1945.000,1907.000,1877.000,1860.000,1819.000,1770.000,1741.000,1787.000,1747.000,1702.000
3664.473,1928.000,1919.000,1870.000,1834.000,1749.000,1802.000,1770.000,1743.000,1748.000,1706.000
3668.226,1951.000,1888.000,1845.000,1837.000,1818.000,1751.000,1725.000,1700.000,1714.000,1696.000
3671.976,1924.000,1915.000,1834.000,1834.000,1811.000,1769.000,1732.000,1716.000,1701.000,1681.000
3675.724,1936.000,2021.000,1817.000,1863.000,1806.000,5153.000,1775.000,1759.000,1723.000,1712.000
3679.472,1962.000,1925.000,1869.000,1831.000,1817.000,1743.000,1774.000,1717.000,1726.000,1715.000
3683.216,1964.000,1913.000,1849.000,1873.000,1839.000,1810.000,1748.000,1751.000,1719.000,1742.000
3686.959,1988.000,1921.000,1880.000,1905.000,1806.000,1798.000,1763.000,1737.000,1736.000,1697.000
3690.699,1975.000,1934.000,1915.000,1824.000,1809.000,1752.000,1748.000,1784.000,1719.000,1727.000
3694.438,1933.000,1918.000,1892.000,1859.000,1772.000,1749.000,1749.000,1777.000,1707.000,1732.000
3698.177,1956.000,1930.000,1832.000,1858.000,1783.000,1743.000,1791.000,1785.000,1718.000,1723.000
3701.912,1962.000,1900.000,1873.000,1820.000,1835.000,1758.000,1749.000,1718.000,1739.000,1756.000
3705.645,1965.000,1925.000,1837.000,1824.000,1794.000,1755.000,1752.000,1712.000,1739.000,1762.000
3709.378,1969.000,1879.000,1825.000,1843.000,1804.000,1825.000,1807.000,1770.000,1740.000,1723.000
3713.107,1942.000,1886.000,1837.000,1838.000,1818.000,1795.000,1740.000,1734.000,1740.000,1732.000
3716.835,1957.000,1955.000,1879.000,1869.000,1841.000,1799.000,1794.000,1750.000,1740.000,1759.000
3720.561,1947.000,1907.000,1872.000,1835.000,1804.000,1818.000,1770.000,1746.000,1723.000,1715.000
3724.285,1948.000,1914.000,1886.000,1874.000,1832.000,1799.000,1747.000,1754.000,1742.000,1738.000
3728.008,1946.000,1874.000,1871.000,1881.000,1837.000,1787.000,1752.000,1712.000,1711.000,1724.000
3731.729,1946.000,1907.000,1875.000,1823.000,1848.000,1772.000,1807.000,1750.000,1738.000,1729.000
3735.447,1935.000,1971.000,1875.000,1856.000,1850.000,1802.000,1771.000,1742.000,1751.000,1727.000
3739.165,1953.000,1897.000,1875.000,1856.000,1795.000,1773.000,1802.000,1730.000,1769.000,1742.000
3742.880,1951.000,1964.000,1895.000,1876.000,1823.000,1791.000,1787.000,1757.000,1731.000,1754.000
3746.593,1948.000,1917.000,1837.000,1809.000,1847.000,1791.000,1812.000,1735.000,1745.000,1739.000
3750.304,1976.000,1850.000,1859.000,1876.000,1819.000,1763.000,1781.000,1733.000,1758.000,1751.000
3754.014,1959.000,1922.000,1907.000,1840.000,1813.000,1798.000,1774.000,1757.000,1764.000,1780.000
3757.723,1982.000,1997.000,1939.000,1843.000,1890.000,1815.000,1802.000,1751.000,1815.000,1749.000
3761.428,1944.000,1935.000,1877.000,1872.000,1858.000,1804.000,1792.000,1750.000,1756.000,1723.000
3765.132,2007.000,1962.000,1906.000,1871.000,1919.000,1765.000,1769.000,1773.000,1787.000,1795.000
3768.836,1963.000,1967.000,1898.000,1838.000,1817.000,1847.000,1807.000,1799.000,1806.000,1786.000
3772.536,1981.000,1947.000,1909.000,1865.000,1804.000,1839.000,1791.000,1766.000,1767.000,1773.000
3776.234,2008.000,1943.000,1893.000,1892.000,1855.000,1875.000,1853.000,1800.000,1781.000,1802.000
3779.931,1981.000,1959.000,1921.000,1912.000,1851.000,1861.000,1813.000,1765.000,1759.000,1804.000
3783.626,2048.000,1930.000,1943.000,1933.000,1879.000,1864.000,1815.000,1782.000,1808.000,1830.000
3787.320,2020.000,1941.000,1950.000,1877.000,1880.000,1847.000,1795.000,1819.000,1823.000,1791.000
3791.011,2037.000,1968.000,1932.000,1922.000,1896.000,1860.000,1824.000,1805.000,1827.000,1818.000
3794.701,2027.000,1990.000,1920.000,1922.000,1897.000,1885.000,1809.000,1800.000,1817.000,1805.000
3798.389,2008.000,1966.000,1930.000,1915.000,1928.000,1871.000,1824.000,1811.000,1856.000,1807.000
3802.075,2038.000,2003.000,1985.000,1943.000,1900.000,1880.000,1815.000,1842.000,1829.000,1819.000
3805.759,2054.000,2019.000,1960.000,1948.000,1927.000,1852.000,1897.000,1831.000,1818.000,1842.000
3809.441,2054.000,2061.000,1934.000,1975.000,1902.000,1885.000,1872.000,1814.000,1869.000,1853.000
3813.121,2054.000,2041.000,1965.000,1962.000,1941.000,1881.000,1854.000,1877.000,1870.000,1875.000
3816.801,2105.000,2038.000,1983.000,1976.000,1954.000,1927.000,1880.000,1876.000,1904.000,1861.000
3820.478,2092.000,2078.000,2029.000,1974.000,1932.000,1962.000,1932.000,1880.000,1896.000,1863.000
3824.153,2111.000,2068.000,2042.000,2011.000,1993.000,1979.000,1945.000,1946.000,1948.000,1901.000
3827.827,2161.000,2112.000,2061.000,2002.000,1987.000,1981.000,1957.000,1956.000,1936.000,1888.000
3831.498,2154.000,2108.000,2097.000,2105.000,2037.000,2011.000,1984.000,1946.000,1967.000,1943.000
3835.168,2132.000,2138.000,2121.000,2088.000,2042.000,2033.000,2000.000,2006.000,1995.000,1962.000
3838.835,2218.000,2205.000,2117.000,2190.000,2097.000,2078.000,2037.000,2036.000,2052.000,2021.000
3842.501,2308.000,2268.000,2188.000,2162.000,2195.000,2117.000,2063.000,2083.000,2080.000,2080.000
3846.167,2326.000,2314.000,2230.000,2259.000,2241.000,2166.000,2111.000,2132.000,2150.000,2089.000
3849.829,2435.000,2377.000,2346.000,2307.000,2296.000,2311.000,2208.000,2235.000,2203.000,2229.000