File: Raman/2022_11_26/Data/2022_11_26_Hagfish_Film_Unstreched_532nm_Pol_6mW_750mm_600gv_1200wn_iDus_100s_10accum_Pos1.csv
282.050,1893.000,1766.000,1749.000,1699.000,1623.000,1605.000,1561.000,1567.000,1531.000,1476.000
287.700,1871.000,1745.000,1665.000,1665.000,1629.000,1578.000,1498.000,1517.000,1522.000,1497.000
293.346,1913.000,1784.000,1706.000,1667.000,1616.000,1591.000,1537.000,1521.000,1475.000,1479.000
298.991,1801.000,1729.000,1651.000,1612.000,1578.000,1542.000,1565.000,1519.000,1479.000,1438.000
304.630,1848.000,1722.000,1701.000,1648.000,1581.000,1560.000,1525.000,1518.000,1503.000,1492.000
310.266,1871.000,1700.000,1674.000,1619.000,1539.000,1565.000,1498.000,1451.000,1448.000,1447.000
315.898,1890.000,1750.000,1686.000,1639.000,1556.000,1530.000,1570.000,1525.000,1454.000,1452.000
321.527,1829.000,1705.000,1650.000,1606.000,1545.000,1545.000,1497.000,1506.000,1482.000,1447.000
327.155,1833.000,1748.000,1672.000,1617.000,1590.000,1554.000,1486.000,1498.000,1480.000,1467.000
332.777,1818.000,1692.000,1645.000,1592.000,1583.000,1532.000,1483.000,1471.000,1435.000,1444.000
338.396,1908.000,1745.000,1692.000,1623.000,1578.000,1564.000,1542.000,1509.000,1490.000,1475.000
344.011,1805.000,1723.000,1647.000,1599.000,1554.000,1532.000,1491.000,1477.000,1476.000,1429.000
349.623,1865.000,1710.000,1652.000,1631.000,1587.000,1532.000,1504.000,1507.000,1459.000,1463.000
355.233,1843.000,1696.000,1651.000,1576.000,1560.000,1544.000,1488.000,1507.000,1444.000,1412.000
360.838,1871.000,1733.000,1679.000,1579.000,1592.000,1539.000,1526.000,1466.000,1485.000,1432.000
366.440,1845.000,1730.000,1659.000,1577.000,1532.000,1493.000,1482.000,1496.000,1455.000,1370.000
372.038,1867.000,1738.000,1707.000,1627.000,1524.000,1529.000,1491.000,1488.000,1464.000,1430.000
377.633,1852.000,1704.000,1630.000,1585.000,1556.000,1494.000,1499.000,1429.000,1444.000,1399.000
383.226,1911.000,1778.000,1658.000,1626.000,1578.000,1552.000,1494.000,1479.000,1454.000,1460.000
388.815,1879.000,1737.000,1677.000,1626.000,1571.000,1506.000,1512.000,1483.000,1445.000,1405.000
394.399,1928.000,1779.000,1674.000,1623.000,1587.000,1576.000,1518.000,1505.000,1463.000,1428.000
399.980,1882.000,1707.000,1724.000,1618.000,1571.000,1576.000,1547.000,1461.000,1494.000,1466.000
405.560,1953.000,1791.000,1721.000,1685.000,1631.000,1592.000,1526.000,1555.000,1515.000,1453.000
411.135,1934.000,1790.000,1690.000,1632.000,1619.000,1565.000,1533.000,1517.000,1509.000,1451.000
416.706,2008.000,1838.000,1742.000,1672.000,1658.000,1630.000,1567.000,1562.000,1546.000,1497.000
422.274,1962.000,1757.000,1732.000,1665.000,1610.000,1619.000,1603.000,1514.000,1528.000,1466.000
427.838,1980.000,1852.000,1758.000,1736.000,1656.000,1620.000,1608.000,1534.000,1579.000,1522.000
433.401,1940.000,1909.000,1737.000,1695.000,1628.000,1579.000,1544.000,1523.000,1525.000,1515.000
438.959,2010.000,1834.000,1774.000,1738.000,1679.000,1627.000,1590.000,1579.000,1566.000,1510.000
444.513,1993.000,1813.000,1757.000,1709.000,1656.000,1596.000,1589.000,1567.000,1527.000,1506.000
450.064,2014.000,1835.000,1848.000,1717.000,1685.000,1658.000,1612.000,1576.000,1542.000,1540.000
455.611,2012.000,1854.000,1731.000,1713.000,1671.000,1635.000,1607.000,1585.000,1523.000,1543.000
461.158,2050.000,1841.000,1785.000,1755.000,1694.000,1645.000,1600.000,1564.000,1572.000,1523.000
466.698,2057.000,1869.000,1831.000,1721.000,1666.000,1647.000,1602.000,1569.000,1551.000,1546.000
472.236,2039.000,1884.000,1809.000,1735.000,1709.000,1670.000,1655.000,1604.000,1611.000,1521.000
477.770,1990.000,1899.000,1786.000,1760.000,1681.000,1648.000,1622.000,1604.000,1571.000,1503.000
483.301,2091.000,1861.000,1821.000,1764.000,1682.000,1649.000,1655.000,1588.000,1589.000,1537.000
488.830,2040.000,1923.000,1826.000,1793.000,1689.000,1631.000,1654.000,1626.000,1587.000,1526.000
494.354,2087.000,1931.000,1852.000,1760.000,1734.000,1681.000,1648.000,1631.000,1594.000,1561.000
499.875,2061.000,1904.000,1805.000,1778.000,1731.000,1692.000,1655.000,1627.000,1584.000,1580.000
505.393,2112.000,1896.000,1828.000,1752.000,1755.000,1691.000,1640.000,1630.000,1588.000,1576.000
510.907,2077.000,1940.000,1855.000,1791.000,1670.000,1673.000,1641.000,1648.000,1643.000,1541.000
516.420,2127.000,1973.000,1805.000,1803.000,1736.000,1696.000,1674.000,1659.000,1604.000,1591.000
521.927,2069.000,1966.000,1855.000,1807.000,1733.000,1716.000,1657.000,1642.000,1578.000,1598.000
527.431,2127.000,1962.000,1889.000,1775.000,1763.000,1699.000,1626.000,1636.000,1597.000,1572.000
532.932,2122.000,1980.000,1871.000,1827.000,1763.000,1748.000,1737.000,1673.000,1643.000,1644.000
538.430,2125.000,1976.000,1896.000,1826.000,1744.000,1736.000,1716.000,1666.000,1660.000,1632.000
543.926,2181.000,2014.000,1898.000,1843.000,1827.000,1773.000,1723.000,1676.000,1651.000,1612.000
549.417,2155.000,1990.000,1931.000,1841.000,1779.000,1731.000,1736.000,1634.000,1653.000,1627.000
554.904,2214.000,1979.000,1921.000,1825.000,1789.000,1764.000,1747.000,1695.000,1682.000,1646.000
560.389,2167.000,1948.000,1871.000,1850.000,1766.000,1761.000,1724.000,1653.000,1661.000,1633.000
565.870,2204.000,2004.000,1883.000,1883.000,1822.000,1775.000,1723.000,1715.000,1696.000,1645.000
571.350,2156.000,2019.000,1904.000,1867.000,1779.000,1741.000,1707.000,1681.000,1656.000,1610.000
576.824,2259.000,2044.000,1938.000,1888.000,1847.000,1765.000,1713.000,1706.000,1676.000,1665.000
582.295,2150.000,2034.000,1912.000,1860.000,1782.000,1793.000,1699.000,1636.000,1691.000,1646.000
587.763,2262.000,2017.000,2007.000,1940.000,1851.000,1806.000,1710.000,1725.000,1708.000,1683.000
593.228,2183.000,2008.000,1903.000,1808.000,1799.000,1755.000,1723.000,1708.000,1643.000,1630.000
598.691,2277.000,2089.000,1966.000,1912.000,1816.000,1745.000,1763.000,1761.000,1707.000,1616.000
604.149,2211.000,2018.000,1939.000,1903.000,1812.000,1752.000,1692.000,1694.000,1711.000,1643.000
609.604,2248.000,2036.000,1961.000,1904.000,1838.000,1845.000,1761.000,1732.000,1708.000,1649.000
615.055,2272.000,2008.000,1936.000,1848.000,1823.000,1755.000,1727.000,1746.000,1676.000,1635.000
620.505,2337.000,2143.000,2059.000,1959.000,1887.000,1837.000,1819.000,1771.000,1731.000,1703.000
625.950,2203.000,2072.000,1990.000,1930.000,1832.000,1785.000,1749.000,1718.000,1685.000,1687.000
631.392,2334.000,2089.000,2011.000,1920.000,1869.000,1849.000,1788.000,1741.000,1726.000,1667.000
636.831,2271.000,2135.000,2040.000,1967.000,1873.000,1868.000,1780.000,1807.000,1756.000,1677.000
642.266,2395.000,2187.000,2079.000,2080.000,1953.000,1919.000,1886.000,1861.000,1791.000,1782.000
647.700,2308.000,2085.000,2066.000,1927.000,1898.000,1938.000,1790.000,1783.000,1771.000,1720.000
653.128,2317.000,2180.000,2036.000,1966.000,1873.000,1833.000,1791.000,1770.000,1761.000,1695.000
658.554,2348.000,2127.000,2017.000,1938.000,1869.000,1869.000,1783.000,1739.000,1730.000,1731.000
663.976,2322.000,2125.000,2050.000,1982.000,1897.000,1873.000,1800.000,1784.000,1761.000,1748.000
669.395,2330.000,2101.000,2083.000,1988.000,1850.000,1829.000,1813.000,1761.000,1707.000,1672.000
674.813,2322.000,2150.000,2074.000,1945.000,1917.000,1851.000,1793.000,1812.000,1784.000,1702.000
680.225,2366.000,2176.000,2099.000,1991.000,1948.000,1836.000,1846.000,1789.000,1764.000,1677.000
685.634,2335.000,2140.000,2049.000,2021.000,1907.000,1880.000,1842.000,1791.000,1911.000,1703.000
691.040,2366.000,2173.000,2025.000,2019.000,1954.000,1885.000,1847.000,1812.000,1741.000,1736.000
696.443,2399.000,2175.000,2090.000,2031.000,1963.000,1900.000,1861.000,1833.000,1768.000,1734.000
701.845,2404.000,2184.000,2119.000,2050.000,1955.000,1966.000,1927.000,1843.000,1787.000,1757.000
707.241,2394.000,2183.000,2107.000,2042.000,1979.000,1903.000,1894.000,1855.000,1808.000,1767.000
712.634,2460.000,2272.000,2115.000,2083.000,2069.000,1971.000,1906.000,1873.000,1864.000,1822.000
718.024,2514.000,2257.000,2181.000,2094.000,2007.000,1924.000,1932.000,1872.000,1867.000,1847.000
723.411,2531.000,2277.000,2159.000,2123.000,2058.000,2014.000,1959.000,1941.000,1866.000,1842.000
728.796,2457.000,2235.000,2103.000,2071.000,2019.000,1921.000,1912.000,1817.000,1824.000,1807.000
734.177,2499.000,2279.000,2226.000,2119.000,2039.000,1977.000,1924.000,1870.000,1832.000,1802.000
739.554,2461.000,2274.000,2190.000,2075.000,2013.000,1947.000,1919.000,1891.000,1859.000,1844.000
744.928,2550.000,2297.000,2179.000,2125.000,2058.000,2000.000,1965.000,1966.000,1903.000,1875.000
750.298,2539.000,2320.000,2231.000,2129.000,2092.000,2015.000,1948.000,1942.000,1905.000,1852.000
755.668,2617.000,2403.000,2288.000,2226.000,2132.000,2087.000,2061.000,2039.000,1995.000,1911.000
761.032,2573.000,2323.000,2257.000,2170.000,2100.000,2023.000,2021.000,1943.000,1952.000,1907.000
766.393,2631.000,2323.000,2233.000,2167.000,2090.000,1992.000,1965.000,1910.000,1883.000,1825.000
771.751,2605.000,2339.000,2300.000,2183.000,2091.000,2014.000,2036.000,1970.000,1941.000,1882.000
777.106,2630.000,2355.000,2229.000,2161.000,2124.000,2068.000,1999.000,1999.000,1918.000,1894.000
782.459,2630.000,2346.000,2272.000,2164.000,2096.000,2053.000,2008.000,1934.000,1953.000,1859.000
787.808,2535.000,2325.000,2227.000,2186.000,2083.000,2033.000,1957.000,1955.000,1899.000,1818.000
793.153,2588.000,2367.000,2244.000,2164.000,2087.000,2028.000,1996.000,1951.000,1925.000,1824.000
798.495,2577.000,2340.000,2250.000,2154.000,2064.000,1983.000,2021.000,1942.000,1926.000,1878.000
803.836,2626.000,2344.000,2253.000,2188.000,2100.000,2050.000,1979.000,1972.000,1936.000,1857.000
809.171,2625.000,2362.000,2284.000,2131.000,2104.000,2071.000,2015.000,1959.000,1931.000,1855.000
814.504,2656.000,2379.000,2270.000,2209.000,2155.000,2133.000,2019.000,2008.000,1953.000,1954.000
819.833,2684.000,2468.000,2378.000,2269.000,2204.000,2186.000,2081.000,2115.000,2031.000,1981.000
825.159,2840.000,2579.000,2474.000,2329.000,2350.000,2258.000,2256.000,2175.000,2182.000,2077.000
830.484,2732.000,2467.000,2415.000,2267.000,2228.000,2164.000,2169.000,2098.000,2097.000,2028.000
835.804,2719.000,2530.000,2372.000,2354.000,2186.000,2200.000,2144.000,2109.000,2057.000,2010.000
841.121,2689.000,2471.000,2375.000,2254.000,2197.000,2179.000,2125.000,2083.000,2043.000,2003.000
846.435,2864.000,2643.000,2564.000,2410.000,2377.000,2264.000,2292.000,2194.000,2121.000,2114.000
851.745,2845.000,2610.000,2519.000,2426.000,2413.000,2312.000,2240.000,2256.000,2215.000,2155.000
857.054,2851.000,2581.000,2436.000,2411.000,2295.000,2288.000,2192.000,2191.000,2124.000,2087.000
862.359,2764.000,2480.000,2431.000,2345.000,2255.000,2230.000,2171.000,2131.000,2078.000,2043.000
867.660,2759.000,2499.000,2429.000,2309.000,2238.000,2185.000,2166.000,2150.000,2057.000,2000.000
872.958,2811.000,2569.000,2458.000,2372.000,2328.000,2219.000,2170.000,2120.000,2144.000,2062.000
878.252,2826.000,2534.000,2418.000,2363.000,2303.000,2231.000,2209.000,2167.000,2175.000,2058.000
883.546,2820.000,2635.000,2419.000,2406.000,2332.000,2257.000,2193.000,2193.000,2136.000,2066.000
888.835,2845.000,2618.000,2455.000,2374.000,2324.000,2241.000,2180.000,2188.000,2089.000,2086.000
894.120,2896.000,2649.000,2514.000,2431.000,2364.000,2289.000,2229.000,2208.000,2167.000,2170.000
899.402,2827.000,2617.000,2455.000,2379.000,2322.000,2259.000,2231.000,2160.000,2130.000,2076.000
904.681,2855.000,2618.000,2574.000,2393.000,2302.000,2255.000,2212.000,2186.000,2175.000,2107.000
909.959,2810.000,2573.000,2500.000,2369.000,2286.000,2220.000,2203.000,2174.000,2140.000,2083.000
915.232,2882.000,2589.000,2505.000,2435.000,2340.000,2253.000,2289.000,2181.000,2154.000,2139.000
920.502,2878.000,2573.000,2462.000,2423.000,2326.000,2234.000,2217.000,2201.000,2138.000,2121.000
925.769,2887.000,2638.000,2564.000,2525.000,2401.000,2264.000,2217.000,2238.000,2211.000,2158.000
931.033,2845.000,2676.000,2528.000,2419.000,2387.000,2303.000,2239.000,2238.000,2181.000,2117.000
936.295,2915.000,2654.000,2540.000,2405.000,2361.000,2303.000,2240.000,2254.000,2214.000,2127.000
941.552,2925.000,2638.000,2539.000,2476.000,2393.000,2323.000,2267.000,2232.000,2176.000,2132.000
946.807,2843.000,2984.000,2535.000,2438.000,2382.000,2290.000,2274.000,2198.000,2149.000,2151.000
952.058,2856.000,2651.000,2556.000,2480.000,2343.000,2315.000,2239.000,2283.000,2192.000,2148.000
957.306,2848.000,2623.000,2562.000,2424.000,2370.000,2260.000,2245.000,2176.000,2174.000,2137.000
962.553,2893.000,2637.000,2528.000,2384.000,2306.000,2302.000,2287.000,2233.000,2159.000,2119.000
967.795,2792.000,2583.000,2476.000,2349.000,2348.000,2219.000,2247.000,2214.000,2170.000,2103.000
973.034,2924.000,2683.000,2510.000,2470.000,2416.000,2283.000,2321.000,2214.000,2174.000,2126.000
978.270,2857.000,2648.000,2482.000,2435.000,2356.000,2307.000,2242.000,2193.000,2161.000,2140.000
983.503,2985.000,2711.000,2601.000,2547.000,2421.000,2396.000,2329.000,2323.000,2244.000,2170.000
988.734,2943.000,2711.000,2607.000,2516.000,2461.000,2332.000,2340.000,2293.000,2195.000,2173.000
993.961,3071.000,2854.000,2709.000,2651.000,2547.000,2518.000,2442.000,2427.000,2369.000,2308.000
999.184,3635.000,3368.000,3317.000,3159.000,3025.000,2993.000,2934.000,2979.000,2848.000,2794.000
1004.405,3192.000,2943.000,2789.000,2716.000,2675.000,2582.000,2498.000,2469.000,2473.000,2354.000
1009.622,3107.000,2894.000,2750.000,2703.000,2580.000,2556.000,2435.000,2491.000,2439.000,2351.000
1014.839,3059.000,2846.000,2729.000,2625.000,2543.000,2480.000,2378.000,2403.000,2312.000,2245.000
1020.050,3159.000,2967.000,2777.000,2679.000,2557.000,2531.000,2493.000,2440.000,2432.000,2311.000
1025.258,3147.000,2906.000,2841.000,2722.000,2642.000,2589.000,2552.000,2525.000,2435.000,2409.000
1030.463,3173.000,2966.000,2819.000,2740.000,2648.000,2526.000,2501.000,2499.000,2459.000,2360.000
1035.667,3065.000,2805.000,2702.000,2624.000,2542.000,2451.000,2402.000,2413.000,2343.000,2251.000
1040.867,3145.000,2850.000,2753.000,2640.000,2620.000,2526.000,2462.000,2370.000,2375.000,2319.000
1046.063,3113.000,2885.000,2675.000,2633.000,2531.000,2462.000,2425.000,2328.000,2278.000,2266.000
1051.256,3120.000,2881.000,2729.000,2689.000,2611.000,2513.000,2445.000,2455.000,2351.000,2287.000
1056.446,3119.000,2900.000,2735.000,2643.000,2544.000,2495.000,2449.000,2431.000,2394.000,2285.000
1061.634,3206.000,2894.000,2770.000,2656.000,2571.000,2515.000,2496.000,2409.000,2368.000,2333.000
1066.818,3164.000,2854.000,2743.000,2678.000,2569.000,2460.000,2463.000,2407.000,2370.000,2318.000
1071.999,3174.000,2856.000,2742.000,2709.000,2574.000,2501.000,2495.000,2419.000,2399.000,2318.000
1077.177,3188.000,2925.000,2787.000,2660.000,2599.000,2546.000,2461.000,2441.000,2416.000,2307.000
1082.352,3139.000,2839.000,2708.000,2702.000,2563.000,2513.000,2449.000,2415.000,2381.000,2327.000
1087.526,3108.000,2864.000,2745.000,2624.000,2618.000,2515.000,2412.000,2430.000,2378.000,2308.000
1092.694,3114.000,2810.000,2732.000,2669.000,2496.000,2420.000,2421.000,2374.000,2315.000,2270.000
1097.860,3080.000,2824.000,2669.000,2580.000,2563.000,2484.000,2413.000,2413.000,2358.000,2283.000
1103.023,3097.000,2888.000,2718.000,2605.000,2557.000,2428.000,2403.000,2368.000,2280.000,2278.000
1108.183,3076.000,2918.000,2744.000,2656.000,2489.000,2443.000,2420.000,2378.000,2387.000,2298.000
1113.341,3110.000,2895.000,2731.000,2655.000,2567.000,2482.000,2464.000,2359.000,2358.000,2281.000
1118.495,3157.000,2876.000,2740.000,2696.000,2569.000,2514.000,2479.000,2406.000,2326.000,2362.000
1123.646,3096.000,2856.000,2751.000,2667.000,2642.000,2515.000,2428.000,2400.000,2315.000,2253.000
1128.794,3069.000,2721.000,2676.000,2579.000,2430.000,2427.000,2404.000,2333.000,2286.000,2199.000
1133.938,3024.000,2787.000,2672.000,2557.000,2458.000,2384.000,2348.000,2262.000,2261.000,2215.000
1139.082,2946.000,2709.000,2600.000,2505.000,2412.000,2353.000,2325.000,2325.000,2239.000,2158.000
1144.221,3088.000,2810.000,2676.000,2588.000,2492.000,2439.000,2367.000,2326.000,2272.000,2208.000
1149.356,3054.000,2748.000,2616.000,2539.000,2499.000,2363.000,2346.000,2350.000,2305.000,2260.000
1154.489,3053.000,2815.000,2747.000,2624.000,2516.000,2446.000,2378.000,2341.000,2322.000,2194.000
1159.619,3032.000,2750.000,2690.000,2565.000,2432.000,2402.000,2351.000,2344.000,2287.000,2234.000
1164.748,3090.000,2908.000,2756.000,2670.000,2516.000,2452.000,2411.000,2383.000,2348.000,2258.000
1169.872,3133.000,2801.000,2728.000,2594.000,2478.000,2492.000,2373.000,2422.000,2315.000,2322.000
1174.992,3076.000,2769.000,2745.000,2626.000,2466.000,2430.000,2388.000,2374.000,2329.000,2230.000
1180.110,3069.000,2781.000,2680.000,2630.000,2521.000,2460.000,2430.000,2320.000,2289.000,2242.000
1185.225,3071.000,2772.000,2652.000,2556.000,2485.000,2437.000,2378.000,2286.000,2243.000,2154.000
1190.339,3116.000,2847.000,2685.000,2608.000,2535.000,2480.000,2437.000,2391.000,2385.000,2243.000
1195.448,3125.000,2846.000,2751.000,2683.000,2610.000,2516.000,2438.000,2375.000,2359.000,2259.000
1200.554,3257.000,3002.000,2854.000,2771.000,2670.000,2640.000,2590.000,2493.000,2438.000,2458.000
1205.657,3247.000,2979.000,2873.000,2748.000,2690.000,2620.000,2607.000,2490.000,2486.000,2421.000
1210.759,3325.000,3019.000,2919.000,2812.000,2682.000,2620.000,2574.000,2565.000,2518.000,2455.000
1215.856,3422.000,3413.000,3031.000,2894.000,2794.000,2752.000,2704.000,2685.000,2638.000,2507.000
1220.950,3564.000,3154.000,3083.000,3015.000,2939.000,2811.000,2769.000,2716.000,2703.000,2593.000
1226.041,3659.000,3331.000,3202.000,3096.000,3006.000,2979.000,2858.000,2892.000,2774.000,2689.000
1231.130,3618.000,3337.000,3201.000,3102.000,3039.000,2938.000,2953.000,2880.000,2800.000,2729.000
1236.217,3553.000,3322.000,3225.000,3085.000,3019.000,2965.000,2880.000,2816.000,2762.000,2705.000
1241.299,3470.000,3204.000,3062.000,2900.000,2903.000,2822.000,2828.000,2764.000,2704.000,2622.000
1246.379,3495.000,3131.000,3013.000,2942.000,2813.000,2836.000,2784.000,2666.000,2673.000,2623.000
1251.455,3314.000,3092.000,2907.000,2877.000,2777.000,2700.000,2654.000,2566.000,2512.000,2503.000
1256.529,3393.000,3118.000,2970.000,2889.000,2762.000,2755.000,2683.000,2642.000,2572.000,2541.000
1261.601,3291.000,3022.000,2922.000,2821.000,2731.000,2734.000,2594.000,2553.000,2499.000,2463.000
1266.669,3318.000,3051.000,2915.000,2875.000,2768.000,2693.000,2625.000,2580.000,2575.000,2446.000
1271.734,3353.000,3053.000,2996.000,2825.000,2773.000,2661.000,2645.000,2571.000,2513.000,2465.000
1276.795,3331.000,2973.000,2849.000,2743.000,2677.000,2617.000,2561.000,2546.000,2417.000,2384.000
1281.854,3329.000,3007.000,2871.000,2733.000,2680.000,2571.000,2582.000,2519.000,2457.000,2454.000
1286.912,3207.000,2928.000,2806.000,2724.000,2610.000,2560.000,2521.000,2481.000,2432.000,2329.000
1291.965,3212.000,2945.000,2836.000,2765.000,2645.000,2524.000,2475.000,2504.000,2373.000,2345.000
1297.015,3205.000,2903.000,2737.000,2656.000,2587.000,2502.000,2466.000,2372.000,2392.000,2282.000
1302.063,3171.000,2914.000,2837.000,2750.000,2671.000,2589.000,2553.000,2478.000,2410.000,2334.000
1307.107,3171.000,2939.000,2793.000,2745.000,2571.000,2535.000,2501.000,2463.000,2472.000,2389.000
1312.150,3279.000,2985.000,2913.000,2810.000,2677.000,2598.000,2535.000,2530.000,2497.000,2401.000
1317.189,3305.000,3004.000,2867.000,2796.000,2704.000,2619.000,2572.000,2503.000,2482.000,2397.000
1322.224,3279.000,2993.000,2880.000,2741.000,2693.000,2580.000,2592.000,2549.000,2467.000,2410.000
1327.257,3388.000,3067.000,2939.000,2819.000,2723.000,2704.000,2641.000,2573.000,2592.000,2483.000
1332.287,3335.000,3003.000,2842.000,2796.000,2659.000,2586.000,2596.000,2567.000,2534.000,2496.000
1337.316,3387.000,3131.000,2886.000,2879.000,2763.000,2733.000,2674.000,2596.000,2522.000,2485.000
1342.340,3250.000,3034.000,2945.000,2805.000,2653.000,2602.000,2573.000,2504.000,2491.000,2414.000
1347.361,3271.000,3003.000,2864.000,2799.000,2679.000,2543.000,2579.000,2492.000,2463.000,2376.000
1352.379,3271.000,2922.000,2819.000,2726.000,2662.000,2552.000,2542.000,2480.000,2416.000,2362.000
1357.395,3199.000,2916.000,2845.000,2676.000,2615.000,2539.000,2498.000,2459.000,2348.000,2342.000
1362.409,3208.000,2884.000,2841.000,2675.000,2606.000,2527.000,2478.000,2434.000,2328.000,2337.000
1367.418,3194.000,2876.000,2802.000,2700.000,2528.000,2506.000,2495.000,2434.000,2330.000,2339.000
1372.425,3202.000,2883.000,2730.000,2686.000,2597.000,2545.000,2427.000,2365.000,2391.000,2293.000
1377.429,3198.000,2887.000,2716.000,2624.000,2503.000,2414.000,2429.000,2399.000,2316.000,2243.000
1382.430,3165.000,2859.000,2715.000,2640.000,2545.000,2454.000,2497.000,2404.000,2285.000,2265.000
1387.430,3182.000,2935.000,2819.000,2614.000,2592.000,2483.000,2431.000,2399.000,2329.000,2299.000
1392.425,3185.000,2945.000,2862.000,2676.000,2650.000,2563.000,2483.000,2414.000,2360.000,2379.000
1397.418,3283.000,2971.000,2832.000,2692.000,2660.000,2562.000,2548.000,2442.000,2425.000,2373.000
1402.407,3244.000,2954.000,2781.000,2764.000,2611.000,2543.000,2433.000,2456.000,2371.000,2306.000
1407.394,3260.000,2965.000,2791.000,2703.000,2653.000,2535.000,2509.000,2441.000,2427.000,2312.000
1412.379,3202.000,2898.000,2805.000,2610.000,2588.000,2516.000,2433.000,2369.000,2353.000,2293.000
1417.360,3156.000,2869.000,2713.000,2611.000,2570.000,2512.000,2462.000,2349.000,2332.000,2250.000
1422.338,3168.000,2847.000,2798.000,2639.000,2548.000,2429.000,2371.000,2416.000,2337.000,2256.000
1427.314,3173.000,2893.000,2789.000,2777.000,2648.000,2498.000,2499.000,2457.000,2402.000,2307.000
1432.286,3355.000,2988.000,2874.000,2752.000,2682.000,2573.000,2577.000,2502.000,2514.000,2393.000
1437.257,3390.000,3133.000,2940.000,2902.000,2766.000,2722.000,2701.000,2596.000,2534.000,2503.000
1442.224,3472.000,3171.000,3018.000,2889.000,2808.000,2757.000,2725.000,2664.000,2624.000,2524.000
1447.188,3404.000,3062.000,3019.000,2887.000,2728.000,2730.000,2632.000,2671.000,2540.000,2484.000
1452.149,3490.000,3069.000,2935.000,2772.000,2773.000,2646.000,2616.000,2616.000,2560.000,2461.000
1457.109,3265.000,2977.000,2894.000,2787.000,2706.000,2637.000,2587.000,2535.000,2463.000,2357.000
1462.064,3243.000,2947.000,2882.000,2695.000,2674.000,2588.000,2505.000,2421.000,2428.000,2413.000
1467.017,3176.000,2857.000,2733.000,2674.000,2607.000,2507.000,2441.000,2379.000,2327.000,2256.000
1471.966,3137.000,2863.000,2739.000,2622.000,2515.000,2423.000,2399.000,2438.000,2301.000,2283.000
1476.913,3151.000,2835.000,2686.000,2621.000,2497.000,2462.000,2388.000,2370.000,2337.000,2216.000
1481.859,3104.000,2832.000,2740.000,2607.000,2493.000,2450.000,2369.000,2325.000,2257.000,2206.000
1486.800,3095.000,2856.000,2701.000,2592.000,2513.000,2395.000,2383.000,2317.000,2267.000,2169.000
1491.739,3069.000,2803.000,2610.000,2529.000,2504.000,2378.000,2303.000,2211.000,2218.000,2130.000
1496.674,3077.000,2767.000,2650.000,2503.000,2409.000,2354.000,2306.000,2289.000,2203.000,2143.000
1501.607,3041.000,2702.000,2635.000,2503.000,2407.000,2347.000,2391.000,2220.000,2184.000,2127.000
1506.539,3091.000,2756.000,2640.000,2567.000,2431.000,2373.000,2305.000,2263.000,2189.000,2150.000
1511.466,3091.000,2761.000,2648.000,2552.000,2472.000,2329.000,2288.000,2246.000,2243.000,2144.000
1516.390,3132.000,2769.000,2685.000,2561.000,2473.000,2361.000,2287.000,2292.000,2225.000,2161.000
1521.312,3192.000,2815.000,2713.000,2567.000,2459.000,2416.000,2342.000,2330.000,2302.000,2213.000
1526.230,3154.000,2822.000,2654.000,2646.000,2451.000,2423.000,2350.000,2275.000,2254.000,2188.000
1531.148,3178.000,2792.000,2655.000,2634.000,2519.000,2410.000,2378.000,2353.000,2296.000,2235.000
1536.061,3168.000,2765.000,2775.000,2603.000,2542.000,2440.000,2380.000,2337.000,2269.000,2191.000
1540.972,3187.000,2884.000,2726.000,2652.000,2550.000,2443.000,2418.000,2359.000,2282.000,2202.000
1545.879,3183.000,2897.000,2751.000,2654.000,2599.000,2491.000,2436.000,2389.000,2296.000,2259.000
1550.784,3195.000,2872.000,2720.000,2687.000,2535.000,2471.000,2426.000,2288.000,2337.000,2178.000
1555.688,3221.000,2901.000,2717.000,2625.000,2532.000,2461.000,2471.000,2354.000,2354.000,2261.000
1560.587,3335.000,2879.000,2788.000,2688.000,2556.000,2497.000,2410.000,2422.000,2282.000,2297.000
1565.483,3290.000,2874.000,2804.000,2662.000,2558.000,2469.000,2435.000,2380.000,2325.000,2229.000
1570.377,3272.000,2873.000,2784.000,2644.000,2523.000,2441.000,2409.000,2391.000,2301.000,2233.000
1575.269,3191.000,2875.000,2693.000,2623.000,2515.000,2476.000,2415.000,2371.000,2312.000,2263.000
1580.157,3227.000,2884.000,2757.000,2656.000,2535.000,2459.000,2431.000,2327.000,2301.000,2191.000
1585.043,3194.000,2847.000,2758.000,2634.000,2592.000,2448.000,2386.000,2337.000,2344.000,2223.000
1589.925,3186.000,2891.000,2743.000,2697.000,2577.000,2448.000,2452.000,2343.000,2327.000,2215.000
1594.805,3301.000,2943.000,2823.000,2733.000,2593.000,2535.000,2507.000,2407.000,2430.000,2267.000
1599.684,3307.000,3027.000,2846.000,2720.000,2628.000,2578.000,2459.000,2424.000,2431.000,2366.000
1604.558,3283.000,3008.000,2830.000,2830.000,2627.000,2569.000,2497.000,2468.000,2487.000,2353.000
1609.429,3350.000,3042.000,2872.000,2780.000,2700.000,2608.000,2523.000,2460.000,2455.000,2304.000
1614.298,3298.000,3008.000,2848.000,2729.000,2666.000,2571.000,2498.000,2440.000,2452.000,2334.000
1619.164,3242.000,2970.000,2816.000,2726.000,2619.000,2510.000,2514.000,2431.000,2363.000,2291.000
1624.029,3266.000,2938.000,2854.000,2746.000,2595.000,2586.000,2487.000,2463.000,2379.000,2350.000
1628.889,3336.000,3001.000,2845.000,2732.000,2640.000,2537.000,2522.000,2482.000,2424.000,2353.000
1633.747,3412.000,3096.000,2983.000,2844.000,2805.000,2668.000,2640.000,2561.000,2545.000,2497.000
1638.602,3480.000,3152.000,3106.000,2980.000,2897.000,2789.000,2746.000,2662.000,2616.000,2546.000
1643.454,3614.000,3376.000,3162.000,3112.000,2969.000,2914.000,2856.000,2829.000,2713.000,2663.000
1648.305,3678.000,3435.000,3267.000,3123.000,3037.000,2998.000,2995.000,2884.000,2819.000,2732.000
1653.152,3848.000,3524.000,3365.000,3271.000,3183.000,3067.000,3038.000,3061.000,2941.000,2839.000
1657.996,4095.000,3779.000,3672.000,3557.000,3417.000,3383.000,3302.000,3240.000,3192.000,3195.000
1662.837,4217.000,3873.000,3777.000,3610.000,3524.000,3434.000,3403.000,3388.000,3248.000,3264.000
1667.675,4044.000,3704.000,3661.000,3437.000,3421.000,3297.000,3245.000,3164.000,3161.000,3008.000
1672.513,3684.000,3361.000,3269.000,3183.000,3066.000,2953.000,2926.000,2873.000,2838.000,2773.000
1677.346,3578.000,3242.000,3081.000,2971.000,2861.000,2816.000,2969.000,2684.000,2635.000,2508.000
1682.176,3459.000,3115.000,2922.000,2873.000,2781.000,2673.000,2627.000,2594.000,2525.000,2446.000
1687.004,3294.000,2985.000,2803.000,2714.000,2630.000,2566.000,2495.000,2398.000,2418.000,2327.000
1691.829,3258.000,2921.000,2799.000,2706.000,2587.000,2524.000,2423.000,2375.000,2345.000,2290.000
1696.652,3172.000,2837.000,2718.000,2564.000,2499.000,2464.000,2373.000,2308.000,2291.000,2172.000
1701.472,3197.000,2876.000,2743.000,2629.000,2519.000,2455.000,2379.000,2336.000,2269.000,2188.000
1706.288,3158.000,2868.000,2708.000,2548.000,2512.000,2375.000,2348.000,2298.000,2270.000,2174.000
1711.102,3153.000,2818.000,2680.000,2542.000,2450.000,2346.000,2345.000,2290.000,2195.000,2168.000
1715.914,3125.000,2770.000,2731.000,2551.000,2466.000,2380.000,2313.000,2228.000,2184.000,2136.000
1720.724,3063.000,2756.000,2616.000,2552.000,2419.000,2371.000,2243.000,2250.000,2194.000,2098.000
1725.530,3068.000,2816.000,2663.000,2484.000,2413.000,2344.000,2266.000,2186.000,2235.000,2101.000
1730.333,3088.000,2729.000,2619.000,2496.000,2328.000,2349.000,2270.000,2255.000,2197.000,2076.000
1735.133,3130.000,2788.000,2669.000,2523.000,2439.000,2323.000,2328.000,2294.000,2207.000,2112.000
1739.931,3082.000,2820.000,2663.000,2500.000,2477.000,2356.000,2310.000,2219.000,2169.000,2151.000
1744.728,3065.000,2720.000,2616.000,2542.000,2411.000,2284.000,2249.000,2216.000,2131.000,2035.000
1749.520,3047.000,2733.000,2607.000,2494.000,2406.000,2289.000,2266.000,2209.000,2177.000,2067.000
1754.310,3026.000,2722.000,2609.000,2485.000,2407.000,2291.000,2251.000,2180.000,2138.000,2058.000
1759.097,3030.000,2766.000,2664.000,2526.000,2377.000,2370.000,2256.000,2240.000,2187.000,2108.000
1763.881,3113.000,2794.000,2646.000,2553.000,2452.000,2391.000,2317.000,2274.000,2203.000,2143.000
1768.664,3098.000,2790.000,2637.000,2544.000,2469.000,2343.000,2339.000,2222.000,2196.000,2128.000
1773.443,3093.000,2765.000,2588.000,2511.000,2461.000,2336.000,2263.000,2247.000,2217.000,2094.000
1778.219,3011.000,2710.000,2566.000,2477.000,2368.000,2304.000,2285.000,2177.000,2181.000,2121.000
1782.993,3023.000,2784.000,2553.000,2454.000,2398.000,2324.000,2271.000,2152.000,2133.000,2085.000
1787.764,3076.000,2773.000,2583.000,2500.000,2414.000,2345.000,2273.000,2217.000,2119.000,2092.000
1792.534,3112.000,2779.000,2666.000,2533.000,2458.000,2362.000,2295.000,2244.000,2177.000,2157.000
1797.299,3213.000,2833.000,2665.000,2504.000,2453.000,2436.000,2345.000,2313.000,2217.000,2131.000
1802.062,3026.000,2755.000,2527.000,2510.000,2418.000,2364.000,2252.000,2170.000,2168.000,2095.000
1806.822,2983.000,2711.000,2522.000,2500.000,2355.000,2299.000,2210.000,2219.000,2143.000,2086.000
1811.582,3014.000,2679.000,2602.000,2453.000,2356.000,2303.000,2226.000,2189.000,2150.000,2082.000
1816.336,3073.000,2811.000,2682.000,2466.000,2382.000,2346.000,2248.000,2285.000,2206.000,2130.000
1821.089,3119.000,2813.000,2651.000,2535.000,2495.000,2372.000,2376.000,2291.000,2198.000,2164.000
1825.838,3106.000,2858.000,2709.000,2579.000,2454.000,2403.000,2328.000,2343.000,2239.000,2132.000
1830.585,3129.000,2791.000,2712.000,2586.000,2440.000,2370.000,2323.000,2308.000,2215.000,2146.000
1835.331,3074.000,2726.000,2580.000,2451.000,2766.000,2324.000,2218.000,2187.000,2170.000,2141.000
1840.072,3025.000,2775.000,2602.000,2493.000,2440.000,2335.000,2312.000,2194.000,2180.000,2072.000
1844.811,3127.000,2752.000,2669.000,2526.000,2408.000,2322.000,2235.000,2253.000,2186.000,2140.000
1849.548,3226.000,2858.000,2715.000,2606.000,2492.000,2386.000,2327.000,2310.000,2241.000,2195.000
1854.281,3169.000,2903.000,2711.000,2614.000,2506.000,2425.000,2374.000,2269.000,2271.000,2145.000
1859.014,3125.000,2794.000,2709.000,2549.000,2462.000,2394.000,2318.000,2278.000,2203.000,2139.000
1863.742,3124.000,2786.000,2575.000,2544.000,2455.000,2326.000,2313.000,2215.000,2198.000,2127.000
1868.468,3083.000,2797.000,2612.000,2571.000,2441.000,2308.000,2311.000,2256.000,2192.000,2122.000
1873.191,3195.000,2805.000,2656.000,2578.000,2479.000,2360.000,2348.000,2277.000,2230.000,2170.000
1877.911,3199.000,2887.000,2741.000,2625.000,2548.000,2470.000,2374.000,2343.000,2283.000,2209.000
1882.631,3208.000,2924.000,2737.000,2601.000,2497.000,2435.000,2352.000,2374.000,2291.000,2182.000
1887.346,3165.000,2839.000,2724.000,2555.000,2511.000,2367.000,2378.000,2334.000,2185.000,2151.000
1892.058,3079.000,2788.000,2637.000,2568.000,2461.000,2353.000,2354.000,2248.000,2212.000,2178.000
1896.768,3154.000,2804.000,2694.000,2604.000,2506.000,2407.000,2359.000,2307.000,2218.000,2136.000
1901.476,3190.000,2900.000,2698.000,2652.000,2509.000,2479.000,2335.000,2307.000,2280.000,2164.000
1906.182,3192.000,2893.000,2771.000,2611.000,2554.000,2487.000,2433.000,2330.000,2294.000,2207.000
1910.884,3262.000,2926.000,2776.000,2662.000,2555.000,2466.000,2403.000,2372.000,2305.000,2217.000
1915.583,3171.000,2836.000,2718.000,2629.000,2480.000,2426.000,2387.000,2287.000,2243.000,2172.000
1920.280,3163.000,2834.000,2679.000,2575.000,2417.000,2431.000,2308.000,2307.000,2245.000,2169.000
1924.974,3175.000,2828.000,2720.000,2601.000,2522.000,2447.000,2383.000,2304.000,2271.000,2175.000
1929.668,3281.000,2933.000,2816.000,2663.000,2560.000,2509.000,2454.000,2389.000,2320.000,2238.000
1934.357,3323.000,2939.000,2786.000,2674.000,2590.000,2536.000,2417.000,2363.000,2347.000,2229.000
1939.043,3241.000,2965.000,2728.000,2661.000,2609.000,2455.000,2432.000,2308.000,2343.000,2219.000
1943.727,3263.000,2941.000,2765.000,2622.000,2521.000,2453.000,2437.000,2360.000,2284.000,2234.000
1948.410,3247.000,2869.000,2784.000,2699.000,2576.000,2511.000,2418.000,2357.000,2296.000,2210.000
1953.088,3332.000,2922.000,2779.000,2726.000,2604.000,2512.000,2515.000,2396.000,2331.000,2266.000
1957.764,3389.000,3050.000,2849.000,2709.000,2600.000,2507.000,2488.000,2456.000,2399.000,2345.000
1962.438,3368.000,3062.000,2867.000,2719.000,2660.000,2590.000,2515.000,2420.000,2409.000,2362.000
1967.108,3367.000,3045.000,2868.000,2682.000,2620.000,2586.000,2474.000,2426.000,2350.000,2354.000
1971.778,3319.000,2954.000,2823.000,2731.000,2641.000,2500.000,2489.000,2437.000,2363.000,2274.000
1976.444,3417.000,3064.000,2917.000,2757.000,2639.000,2603.000,2514.000,2503.000,2425.000,2306.000
1981.107,3445.000,3126.000,2906.000,2844.000,2694.000,2640.000,2573.000,2515.000,2418.000,2375.000
1985.767,3476.000,3106.000,2948.000,2823.000,2751.000,2680.000,2619.000,2493.000,2533.000,2412.000
1990.425,3423.000,3127.000,2963.000,2821.000,2708.000,2648.000,2569.000,2502.000,2453.000,2400.000
1995.082,3330.000,3026.000,2868.000,2803.000,2716.000,2594.000,2515.000,2477.000,2453.000,2356.000
1999.735,3465.000,3093.000,2955.000,2817.000,2794.000,2698.000,2578.000,2524.000,2483.000,2370.000
2004.385,3976.000,3164.000,3033.000,2924.000,2747.000,2653.000,2613.000,2575.000,2506.000,2440.000
2009.032,4058.000,3244.000,3091.000,2989.000,2855.000,2754.000,2732.000,2614.000,2564.000,2512.000
2013.677,3605.000,3258.000,3127.000,2971.000,2880.000,2878.000,2758.000,2731.000,2604.000,2611.000
2018.321,3567.000,3265.000,3116.000,3044.000,2888.000,2832.000,2732.000,2682.000,2655.000,2556.000
2022.961,3659.000,3355.000,3131.000,3041.000,2935.000,2878.000,2810.000,2675.000,2714.000,2591.000
2027.598,3700.000,3414.000,3231.000,3129.000,3021.000,2962.000,2856.000,2815.000,2752.000,2741.000