File: Raman/2022_11_26/Data/2022_11_26_Nylon6_532nm_Pol_1mW_750mm_600gv_0wn_iDus_100s_10accum_Pos1.csv
-1054.088,671.000,665.000,663.000,660.000,656.000,668.000,665.000,665.000,667.000,666.000
-1049.746,664.000,663.000,667.000,667.000,665.000,665.000,670.000,666.000,666.000,671.000
-1045.406,674.000,675.000,667.000,673.000,671.000,662.000,669.000,669.000,656.000,2199.000
-1041.068,667.000,668.000,671.000,667.000,663.000,675.000,657.000,663.000,654.000,673.000
-1036.731,666.000,673.000,669.000,672.000,671.000,668.000,666.000,661.000,665.000,660.000
-1032.397,672.000,669.000,663.000,667.000,660.000,665.000,669.000,670.000,670.000,663.000
-1028.063,669.000,665.000,667.000,661.000,663.000,657.000,668.000,665.000,3125.000,656.000
-1023.733,667.000,667.000,661.000,657.000,655.000,677.000,664.000,663.000,741.000,659.000
-1019.403,671.000,656.000,661.000,663.000,667.000,663.000,663.000,668.000,667.000,658.000
-1015.077,670.000,660.000,666.000,664.000,662.000,662.000,656.000,668.000,658.000,652.000
-1010.751,669.000,665.000,672.000,667.000,662.000,666.000,659.000,669.000,660.000,663.000
-1006.429,668.000,671.000,665.000,667.000,666.000,661.000,662.000,662.000,662.000,664.000
-1002.107,668.000,666.000,670.000,662.000,667.000,661.000,658.000,665.000,658.000,665.000
-997.788,670.000,669.000,663.000,665.000,661.000,668.000,669.000,660.000,666.000,651.000
-993.469,667.000,667.000,671.000,660.000,663.000,663.000,672.000,662.000,663.000,663.000
-989.154,667.000,670.000,659.000,660.000,661.000,661.000,662.000,667.000,670.000,665.000
-984.840,671.000,673.000,669.000,662.000,674.000,659.000,663.000,662.000,675.000,662.000
-980.529,667.000,659.000,664.000,665.000,667.000,664.000,660.000,667.000,660.000,662.000
-976.218,666.000,663.000,669.000,663.000,659.000,664.000,660.000,665.000,673.000,661.000
-971.910,667.000,666.000,667.000,662.000,661.000,663.000,668.000,659.000,664.000,659.000
-967.603,672.000,665.000,666.000,660.000,663.000,671.000,654.000,666.000,663.000,662.000
-963.299,667.000,664.000,667.000,664.000,669.000,667.000,671.000,661.000,670.000,671.000
-958.996,675.000,675.000,668.000,660.000,664.000,667.000,667.000,665.000,681.000,668.000
-954.696,2035.000,667.000,667.000,671.000,667.000,663.000,666.000,655.000,2486.000,668.000
-950.397,685.000,677.000,669.000,668.000,666.000,665.000,661.000,662.000,1637.000,668.000
-946.100,668.000,668.000,666.000,674.000,674.000,668.000,670.000,667.000,2017.000,663.000
-941.805,669.000,663.000,671.000,661.000,664.000,669.000,665.000,667.000,661.000,661.000
-937.512,679.000,671.000,670.000,662.000,666.000,667.000,666.000,664.000,663.000,668.000
-933.220,668.000,671.000,673.000,675.000,676.000,664.000,669.000,670.000,666.000,668.000
-928.931,668.000,667.000,668.000,671.000,669.000,673.000,659.000,670.000,669.000,666.000
-924.643,679.000,661.000,669.000,668.000,668.000,676.000,662.000,672.000,660.000,663.000
-920.358,667.000,675.000,663.000,669.000,668.000,663.000,669.000,665.000,667.000,671.000
-916.073,676.000,675.000,668.000,664.000,670.000,678.000,664.000,672.000,670.000,661.000
-911.792,676.000,669.000,675.000,675.000,667.000,671.000,672.000,671.000,673.000,670.000
-907.511,672.000,672.000,665.000,662.000,666.000,662.000,663.000,670.000,668.000,668.000
-903.233,682.000,667.000,667.000,673.000,665.000,665.000,661.000,663.000,661.000,669.000
-898.956,674.000,664.000,679.000,666.000,674.000,675.000,673.000,669.000,671.000,672.000
-894.682,672.000,669.000,668.000,668.000,663.000,662.000,673.000,661.000,663.000,674.000
-890.409,681.000,675.000,672.000,669.000,672.000,659.000,666.000,669.000,666.000,669.000
-886.138,677.000,679.000,668.000,668.000,658.000,675.000,674.000,664.000,657.000,672.000
-881.869,681.000,667.000,669.000,661.000,661.000,667.000,662.000,667.000,671.000,663.000
-877.602,676.000,675.000,664.000,660.000,663.000,666.000,669.000,661.000,672.000,669.000
-873.336,674.000,671.000,672.000,669.000,671.000,663.000,672.000,662.000,663.000,660.000
-869.073,680.000,674.000,662.000,667.000,660.000,670.000,667.000,663.000,668.000,665.000
-864.811,677.000,665.000,668.000,661.000,667.000,670.000,676.000,669.000,672.000,663.000
-860.552,673.000,677.000,665.000,662.000,665.000,679.000,669.000,665.000,659.000,664.000
-856.293,672.000,671.000,670.000,667.000,670.000,661.000,659.000,670.000,668.000,664.000
-852.038,672.000,663.000,671.000,658.000,670.000,668.000,668.000,669.000,664.000,675.000
-847.783,673.000,665.000,665.000,663.000,666.000,667.000,663.000,666.000,667.000,661.000
-843.531,674.000,663.000,667.000,666.000,667.000,672.000,668.000,659.000,664.000,673.000
-839.280,669.000,676.000,669.000,672.000,666.000,662.000,664.000,663.000,666.000,663.000
-835.032,671.000,669.000,669.000,665.000,673.000,662.000,678.000,673.000,1009.000,674.000
-830.784,679.000,673.000,677.000,664.000,675.000,665.000,667.000,668.000,659.000,668.000
-826.540,678.000,672.000,664.000,674.000,674.000,665.000,671.000,672.000,668.000,672.000
-822.296,681.000,673.000,673.000,671.000,667.000,671.000,673.000,664.000,673.000,672.000
-818.055,671.000,673.000,669.000,673.000,665.000,678.000,667.000,665.000,663.000,671.000
-813.815,676.000,667.000,667.000,661.000,675.000,669.000,669.000,674.000,667.000,665.000
-809.578,680.000,673.000,668.000,669.000,669.000,667.000,674.000,671.000,670.000,659.000
-805.341,675.000,663.000,663.000,671.000,670.000,666.000,662.000,669.000,661.000,670.000
-801.108,666.000,672.000,667.000,667.000,664.000,672.000,667.000,674.000,675.000,671.000
-796.875,684.000,680.000,669.000,667.000,677.000,668.000,668.000,670.000,672.000,670.000
-792.645,679.000,676.000,673.000,674.000,668.000,675.000,664.000,660.000,664.000,666.000
-788.416,685.000,668.000,670.000,670.000,662.000,668.000,662.000,678.000,669.000,684.000
-784.190,674.000,664.000,673.000,663.000,670.000,668.000,663.000,660.000,664.000,663.000
-779.964,674.000,669.000,675.000,669.000,667.000,671.000,666.000,663.000,655.000,669.000
-775.742,672.000,676.000,675.000,666.000,667.000,670.000,672.000,666.000,680.000,664.000
-771.520,681.000,675.000,667.000,674.000,680.000,665.000,671.000,664.000,671.000,676.000
-767.301,683.000,679.000,670.000,675.000,671.000,672.000,664.000,677.000,669.000,670.000
-763.083,669.000,672.000,671.000,674.000,668.000,673.000,670.000,668.000,663.000,672.000
-758.867,691.000,671.000,673.000,669.000,666.000,671.000,673.000,668.000,669.000,669.000
-754.653,676.000,676.000,672.000,671.000,673.000,675.000,666.000,675.000,672.000,665.000
-750.441,679.000,674.000,667.000,669.000,673.000,672.000,672.000,676.000,666.000,667.000
-746.230,679.000,674.000,676.000,663.000,670.000,666.000,670.000,667.000,664.000,671.000
-742.022,671.000,663.000,677.000,675.000,671.000,659.000,669.000,672.000,667.000,676.000
-737.815,672.000,669.000,671.000,683.000,667.000,677.000,674.000,668.000,672.000,661.000
-733.610,676.000,685.000,679.000,669.000,681.000,673.000,671.000,667.000,673.000,674.000
-729.407,683.000,687.000,684.000,680.000,677.000,672.000,677.000,678.000,681.000,675.000
-725.205,686.000,683.000,677.000,671.000,673.000,675.000,664.000,665.000,1570.000,677.000
-721.007,684.000,672.000,668.000,681.000,676.000,673.000,665.000,675.000,670.000,676.000
-716.808,690.000,670.000,677.000,667.000,673.000,664.000,672.000,667.000,669.000,669.000
-712.612,675.000,660.000,673.000,674.000,664.000,667.000,677.000,665.000,669.000,663.000
-708.417,683.000,680.000,673.000,669.000,669.000,670.000,672.000,667.000,671.000,664.000
-704.227,686.000,683.000,673.000,680.000,664.000,674.000,668.000,665.000,668.000,669.000
-700.036,684.000,687.000,673.000,679.000,677.000,672.000,675.000,672.000,667.000,667.000
-695.846,680.000,679.000,671.000,673.000,680.000,668.000,669.000,667.000,668.000,665.000
-691.659,678.000,681.000,672.000,672.000,675.000,671.000,669.000,664.000,660.000,671.000
-687.475,691.000,684.000,674.000,668.000,676.000,669.000,679.000,663.000,665.000,671.000
-683.292,677.000,678.000,675.000,675.000,666.000,674.000,672.000,680.000,660.000,668.000
-679.109,686.000,669.000,673.000,684.000,667.000,675.000,672.000,667.000,668.000,673.000
-674.929,681.000,681.000,678.000,665.000,673.000,676.000,664.000,667.000,673.000,669.000
-670.753,679.000,679.000,682.000,674.000,675.000,669.000,670.000,675.000,681.000,675.000
-666.576,687.000,685.000,671.000,681.000,670.000,674.000,672.000,670.000,671.000,665.000
-662.401,688.000,680.000,676.000,686.000,672.000,670.000,670.000,671.000,667.000,673.000
-658.228,689.000,669.000,672.000,671.000,676.000,672.000,675.000,669.000,668.000,669.000
-654.059,683.000,680.000,684.000,674.000,678.000,673.000,670.000,676.000,675.000,666.000
-649.889,686.000,673.000,686.000,681.000,668.000,673.000,671.000,671.000,677.000,680.000
-645.722,678.000,672.000,674.000,670.000,680.000,668.000,661.000,680.000,676.000,663.000
-641.556,682.000,674.000,681.000,680.000,672.000,672.000,670.000,672.000,664.000,675.000
-637.394,688.000,681.000,674.000,675.000,682.000,681.000,664.000,668.000,669.000,669.000
-633.231,693.000,676.000,674.000,672.000,671.000,673.000,669.000,671.000,672.000,666.000
-629.071,685.000,673.000,675.000,673.000,674.000,677.000,676.000,664.000,677.000,664.000
-624.912,696.000,683.000,691.000,674.000,675.000,676.000,671.000,668.000,673.000,670.000
-620.757,692.000,675.000,675.000,668.000,675.000,672.000,679.000,678.000,667.000,671.000
-616.602,697.000,678.000,672.000,678.000,677.000,669.000,671.000,675.000,679.000,682.000
-612.448,699.000,681.000,677.000,678.000,673.000,661.000,675.000,673.000,684.000,676.000
-608.297,691.000,680.000,675.000,672.000,680.000,681.000,677.000,677.000,673.000,674.000
-604.149,690.000,683.000,674.000,683.000,674.000,678.000,677.000,676.000,672.000,670.000
-600.001,699.000,686.000,683.000,681.000,683.000,677.000,673.000,669.000,681.000,679.000
-595.854,695.000,708.000,677.000,683.000,678.000,676.000,688.000,682.000,680.000,683.000
-591.710,687.000,711.000,693.000,675.000,685.000,676.000,676.000,679.000,683.000,679.000
-587.569,691.000,686.000,677.000,683.000,687.000,679.000,672.000,669.000,677.000,668.000
-583.428,697.000,691.000,675.000,675.000,676.000,679.000,673.000,679.000,680.000,673.000
-579.289,691.000,687.000,690.000,688.000,672.000,675.000,676.000,683.000,673.000,680.000
-575.151,695.000,693.000,683.000,681.000,681.000,674.000,683.000,671.000,677.000,684.000
-571.017,697.000,694.000,680.000,677.000,684.000,687.000,671.000,673.000,676.000,671.000
-566.883,691.000,686.000,686.000,688.000,685.000,682.000,683.000,682.000,684.000,680.000
-562.751,694.000,689.000,682.000,672.000,681.000,679.000,678.000,677.000,680.000,669.000
-558.621,707.000,688.000,674.000,678.000,677.000,671.000,668.000,674.000,674.000,668.000
-554.494,693.000,682.000,674.000,671.000,671.000,678.000,679.000,674.000,666.000,675.000
-550.367,684.000,683.000,678.000,679.000,679.000,674.000,672.000,674.000,673.000,671.000
-546.242,702.000,683.000,680.000,682.000,682.000,684.000,681.000,681.000,681.000,675.000
-542.118,699.000,692.000,668.000,683.000,678.000,677.000,675.000,665.000,676.000,676.000
-537.999,695.000,696.000,680.000,678.000,676.000,670.000,670.000,666.000,672.000,677.000
-533.879,692.000,682.000,680.000,691.000,673.000,667.000,680.000,684.000,675.000,666.000
-529.761,695.000,695.000,687.000,688.000,684.000,678.000,680.000,684.000,676.000,684.000
-525.644,717.000,684.000,1234.000,691.000,678.000,684.000,679.000,694.000,689.000,679.000
-521.532,695.000,691.000,685.000,690.000,675.000,686.000,681.000,685.000,677.000,683.000
-517.419,697.000,689.000,693.000,684.000,679.000,679.000,683.000,688.000,677.000,681.000
-513.308,703.000,693.000,685.000,688.000,683.000,688.000,689.000,674.000,679.000,680.000
-509.198,710.000,681.000,695.000,692.000,679.000,681.000,686.000,673.000,682.000,684.000
-505.093,701.000,689.000,683.000,684.000,685.000,675.000,678.000,674.000,684.000,683.000
-500.987,704.000,686.000,697.000,691.000,678.000,680.000,683.000,683.000,679.000,665.000
-496.883,708.000,684.000,691.000,694.000,685.000,687.000,681.000,677.000,682.000,674.000
-492.780,707.000,687.000,683.000,695.000,686.000,686.000,679.000,682.000,684.000,675.000
-488.682,703.000,689.000,687.000,674.000,686.000,683.000,673.000,678.000,674.000,684.000
-484.583,716.000,693.000,698.000,694.000,679.000,682.000,686.000,669.000,675.000,678.000
-480.486,710.000,696.000,695.000,686.000,673.000,682.000,683.000,677.000,686.000,684.000
-476.390,707.000,692.000,689.000,3635.000,682.000,682.000,684.000,678.000,688.000,673.000
-472.299,718.000,699.000,688.000,723.000,688.000,688.000,691.000,689.000,686.000,673.000
-468.207,708.000,688.000,686.000,679.000,684.000,686.000,681.000,681.000,692.000,675.000
-464.116,706.000,696.000,699.000,688.000,688.000,693.000,697.000,686.000,695.000,684.000
-460.028,718.000,705.000,688.000,684.000,692.000,684.000,678.000,692.000,682.000,685.000
-455.943,715.000,695.000,686.000,697.000,681.000,686.000,683.000,684.000,681.000,687.000
-451.858,714.000,693.000,691.000,693.000,684.000,680.000,689.000,676.000,684.000,676.000
-447.775,708.000,695.000,695.000,700.000,689.000,697.000,685.000,695.000,684.000,690.000
-443.693,710.000,698.000,699.000,678.000,688.000,684.000,677.000,681.000,679.000,685.000
-439.616,711.000,696.000,698.000,1351.000,688.000,686.000,682.000,681.000,681.000,676.000
-435.538,716.000,687.000,697.000,1282.000,689.000,690.000,686.000,686.000,689.000,683.000
-431.461,713.000,696.000,692.000,681.000,692.000,692.000,692.000,683.000,690.000,688.000
-427.386,706.000,696.000,694.000,688.000,678.000,691.000,688.000,682.000,684.000,676.000
-423.316,719.000,703.000,699.000,686.000,691.000,697.000,685.000,686.000,697.000,695.000
-419.244,725.000,705.000,695.000,697.000,696.000,693.000,686.000,689.000,692.000,700.000
-415.175,721.000,704.000,703.000,691.000,697.000,692.000,687.000,687.000,707.000,693.000
-411.107,719.000,706.000,696.000,696.000,692.000,694.000,685.000,697.000,698.000,684.000
-407.043,708.000,693.000,696.000,690.000,687.000,691.000,686.000,694.000,694.000,672.000
-402.979,713.000,700.000,695.000,694.000,681.000,694.000,695.000,687.000,678.000,682.000
-398.916,719.000,708.000,695.000,690.000,698.000,695.000,696.000,682.000,698.000,683.000
-394.855,715.000,711.000,701.000,698.000,682.000,680.000,694.000,683.000,695.000,683.000
-390.799,706.000,709.000,696.000,700.000,699.000,698.000,692.000,686.000,684.000,686.000
-386.741,723.000,701.000,695.000,698.000,692.000,692.000,698.000,691.000,697.000,690.000
-382.685,723.000,703.000,711.000,1206.000,706.000,694.000,681.000,695.000,694.000,688.000
-378.631,724.000,700.000,704.000,706.000,703.000,691.000,693.000,686.000,699.000,684.000
-374.581,723.000,708.000,704.000,691.000,701.000,697.000,697.000,700.000,700.000,697.000
-370.531,719.000,703.000,707.000,694.000,704.000,694.000,692.000,695.000,683.000,693.000
-366.482,732.000,727.000,713.000,706.000,708.000,694.000,699.000,702.000,702.000,703.000
-362.434,740.000,717.000,714.000,706.000,722.000,691.000,695.000,702.000,703.000,706.000
-358.391,740.000,727.000,710.000,718.000,717.000,718.000,711.000,706.000,696.000,704.000
-354.347,747.000,726.000,719.000,716.000,720.000,702.000,710.000,703.000,710.000,705.000
-350.305,734.000,712.000,708.000,711.000,716.000,711.000,695.000,709.000,703.000,698.000
-346.265,737.000,711.000,711.000,705.000,702.000,710.000,715.000,712.000,707.000,701.000
-342.229,739.000,719.000,707.000,713.000,700.000,710.000,714.000,711.000,706.000,702.000
-338.192,740.000,716.000,722.000,721.000,722.000,715.000,717.000,705.000,711.000,701.000
-334.156,753.000,733.000,714.000,734.000,726.000,721.000,711.000,719.000,708.000,708.000
-330.123,750.000,722.000,730.000,736.000,721.000,711.000,706.000,716.000,715.000,718.000
-326.093,742.000,730.000,722.000,724.000,726.000,712.000,703.000,715.000,710.000,709.000
-322.063,744.000,720.000,737.000,731.000,723.000,711.000,725.000,721.000,716.000,719.000
-318.035,749.000,733.000,733.000,723.000,735.000,715.000,718.000,723.000,714.000,724.000
-314.008,758.000,731.000,723.000,742.000,718.000,719.000,729.000,720.000,730.000,722.000
-309.985,763.000,748.000,731.000,729.000,732.000,724.000,715.000,728.000,727.000,722.000
-305.962,760.000,758.000,738.000,724.000,722.000,726.000,739.000,740.000,727.000,728.000
-301.940,747.000,740.000,752.000,750.000,730.000,729.000,731.000,738.000,725.000,724.000
-297.920,772.000,762.000,744.000,736.000,739.000,739.000,735.000,742.000,730.000,723.000
-293.904,774.000,752.000,741.000,746.000,735.000,740.000,737.000,743.000,746.000,728.000
-289.887,774.000,759.000,751.000,740.000,748.000,750.000,744.000,740.000,746.000,729.000
-285.872,777.000,761.000,753.000,749.000,748.000,748.000,758.000,747.000,744.000,739.000
-281.859,791.000,778.000,757.000,767.000,753.000,746.000,757.000,752.000,750.000,751.000
-277.850,792.000,782.000,759.000,767.000,753.000,764.000,741.000,747.000,752.000,755.000
-273.840,798.000,768.000,757.000,756.000,746.000,743.000,740.000,754.000,758.000,753.000
-269.832,792.000,763.000,754.000,771.000,763.000,752.000,748.000,754.000,753.000,749.000
-265.825,799.000,765.000,764.000,763.000,757.000,762.000,746.000,755.000,752.000,747.000
-261.823,797.000,772.000,766.000,772.000,766.000,766.000,759.000,753.000,769.000,764.000
-257.820,800.000,771.000,768.000,751.000,768.000,763.000,746.000,764.000,741.000,751.000
-253.818,811.000,799.000,766.000,766.000,770.000,770.000,768.000,767.000,767.000,762.000
-249.818,798.000,787.000,789.000,789.000,771.000,767.000,767.000,768.000,775.000,767.000
-245.822,815.000,802.000,790.000,784.000,774.000,772.000,777.000,768.000,785.000,773.000
-241.826,827.000,809.000,815.000,787.000,801.000,801.000,799.000,767.000,771.000,798.000
-237.831,838.000,818.000,812.000,807.000,772.000,781.000,767.000,783.000,788.000,792.000
-233.838,846.000,812.000,819.000,796.000,791.000,806.000,798.000,799.000,788.000,803.000
-229.849,852.000,825.000,848.000,820.000,805.000,826.000,806.000,818.000,813.000,801.000
-225.859,834.000,840.000,836.000,829.000,823.000,813.000,811.000,809.000,806.000,812.000
-221.871,861.000,841.000,841.000,822.000,814.000,825.000,838.000,831.000,821.000,815.000
-217.885,900.000,865.000,863.000,844.000,829.000,830.000,846.000,836.000,843.000,837.000
-213.903,885.000,858.000,845.000,843.000,851.000,850.000,834.000,848.000,842.000,830.000
-209.920,909.000,883.000,883.000,872.000,869.000,855.000,854.000,863.000,853.000,852.000
-205.938,896.000,889.000,871.000,887.000,871.000,877.000,854.000,877.000,864.000,851.000
-201.959,933.000,884.000,879.000,864.000,878.000,859.000,868.000,863.000,868.000,866.000
-197.983,927.000,903.000,883.000,897.000,888.000,869.000,883.000,882.000,885.000,876.000
-194.006,954.000,919.000,906.000,889.000,908.000,895.000,876.000,878.000,889.000,880.000
-190.032,948.000,930.000,922.000,912.000,905.000,893.000,900.000,922.000,884.000,897.000
-186.059,966.000,959.000,920.000,930.000,928.000,919.000,921.000,943.000,908.000,906.000
-182.090,983.000,956.000,961.000,947.000,928.000,958.000,951.000,944.000,931.000,919.000
-178.120,984.000,979.000,980.000,958.000,951.000,969.000,953.000,952.000,948.000,947.000
-174.152,1040.000,996.000,1005.000,993.000,981.000,990.000,1007.000,987.000,979.000,989.000
-170.185,1054.000,1010.000,1011.000,1003.000,1001.000,1016.000,998.000,999.000,999.000,1032.000
-166.223,1089.000,1063.000,1038.000,1051.000,1019.000,1027.000,1014.000,1027.000,1038.000,1026.000
-162.260,1127.000,1101.000,1073.000,1056.000,1096.000,1042.000,1063.000,1052.000,1047.000,1070.000
-158.298,1138.000,1115.000,1090.000,1089.000,1101.000,1103.000,1085.000,1061.000,1068.000,1084.000
-154.339,1180.000,1153.000,1152.000,1155.000,1142.000,1132.000,1129.000,1132.000,1132.000,1101.000
-150.383,1223.000,1220.000,1190.000,1195.000,1200.000,1235.000,1168.000,1186.000,1179.000,1191.000
-146.426,1255.000,1232.000,1234.000,1208.000,1254.000,1215.000,1214.000,1220.000,1226.000,1200.000
-142.472,1319.000,1340.000,1315.000,1292.000,1265.000,1311.000,1291.000,1306.000,1276.000,1286.000
-138.518,1430.000,1405.000,1343.000,1375.000,1380.000,1352.000,1373.000,1345.000,1367.000,1349.000
-134.569,1468.000,1472.000,1419.000,1408.000,1424.000,1416.000,1400.000,1414.000,1442.000,1411.000
-130.619,1591.000,1561.000,1553.000,1545.000,1532.000,1531.000,1543.000,1543.000,1536.000,1514.000
-126.671,1667.000,1675.000,1686.000,1655.000,1622.000,1645.000,1643.000,1627.000,1665.000,1599.000
-122.724,1832.000,1811.000,1778.000,1809.000,1781.000,1760.000,1769.000,1740.000,1749.000,1754.000
-118.782,2109.000,2015.000,2027.000,2019.000,1981.000,2001.000,2000.000,2018.000,2021.000,1996.000
-114.838,2294.000,2273.000,2239.000,2296.000,2230.000,2284.000,2227.000,2281.000,2243.000,2278.000
-110.897,2669.000,2623.000,2616.000,2607.000,2552.000,2580.000,2638.000,2611.000,2616.000,2641.000
-106.957,3204.000,3163.000,3157.000,3149.000,3109.000,3166.000,3145.000,3132.000,3113.000,3123.000
-103.021,3567.000,3504.000,3539.000,3570.000,3519.000,3530.000,3538.000,3578.000,3515.000,3549.000
-99.084,3899.000,3837.000,3871.000,3847.000,3821.000,3840.000,3811.000,3818.000,3813.000,3801.000
-95.149,4125.000,4110.000,4142.000,4067.000,4076.000,4094.000,4098.000,4106.000,4113.000,4090.000
-91.216,4018.000,4035.000,3924.000,3914.000,3943.000,3905.000,3931.000,3851.000,3893.000,3891.000
-87.286,3969.000,3891.000,3897.000,3852.000,3862.000,3865.000,3946.000,3894.000,3878.000,3851.000
-83.356,4090.000,4036.000,4018.000,3939.000,4027.000,3934.000,4027.000,4010.000,3988.000,4061.000
-79.427,3975.000,4059.000,3989.000,3946.000,4017.000,4019.000,3927.000,3984.000,3982.000,3925.000
-75.500,4117.000,4095.000,4012.000,4040.000,4074.000,4024.000,4099.000,4059.000,4065.000,4025.000
-71.577,4334.000,4335.000,4318.000,4281.000,4302.000,4281.000,4247.000,4238.000,4247.000,4304.000
-67.654,4329.000,4275.000,4273.000,4239.000,4312.000,4345.000,4270.000,4311.000,4317.000,4281.000
-63.732,4611.000,4598.000,4576.000,4588.000,4560.000,4519.000,4553.000,4528.000,4550.000,4526.000
-59.811,4851.000,4796.000,4759.000,4817.000,4876.000,4830.000,4823.000,4797.000,4775.000,4884.000
-55.895,4948.000,4990.000,4900.000,4891.000,4867.000,5057.000,4925.000,4919.000,4909.000,4942.000
-51.978,5237.000,5232.000,5263.000,5188.000,5164.000,5182.000,5224.000,5250.000,5256.000,5138.000
-48.062,5381.000,5304.000,5338.000,5372.000,5362.000,5337.000,5347.000,5328.000,5240.000,5300.000
-44.149,5321.000,5247.000,5328.000,5217.000,5220.000,5337.000,5266.000,5287.000,5237.000,5329.000
-40.239,5408.000,5376.000,5389.000,5327.000,5367.000,5366.000,5352.000,5340.000,5404.000,5310.000
-36.328,5534.000,5395.000,5511.000,5459.000,5470.000,5425.000,5475.000,5443.000,5445.000,5533.000
-32.419,5545.000,5507.000,5511.000,5447.000,5449.000,5445.000,5531.000,5457.000,5445.000,5424.000
-28.512,5853.000,5918.000,5913.000,5797.000,5886.000,5858.000,5784.000,5816.000,5891.000,5851.000
-24.608,6052.000,6064.000,6118.000,6033.000,5985.000,6040.000,5998.000,5942.000,5966.000,6063.000
-20.704,6228.000,6168.000,6175.000,6068.000,6090.000,6237.000,6163.000,6107.000,6119.000,6115.000
-16.801,6695.000,6657.000,6573.000,6572.000,6705.000,6563.000,6637.000,6699.000,6607.000,6576.000
-12.901,6917.000,6835.000,6905.000,6852.000,6899.000,6764.000,6822.000,6914.000,6830.000,6801.000
-9.004,7056.000,7030.000,7010.000,7078.000,7074.000,6957.000,6986.000,6967.000,7026.000,6997.000
-5.106,7768.000,7640.000,7752.000,7660.000,7632.000,7691.000,7711.000,7758.000,7613.000,7701.000
-1.210,4127.000,4043.000,4058.000,4038.000,4014.000,4030.000,4022.000,3989.000,4014.000,4032.000
2.685,1186.000,1185.000,1171.000,1179.000,1185.000,1181.000,1169.000,1197.000,1180.000,1175.000
6.575,1498.000,1540.000,1544.000,1539.000,1549.000,1513.000,1517.000,1525.000,1541.000,1516.000
10.466,6755.000,6808.000,6685.000,6775.000,6776.000,6717.000,6761.000,6770.000,6748.000,6785.000
14.356,8842.000,8822.000,8885.000,8876.000,8739.000,8865.000,8784.000,8956.000,8875.000,8886.000
18.244,8399.000,8279.000,8258.000,8300.000,8382.000,8329.000,8164.000,8241.000,8300.000,8184.000
22.128,7633.000,7753.000,7642.000,7625.000,7670.000,7643.000,7467.000,7550.000,7601.000,7545.000
26.013,7423.000,7311.000,7264.000,7157.000,7240.000,7335.000,7289.000,7330.000,7283.000,7334.000
29.896,7281.000,7241.000,7235.000,7149.000,7183.000,7206.000,7134.000,7247.000,7173.000,7227.000
33.777,7003.000,6902.000,6916.000,6923.000,6910.000,6931.000,6903.000,6931.000,6830.000,6875.000
37.655,6717.000,6663.000,6752.000,6632.000,6621.000,6623.000,6629.000,6696.000,6637.000,6649.000
41.533,6825.000,6724.000,6781.000,6718.000,6711.000,6633.000,6699.000,6669.000,6753.000,6626.000
45.410,6556.000,6442.000,6360.000,6507.000,6476.000,6487.000,6453.000,6454.000,6367.000,6412.000
49.285,6412.000,6378.000,6450.000,6493.000,6463.000,6515.000,6417.000,6381.000,6410.000,6475.000
53.157,6672.000,6711.000,6703.000,6748.000,6640.000,6690.000,6623.000,6706.000,6610.000,6614.000
57.029,6611.000,6558.000,6520.000,6561.000,6514.000,6650.000,6527.000,6518.000,6522.000,6582.000
60.899,6690.000,6599.000,6612.000,6595.000,6585.000,6510.000,6556.000,6623.000,6654.000,6611.000
64.768,6683.000,6614.000,6558.000,6495.000,6623.000,6523.000,6509.000,6553.000,6592.000,6562.000
68.633,6294.000,6323.000,6295.000,6309.000,6274.000,6197.000,6186.000,6257.000,6251.000,6242.000
72.498,6222.000,6163.000,6227.000,6106.000,6076.000,6102.000,6039.000,6139.000,5990.000,6071.000
76.362,6023.000,6071.000,6077.000,5926.000,6052.000,5923.000,6062.000,5935.000,6015.000,5943.000
80.224,5773.000,5769.000,5680.000,5615.000,5670.000,5723.000,5653.000,5562.000,5684.000,5693.000
84.083,5728.000,5661.000,5684.000,5706.000,5663.000,5673.000,5675.000,5643.000,5612.000,5660.000
87.942,5866.000,5709.000,5715.000,5665.000,5663.000,5683.000,5625.000,5700.000,5751.000,5767.000
91.800,5570.000,5496.000,5592.000,5557.000,5452.000,5565.000,5488.000,5504.000,5467.000,5456.000
95.656,5682.000,5587.000,5629.000,5581.000,5565.000,5622.000,5575.000,5527.000,5578.000,5642.000
99.508,5795.000,5790.000,5825.000,5743.000,5836.000,5749.000,5720.000,5793.000,5737.000,5731.000
103.361,5795.000,5812.000,5719.000,5777.000,5762.000,5741.000,5788.000,5749.000,5755.000,5703.000
107.212,6134.000,5988.000,6000.000,5955.000,6016.000,5929.000,5999.000,5977.000,5936.000,5899.000
111.061,5783.000,5849.000,5756.000,5739.000,5762.000,5705.000,5802.000,5745.000,5769.000,5781.000
114.907,5124.000,5089.000,5072.000,5103.000,4992.000,5091.000,5006.000,5093.000,5042.000,5097.000
118.754,4507.000,4526.000,4523.000,4435.000,4429.000,4443.000,4478.000,4528.000,4416.000,4437.000
122.599,3904.000,3894.000,3903.000,3858.000,3848.000,3809.000,3822.000,3840.000,3807.000,3818.000
126.442,3334.000,3275.000,3281.000,3294.000,3202.000,3232.000,3244.000,3217.000,3247.000,3188.000
130.281,3061.000,2963.000,2972.000,2910.000,2941.000,2864.000,2863.000,2918.000,2925.000,2961.000
134.122,2682.000,2685.000,2648.000,2695.000,2697.000,2635.000,2630.000,2642.000,2678.000,2676.000
137.960,2484.000,2446.000,2421.000,2397.000,2347.000,2401.000,2347.000,2378.000,2379.000,2835.000
141.797,2300.000,2297.000,2263.000,2274.000,2286.000,2274.000,2277.000,2222.000,2238.000,2417.000
145.630,2194.000,2191.000,2139.000,2102.000,2148.000,2155.000,2088.000,2150.000,2056.000,2074.000
149.464,2012.000,2006.000,1927.000,1977.000,2008.000,1946.000,1945.000,1995.000,1926.000,1944.000
153.296,1967.000,1931.000,1906.000,1915.000,1917.000,1908.000,1866.000,1886.000,1905.000,1899.000
157.127,1872.000,1888.000,1858.000,1807.000,1789.000,1778.000,1784.000,1789.000,1809.000,1799.000
160.954,1779.000,1754.000,1702.000,1672.000,1704.000,1674.000,1728.000,1652.000,1709.000,1662.000
164.781,1718.000,1714.000,1666.000,1690.000,1663.000,1654.000,1687.000,1623.000,1647.000,1660.000
168.607,1668.000,1641.000,1620.000,1629.000,1641.000,1597.000,1601.000,1566.000,1597.000,1591.000
172.432,1609.000,1572.000,1574.000,1527.000,1485.000,1545.000,1519.000,1508.000,1542.000,1503.000
176.252,1573.000,1543.000,1501.000,1516.000,1505.000,1466.000,1482.000,1469.000,1494.000,1474.000
180.074,1561.000,1488.000,1476.000,1475.000,1470.000,1465.000,1452.000,1472.000,1451.000,1442.000
183.893,1451.000,1427.000,1441.000,1392.000,1419.000,1413.000,1403.000,1369.000,1414.000,1365.000
187.711,1460.000,1398.000,1406.000,1403.000,1403.000,1363.000,1346.000,1371.000,1374.000,1386.000
191.526,1401.000,1364.000,1349.000,1344.000,1349.000,1357.000,1311.000,1326.000,1347.000,1338.000
195.341,1360.000,1344.000,1328.000,1334.000,1277.000,1316.000,1278.000,1270.000,2963.000,1273.000
199.154,1368.000,1311.000,1275.000,1300.000,1291.000,1243.000,1265.000,1273.000,1317.000,1248.000
202.966,1361.000,1319.000,1266.000,1275.000,1228.000,1271.000,1248.000,1215.000,1259.000,1239.000
206.774,1293.000,1248.000,1247.000,1238.000,1215.000,1239.000,1217.000,1194.000,1232.000,1196.000
210.583,1307.000,1292.000,1283.000,1254.000,1202.000,1233.000,1224.000,1211.000,1226.000,1218.000
214.390,1319.000,1236.000,1219.000,1220.000,1257.000,1202.000,1198.000,1207.000,1203.000,1198.000
218.196,1265.000,1240.000,1210.000,1193.000,1181.000,1191.000,1189.000,1200.000,1173.000,1183.000
221.998,1305.000,1212.000,1215.000,1192.000,1174.000,1206.000,1193.000,1158.000,1165.000,1192.000
225.800,1240.000,1220.000,1192.000,1190.000,1209.000,1151.000,1153.000,1159.000,1164.000,1153.000
229.601,1258.000,1196.000,1153.000,1134.000,1139.000,1127.000,1147.000,1136.000,1178.000,1095.000
233.400,1237.000,1182.000,1157.000,1183.000,1135.000,1134.000,1143.000,1151.000,1127.000,1089.000
237.196,1206.000,1152.000,1148.000,1146.000,1127.000,1106.000,1109.000,1107.000,1147.000,1122.000
240.992,1196.000,1138.000,1098.000,1128.000,1089.000,1081.000,1105.000,1087.000,1095.000,1090.000
244.787,1183.000,1111.000,1124.000,1104.000,1096.000,1091.000,1094.000,1089.000,1084.000,1054.000
248.580,1160.000,1114.000,1109.000,1077.000,1062.000,1059.000,1034.000,1086.000,1054.000,1055.000
252.370,1115.000,1080.000,1074.000,1107.000,1052.000,1061.000,1041.000,1049.000,1041.000,1025.000
256.160,1145.000,1080.000,1078.000,1056.000,1048.000,1056.000,1056.000,1048.000,1021.000,1029.000
259.948,1117.000,1061.000,1078.000,1048.000,1033.000,1030.000,1026.000,1024.000,1023.000,1047.000
263.735,1107.000,1058.000,1037.000,1018.000,1016.000,1022.000,996.000,997.000,999.000,1002.000
267.518,1110.000,1040.000,1034.000,1013.000,1026.000,1009.000,995.000,979.000,1001.000,1038.000
271.302,1107.000,1028.000,1010.000,1006.000,1017.000,1002.000,992.000,980.000,994.000,985.000
275.085,1103.000,1027.000,1014.000,988.000,1007.000,1012.000,994.000,995.000,972.000,971.000
278.865,1082.000,1010.000,993.000,1014.000,992.000,976.000,981.000,983.000,981.000,974.000
282.643,1071.000,1049.000,1020.000,984.000,991.000,996.000,993.000,993.000,971.000,1001.000
286.420,1103.000,1049.000,1021.000,991.000,992.000,990.000,963.000,1005.000,992.000,998.000
290.196,1121.000,1054.000,1058.000,1016.000,1036.000,1020.000,1014.000,1005.000,1018.000,994.000
293.971,1114.000,1051.000,1024.000,1007.000,1032.000,998.000,995.000,1008.000,1004.000,1020.000
297.742,1090.000,1013.000,998.000,1001.000,989.000,992.000,999.000,978.000,976.000,959.000
301.513,1065.000,1035.000,1005.000,976.000,989.000,988.000,957.000,963.000,963.000,960.000
305.283,1058.000,1015.000,977.000,1000.000,985.000,951.000,937.000,966.000,953.000,968.000
309.052,1049.000,990.000,965.000,968.000,971.000,949.000,937.000,936.000,946.000,936.000
312.817,1040.000,992.000,953.000,965.000,947.000,937.000,949.000,928.000,954.000,944.000
316.582,1042.000,980.000,967.000,961.000,941.000,954.000,931.000,923.000,925.000,935.000
320.346,1017.000,970.000,934.000,931.000,924.000,1207.000,913.000,920.000,896.000,890.000
324.108,1016.000,967.000,944.000,949.000,924.000,930.000,922.000,928.000,930.000,929.000
327.867,1037.000,957.000,950.000,925.000,925.000,933.000,929.000,914.000,913.000,904.000
331.626,1014.000,952.000,933.000,911.000,912.000,901.000,908.000,902.000,910.000,891.000
335.384,992.000,962.000,928.000,927.000,900.000,906.000,929.000,920.000,913.000,887.000
339.140,1015.000,952.000,944.000,917.000,927.000,912.000,933.000,919.000,901.000,897.000
342.893,979.000,953.000,921.000,917.000,903.000,908.000,892.000,882.000,896.000,879.000
346.646,992.000,938.000,924.000,902.000,886.000,899.000,916.000,903.000,915.000,885.000
350.398,1008.000,938.000,920.000,887.000,887.000,898.000,884.000,896.000,882.000,882.000
354.148,982.000,917.000,911.000,912.000,876.000,900.000,865.000,879.000,883.000,873.000
357.894,990.000,931.000,918.000,906.000,898.000,883.000,893.000,875.000,884.000,872.000
361.641,999.000,945.000,928.000,915.000,920.000,893.000,868.000,881.000,860.000,873.000
365.387,993.000,948.000,900.000,904.000,891.000,911.000,926.000,894.000,903.000,886.000
369.131,991.000,946.000,946.000,917.000,900.000,932.000,906.000,898.000,900.000,908.000
372.871,979.000,938.000,926.000,915.000,908.000,889.000,904.000,888.000,898.000,885.000
376.612,987.000,914.000,891.000,881.000,856.000,884.000,870.000,861.000,863.000,867.000
380.351,974.000,1003.000,887.000,863.000,880.000,861.000,871.000,846.000,835.000,844.000
384.089,964.000,892.000,893.000,857.000,842.000,846.000,831.000,835.000,820.000,825.000
387.824,944.000,886.000,856.000,854.000,831.000,849.000,818.000,849.000,834.000,814.000
391.559,958.000,904.000,854.000,853.000,841.000,833.000,829.000,843.000,816.000,844.000
395.292,941.000,891.000,875.000,849.000,834.000,844.000,860.000,849.000,860.000,837.000
399.024,951.000,873.000,849.000,852.000,846.000,830.000,846.000,840.000,824.000,827.000
402.752,931.000,861.000,856.000,835.000,820.000,834.000,834.000,813.000,822.000,806.000
406.481,945.000,875.000,856.000,841.000,829.000,831.000,823.000,817.000,819.000,817.000
410.208,953.000,879.000,845.000,847.000,848.000,830.000,828.000,808.000,821.000,804.000
413.934,928.000,877.000,875.000,851.000,829.000,833.000,836.000,832.000,831.000,817.000
417.656,928.000,884.000,848.000,836.000,846.000,852.000,812.000,812.000,823.000,830.000
421.379,929.000,876.000,851.000,838.000,838.000,834.000,837.000,823.000,835.000,817.000
425.100,935.000,865.000,882.000,860.000,849.000,837.000,831.000,838.000,829.000,831.000
428.820,1000.000,923.000,902.000,860.000,845.000,861.000,846.000,848.000,867.000,835.000
432.536,973.000,907.000,878.000,856.000,857.000,863.000,856.000,853.000,843.000,851.000
436.253,963.000,892.000,874.000,847.000,864.000,848.000,842.000,834.000,833.000,836.000
439.969,937.000,873.000,882.000,844.000,854.000,857.000,811.000,817.000,823.000,827.000
443.682,927.000,872.000,878.000,837.000,834.000,835.000,827.000,811.000,828.000,811.000
447.393,927.000,861.000,854.000,849.000,827.000,842.000,822.000,824.000,816.000,828.000
451.103,944.000,875.000,854.000,839.000,834.000,833.000,822.000,804.000,818.000,807.000
454.813,926.000,870.000,842.000,826.000,802.000,807.000,811.000,810.000,797.000,806.000
458.520,920.000,856.000,833.000,847.000,816.000,814.000,804.000,808.000,803.000,798.000
462.225,942.000,867.000,854.000,833.000,812.000,820.000,805.000,815.000,808.000,804.000
465.929,926.000,863.000,843.000,817.000,816.000,819.000,806.000,812.000,820.000,797.000
469.633,933.000,861.000,834.000,821.000,816.000,820.000,804.000,822.000,813.000,799.000
473.334,925.000,859.000,857.000,831.000,837.000,814.000,808.000,811.000,790.000,812.000
477.033,931.000,863.000,845.000,827.000,801.000,800.000,800.000,807.000,810.000,1271.000
480.731,914.000,853.000,836.000,831.000,788.000,811.000,808.000,795.000,791.000,797.000
484.429,932.000,856.000,827.000,838.000,825.000,831.000,819.000,811.000,797.000,1286.000
488.124,937.000,861.000,848.000,839.000,838.000,832.000,820.000,809.000,809.000,813.000
491.817,927.000,868.000,850.000,838.000,829.000,807.000,821.000,810.000,810.000,817.000
495.510,965.000,874.000,869.000,845.000,842.000,828.000,846.000,829.000,819.000,818.000
499.201,941.000,885.000,870.000,931.000,839.000,844.000,829.000,823.000,835.000,807.000
502.891,945.000,882.000,863.000,848.000,842.000,832.000,811.000,826.000,827.000,831.000
506.577,932.000,892.000,866.000,863.000,836.000,843.000,845.000,840.000,817.000,831.000
510.264,932.000,892.000,858.000,854.000,846.000,833.000,840.000,842.000,822.000,832.000
513.949,950.000,892.000,859.000,845.000,839.000,836.000,832.000,830.000,828.000,825.000
517.633,966.000,896.000,871.000,869.000,872.000,861.000,840.000,864.000,868.000,821.000
521.314,957.000,904.000,875.000,866.000,852.000,844.000,846.000,863.000,850.000,850.000
524.994,971.000,904.000,892.000,885.000,841.000,857.000,841.000,843.000,842.000,836.000
528.674,975.000,914.000,878.000,894.000,880.000,845.000,859.000,860.000,854.000,843.000
532.352,987.000,919.000,901.000,885.000,877.000,880.000,862.000,1217.000,841.000,843.000
536.026,994.000,934.000,914.000,913.000,899.000,888.000,870.000,870.000,867.000,876.000
539.701,1018.000,947.000,935.000,923.000,922.000,893.000,913.000,894.000,896.000,895.000
543.375,980.000,931.000,926.000,880.000,899.000,871.000,861.000,872.000,884.000,874.000
547.047,958.000,892.000,887.000,849.000,841.000,838.000,847.000,840.000,804.000,827.000
550.715,931.000,865.000,854.000,840.000,829.000,820.000,828.000,819.000,834.000,802.000
554.385,938.000,858.000,839.000,826.000,832.000,845.000,825.000,819.000,817.000,829.000
558.052,928.000,868.000,858.000,817.000,813.000,828.000,825.000,804.000,797.000,815.000
561.718,933.000,865.000,835.000,821.000,831.000,820.000,819.000,807.000,793.000,1248.000
565.381,938.000,891.000,849.000,846.000,847.000,831.000,818.000,832.000,824.000,843.000
569.044,946.000,885.000,871.000,862.000,849.000,830.000,843.000,838.000,829.000,835.000
572.706,972.000,910.000,904.000,895.000,865.000,879.000,863.000,876.000,862.000,880.000
576.366,1040.000,950.000,936.000,933.000,934.000,907.000,918.000,909.000,916.000,907.000
580.023,1054.000,973.000,942.000,946.000,931.000,945.000,938.000,915.000,918.000,929.000
583.680,1032.000,986.000,981.000,947.000,934.000,943.000,927.000,921.000,926.000,925.000
587.336,1039.000,977.000,952.000,973.000,956.000,938.000,955.000,934.000,924.000,932.000
590.990,1048.000,976.000,951.000,951.000,939.000,1301.000,932.000,911.000,929.000,930.000
594.641,1039.000,976.000,943.000,948.000,941.000,933.000,915.000,933.000,945.000,922.000
598.293,1051.000,1002.000,949.000,963.000,933.000,916.000,940.000,926.000,918.000,931.000
601.943,1060.000,952.000,958.000,938.000,949.000,924.000,941.000,918.000,941.000,936.000
605.591,1030.000,972.000,959.000,957.000,928.000,939.000,899.000,916.000,900.000,925.000
609.236,1044.000,975.000,944.000,938.000,933.000,920.000,901.000,920.000,906.000,894.000
612.882,1019.000,961.000,938.000,951.000,936.000,914.000,914.000,913.000,901.000,919.000
616.526,1033.000,964.000,939.000,915.000,940.000,919.000,925.000,890.000,895.000,901.000
620.169,1028.000,965.000,949.000,915.000,915.000,917.000,892.000,898.000,903.000,908.000
623.808,1021.000,963.000,937.000,926.000,885.000,902.000,903.000,895.000,897.000,882.000
627.448,1008.000,933.000,927.000,912.000,904.000,894.000,907.000,909.000,888.000,890.000
631.086,1022.000,936.000,918.000,899.000,911.000,908.000,894.000,880.000,888.000,895.000
634.723,1020.000,957.000,920.000,906.000,907.000,906.000,884.000,908.000,881.000,890.000
638.356,1005.000,935.000,920.000,910.000,904.000,898.000,880.000,879.000,877.000,875.000
641.990,1027.000,933.000,929.000,905.000,884.000,905.000,896.000,890.000,865.000,875.000
645.623,997.000,919.000,939.000,906.000,888.000,875.000,884.000,879.000,883.000,862.000
649.254,979.000,922.000,908.000,895.000,877.000,900.000,883.000,891.000,881.000,857.000
652.881,970.000,928.000,898.000,883.000,865.000,879.000,1042.000,867.000,854.000,858.000
656.509,972.000,898.000,874.000,868.000,880.000,862.000,877.000,847.000,836.000,858.000
660.136,995.000,906.000,884.000,876.000,880.000,856.000,844.000,846.000,849.000,838.000
663.761,988.000,919.000,901.000,886.000,886.000,870.000,848.000,851.000,844.000,834.000
667.383,981.000,907.000,900.000,875.000,886.000,850.000,857.000,852.000,859.000,830.000
671.005,974.000,918.000,901.000,872.000,872.000,859.000,838.000,842.000,841.000,844.000
674.626,980.000,905.000,888.000,872.000,866.000,867.000,852.000,841.000,837.000,840.000
678.246,968.000,929.000,902.000,885.000,875.000,863.000,865.000,859.000,847.000,838.000
681.862,998.000,917.000,905.000,878.000,871.000,863.000,854.000,851.000,850.000,858.000
685.478,995.000,924.000,898.000,896.000,875.000,870.000,871.000,864.000,852.000,855.000
689.093,993.000,928.000,885.000,891.000,894.000,891.000,867.000,881.000,880.000,866.000
692.707,1010.000,957.000,923.000,907.000,899.000,883.000,880.000,866.000,884.000,876.000
696.317,1021.000,931.000,899.000,876.000,894.000,886.000,876.000,868.000,869.000,867.000
699.928,1035.000,960.000,935.000,927.000,903.000,892.000,907.000,897.000,875.000,880.000
703.537,1017.000,935.000,939.000,916.000,894.000,910.000,901.000,907.000,891.000,884.000
707.145,1035.000,943.000,940.000,929.000,925.000,916.000,901.000,897.000,878.000,887.000
710.750,1063.000,973.000,951.000,918.000,934.000,927.000,922.000,915.000,918.000,916.000
714.355,1051.000,966.000,982.000,951.000,947.000,921.000,944.000,920.000,904.000,929.000
717.958,1046.000,952.000,933.000,932.000,943.000,922.000,914.000,922.000,902.000,920.000
721.560,1027.000,973.000,943.000,944.000,932.000,927.000,895.000,918.000,906.000,898.000
725.159,1058.000,978.000,945.000,929.000,920.000,920.000,907.000,908.000,907.000,907.000
728.758,1046.000,982.000,980.000,950.000,943.000,918.000,931.000,894.000,923.000,893.000
732.356,1041.000,975.000,953.000,947.000,944.000,944.000,938.000,914.000,922.000,936.000
735.953,1050.000,1005.000,975.000,962.000,957.000,974.000,944.000,947.000,937.000,947.000
739.546,1060.000,1001.000,986.000,955.000,954.000,928.000,957.000,950.000,934.000,928.000
743.139,1061.000,993.000,971.000,975.000,958.000,945.000,950.000,940.000,937.000,928.000
746.731,1060.000,997.000,983.000,951.000,966.000,951.000,953.000,939.000,941.000,925.000
750.322,1079.000,1004.000,973.000,957.000,948.000,947.000,925.000,941.000,932.000,934.000
753.909,1048.000,978.000,959.000,947.000,958.000,929.000,960.000,926.000,916.000,915.000
757.497,1060.000,994.000,975.000,934.000,958.000,935.000,946.000,923.000,931.000,938.000
761.084,1072.000,993.000,981.000,984.000,967.000,975.000,946.000,924.000,936.000,940.000
764.669,1079.000,989.000,985.000,950.000,958.000,975.000,960.000,933.000,952.000,948.000
768.250,1115.000,1055.000,999.000,1004.000,978.000,989.000,984.000,982.000,954.000,963.000
771.832,1168.000,1074.000,1037.000,1043.000,1037.000,1033.000,1026.000,1013.000,1018.000,1003.000
775.413,1098.000,1041.000,1007.000,1004.000,979.000,1003.000,986.000,958.000,955.000,958.000
778.992,1078.000,1004.000,970.000,983.000,946.000,956.000,965.000,946.000,937.000,937.000
782.568,1085.000,987.000,986.000,966.000,963.000,968.000,951.000,935.000,969.000,941.000
786.145,1066.000,974.000,991.000,979.000,964.000,931.000,941.000,935.000,933.000,946.000
789.720,1044.000,994.000,983.000,979.000,960.000,934.000,952.000,942.000,951.000,934.000
793.293,1068.000,1006.000,994.000,960.000,938.000,964.000,947.000,941.000,933.000,943.000
796.864,1089.000,1004.000,997.000,966.000,979.000,938.000,947.000,952.000,940.000,952.000
800.434,1092.000,1005.000,983.000,983.000,951.000,977.000,952.000,961.000,934.000,960.000
804.004,1095.000,1037.000,1016.000,986.000,979.000,950.000,956.000,952.000,964.000,949.000
807.572,1119.000,1023.000,997.000,998.000,997.000,990.000,965.000,982.000,986.000,965.000
811.136,1079.000,1041.000,1008.000,993.000,975.000,1003.000,988.000,976.000,975.000,957.000
814.701,1111.000,1046.000,1019.000,1022.000,1006.000,997.000,992.000,979.000,985.000,983.000
818.265,1133.000,1052.000,1030.000,1026.000,1022.000,994.000,1016.000,1017.000,1026.000,986.000
821.827,1136.000,1078.000,1049.000,1026.000,1044.000,1029.000,1023.000,1012.000,1037.000,1014.000
825.386,1165.000,1107.000,1067.000,1057.000,1056.000,1031.000,1061.000,1056.000,1044.000,1034.000
828.946,1202.000,1149.000,1095.000,1094.000,1081.000,1077.000,1077.000,1072.000,1070.000,1059.000
832.504,1224.000,1155.000,1118.000,1087.000,1084.000,1096.000,1085.000,1073.000,1086.000,1060.000
836.060,1234.000,1178.000,1137.000,1114.000,1116.000,1093.000,1104.000,1064.000,1080.000,1078.000
839.614,1267.000,1174.000,1172.000,1160.000,1148.000,1117.000,1106.000,1141.000,1124.000,1130.000
843.167,1242.000,1182.000,1155.000,1170.000,1133.000,1146.000,1116.000,1121.000,1136.000,1124.000
846.720,1282.000,1173.000,1171.000,1119.000,1146.000,1126.000,1115.000,1110.000,1113.000,1111.000
850.271,1255.000,1163.000,1177.000,1132.000,1139.000,1123.000,1139.000,1128.000,1101.000,1133.000
853.819,1257.000,1182.000,1134.000,1125.000,1142.000,1152.000,1093.000,1090.000,1115.000,1099.000
857.367,1266.000,1166.000,1114.000,1155.000,1119.000,1091.000,1118.000,1107.000,1108.000,1077.000
860.914,1210.000,1171.000,1143.000,1141.000,1129.000,1131.000,1086.000,1105.000,1089.000,1096.000
864.459,1281.000,1169.000,1177.000,1151.000,1142.000,1145.000,1116.000,1122.000,1144.000,1114.000
868.001,1262.000,1219.000,1178.000,1180.000,1160.000,1156.000,1149.000,1134.000,1126.000,1123.000
871.544,1306.000,1224.000,1202.000,1187.000,1185.000,1170.000,1175.000,1193.000,1163.000,1155.000
875.085,1340.000,1258.000,1222.000,1215.000,1194.000,1220.000,1189.000,1204.000,1151.000,1203.000
878.625,1347.000,1277.000,1249.000,1221.000,1245.000,1235.000,1204.000,1216.000,1221.000,1177.000
882.161,1355.000,1306.000,1279.000,1250.000,1243.000,1201.000,1234.000,1235.000,1227.000,1213.000
885.698,1376.000,1330.000,1297.000,1312.000,1258.000,1247.000,1225.000,1253.000,1230.000,1247.000
889.234,1429.000,1317.000,1283.000,1292.000,1271.000,1260.000,1235.000,1269.000,1271.000,1257.000
892.768,1386.000,1292.000,1304.000,1312.000,1256.000,1268.000,1235.000,1255.000,1283.000,1268.000
896.299,1407.000,1351.000,1329.000,1302.000,1320.000,1275.000,1273.000,1287.000,1268.000,1239.000
899.830,1409.000,1331.000,1338.000,1303.000,1304.000,1291.000,1299.000,1267.000,1281.000,1282.000
903.360,1428.000,1317.000,1325.000,1390.000,1315.000,1310.000,1271.000,1277.000,1292.000,1278.000
906.889,1454.000,1400.000,1376.000,1354.000,1349.000,1342.000,1359.000,1323.000,1316.000,1298.000
910.414,1512.000,1363.000,1424.000,1368.000,1364.000,1349.000,1379.000,1369.000,1351.000,1373.000
913.940,1551.000,1448.000,1422.000,1433.000,1416.000,1411.000,1401.000,1412.000,1379.000,1397.000
917.465,1597.000,1509.000,1501.000,1476.000,1476.000,1480.000,1450.000,1462.000,1466.000,1485.000
920.988,1662.000,1541.000,1584.000,1513.000,1540.000,1540.000,1495.000,1524.000,1503.000,1514.000
924.508,1702.000,1635.000,1613.000,1636.000,1617.000,1555.000,1606.000,1547.000,1589.000,1593.000
928.028,1878.000,1795.000,1770.000,1742.000,1774.000,1746.000,1746.000,1747.000,1731.000,1707.000
931.547,2078.000,2032.000,1995.000,1986.000,1967.000,1926.000,1987.000,1969.000,1956.000,1957.000
935.064,2017.000,1969.000,1899.000,1879.000,1844.000,1877.000,1852.000,1857.000,1817.000,1864.000
938.579,1793.000,1745.000,1752.000,1728.000,1703.000,1654.000,1673.000,1642.000,1652.000,1695.000
942.093,1770.000,1692.000,1678.000,1681.000,1663.000,1637.000,1691.000,1677.000,1650.000,1648.000
943.850,1815.000,1713.000,1696.000,1674.000,1686.000,1660.000,1647.000,1632.000,1640.000,1677.000