File: Raman/2022_11_26/Data/2022_11_26_Hagfish_Film_Unstreched_532nm_Pol_1mW_750mm_600gv_1200wn_iDus_100s_10accum_Pos1.csv
282.050,5272.000,2910.000,2345.000,2048.000,1861.000,1737.000,1618.000,1524.000,1452.000,1362.000
287.700,5263.000,2989.000,2353.000,2054.000,1898.000,1705.000,1597.000,1552.000,1473.000,1427.000
293.346,5446.000,3072.000,2433.000,2099.000,1934.000,1788.000,1634.000,1620.000,1525.000,1436.000
298.991,5473.000,2939.000,2378.000,2039.000,1865.000,1742.000,1571.000,1544.000,1485.000,1422.000
304.630,5556.000,3093.000,2434.000,2119.000,1902.000,1734.000,1666.000,1527.000,1515.000,1460.000
310.266,5422.000,2997.000,2353.000,2073.000,1877.000,1751.000,1632.000,1537.000,1477.000,1445.000
315.898,5598.000,3150.000,2493.000,2120.000,1898.000,1782.000,1641.000,1573.000,1546.000,1458.000
321.527,5439.000,3063.000,2427.000,2055.000,1901.000,1737.000,1647.000,1547.000,1506.000,1435.000
327.155,5728.000,3200.000,2448.000,2107.000,1941.000,1741.000,1670.000,1598.000,1527.000,1465.000
332.777,5563.000,3082.000,2457.000,2156.000,1923.000,1788.000,1699.000,1593.000,1547.000,1405.000
338.396,5837.000,3217.000,2487.000,2150.000,1945.000,1856.000,1714.000,1601.000,1516.000,1466.000
344.011,5665.000,3111.000,2449.000,2137.000,1925.000,1788.000,1673.000,1619.000,1538.000,1450.000
349.623,5904.000,3176.000,2531.000,2186.000,1988.000,1818.000,1684.000,1626.000,1551.000,1471.000
355.233,5823.000,3125.000,2484.000,2190.000,1964.000,1772.000,1697.000,1602.000,1555.000,1474.000
360.838,6054.000,3248.000,2610.000,2231.000,1994.000,1831.000,1737.000,1622.000,1540.000,1485.000
366.440,5825.000,3168.000,2562.000,2195.000,1947.000,1797.000,1670.000,1599.000,1557.000,1495.000
372.038,6047.000,3246.000,2597.000,2231.000,2006.000,1816.000,1748.000,1631.000,1599.000,1511.000
377.633,5928.000,3177.000,2530.000,2208.000,1984.000,1840.000,1717.000,1638.000,1956.000,1513.000
383.226,6127.000,3289.000,2618.000,2225.000,1989.000,1909.000,1753.000,1659.000,1591.000,1520.000
388.815,6075.000,3235.000,2572.000,2258.000,2009.000,1837.000,1754.000,1621.000,1588.000,1493.000
394.399,6273.000,3389.000,2624.000,2291.000,2056.000,1936.000,1798.000,1683.000,1610.000,1548.000
399.980,6144.000,3317.000,2592.000,2261.000,2031.000,1871.000,1779.000,1643.000,1584.000,1542.000
405.560,6379.000,3456.000,2762.000,2324.000,2119.000,1914.000,1832.000,1718.000,1705.000,1525.000
411.135,6273.000,3379.000,2651.000,2317.000,2037.000,1916.000,1775.000,1688.000,1639.000,1559.000
416.706,6454.000,3483.000,2697.000,2362.000,2124.000,1944.000,1799.000,1709.000,1644.000,1556.000
422.274,6424.000,3441.000,2721.000,2316.000,2117.000,1946.000,1816.000,1683.000,1595.000,1573.000
427.838,6611.000,3579.000,2756.000,2411.000,2167.000,1969.000,1819.000,1729.000,1671.000,1571.000
433.401,6592.000,3538.000,2740.000,2359.000,2104.000,1907.000,1812.000,1668.000,1663.000,1599.000
438.959,6700.000,3642.000,2865.000,2407.000,2163.000,1993.000,1870.000,1761.000,1663.000,1598.000
444.513,6583.000,3510.000,2723.000,2407.000,2116.000,1959.000,1824.000,1731.000,1657.000,1571.000
450.064,6770.000,3667.000,2825.000,2459.000,2166.000,2022.000,1864.000,1773.000,1718.000,1657.000
455.611,6705.000,3584.000,2801.000,2407.000,2122.000,1951.000,1844.000,1736.000,1699.000,1575.000
461.158,6824.000,3666.000,2890.000,2441.000,2198.000,2009.000,1860.000,1787.000,1735.000,1608.000
466.698,6853.000,3621.000,2819.000,2414.000,2179.000,3175.000,1863.000,1775.000,1673.000,1655.000
472.236,6993.000,3688.000,2911.000,2491.000,2198.000,2027.000,1894.000,1788.000,1699.000,1601.000
477.770,6922.000,3742.000,2864.000,2472.000,2185.000,1967.000,1921.000,1765.000,1719.000,1601.000
483.301,7034.000,3726.000,2941.000,2489.000,2230.000,2083.000,1901.000,1797.000,1745.000,1621.000
488.830,6985.000,3695.000,2944.000,2459.000,2177.000,2075.000,1895.000,1800.000,1721.000,1627.000
494.354,7034.000,3770.000,2958.000,2476.000,2256.000,2051.000,1950.000,1771.000,1750.000,1635.000
499.875,7121.000,3713.000,2906.000,2505.000,2258.000,2093.000,1922.000,1816.000,1707.000,1651.000
505.393,7175.000,3746.000,2921.000,2523.000,2235.000,2071.000,1903.000,1814.000,1737.000,1666.000
510.907,7178.000,3794.000,2998.000,2541.000,2234.000,2064.000,1912.000,1790.000,1752.000,1672.000
516.420,7175.000,3820.000,2957.000,2575.000,2229.000,2076.000,1932.000,1805.000,1760.000,1649.000
521.927,7300.000,3839.000,2975.000,2588.000,2275.000,2110.000,1929.000,1861.000,1766.000,1686.000
527.431,7145.000,3863.000,3015.000,2535.000,2262.000,2068.000,1948.000,1835.000,1794.000,1675.000
532.932,7405.000,3947.000,3052.000,2626.000,2317.000,2121.000,1987.000,1854.000,1765.000,1683.000
538.430,7411.000,3953.000,3051.000,2545.000,2295.000,2114.000,2002.000,1875.000,1795.000,1703.000
543.926,7485.000,3914.000,3055.000,2626.000,2328.000,2157.000,1956.000,1872.000,1786.000,1682.000
549.417,8324.000,3866.000,3043.000,2581.000,2338.000,2122.000,2004.000,1885.000,1812.000,1685.000
554.904,7628.000,4011.000,3125.000,2635.000,2313.000,2149.000,1993.000,1890.000,1794.000,1711.000
560.389,7522.000,4009.000,3065.000,2628.000,2311.000,2167.000,1951.000,1876.000,1769.000,1709.000
565.870,7708.000,4070.000,3146.000,2664.000,2399.000,2144.000,2039.000,1901.000,1838.000,1703.000
571.350,7528.000,4067.000,3071.000,2663.000,2315.000,2226.000,2039.000,1906.000,1824.000,1699.000
576.824,7627.000,4010.000,3137.000,2698.000,2389.000,2228.000,2054.000,1910.000,1852.000,1746.000
582.295,7829.000,4144.000,3157.000,2662.000,2386.000,2195.000,2025.000,1867.000,1836.000,1711.000
587.763,7892.000,4174.000,3238.000,2750.000,2416.000,2242.000,2031.000,1927.000,1840.000,1756.000
593.228,7775.000,4086.000,3187.000,2702.000,2391.000,2250.000,2015.000,1930.000,1811.000,1721.000
598.691,8037.000,4208.000,3248.000,2728.000,2471.000,2249.000,2070.000,1959.000,1852.000,1792.000
604.149,7883.000,4186.000,3193.000,2714.000,2434.000,2186.000,2042.000,1912.000,1850.000,1708.000
609.604,8067.000,4291.000,3244.000,2791.000,2479.000,2267.000,2079.000,1909.000,1896.000,1779.000
615.055,8034.000,4194.000,3182.000,2734.000,2486.000,2218.000,2022.000,1980.000,1852.000,1778.000
620.505,8294.000,4272.000,3316.000,3613.000,2513.000,2265.000,2129.000,2004.000,1880.000,1792.000
625.950,8073.000,4157.000,3231.000,2769.000,2500.000,2250.000,2092.000,1993.000,1915.000,1785.000
631.392,8281.000,4322.000,3364.000,2791.000,2537.000,2339.000,2117.000,2034.000,1912.000,1804.000
636.831,8240.000,4267.000,3331.000,2770.000,2490.000,2255.000,2124.000,1974.000,1885.000,1816.000
642.266,8361.000,4396.000,3414.000,2887.000,2563.000,2281.000,2170.000,2065.000,1926.000,1857.000
647.700,8305.000,4282.000,3363.000,2843.000,2502.000,2309.000,2143.000,2012.000,1911.000,1821.000
653.128,8457.000,4384.000,3427.000,2844.000,2507.000,2320.000,2226.000,2057.000,1964.000,1830.000
658.554,8482.000,4435.000,3368.000,2862.000,2550.000,2335.000,2158.000,2051.000,1900.000,1857.000
663.976,8687.000,4404.000,3451.000,2927.000,2514.000,2312.000,2200.000,2068.000,1980.000,1846.000
669.395,8538.000,4395.000,3489.000,2931.000,2564.000,2352.000,2206.000,2019.000,1970.000,1884.000
674.813,8647.000,4450.000,3469.000,3018.000,2606.000,2373.000,2157.000,2040.000,1960.000,1819.000
680.225,8759.000,4525.000,3443.000,3004.000,2627.000,2382.000,2165.000,2041.000,1945.000,1869.000
685.634,8644.000,4575.000,3425.000,2893.000,2598.000,2384.000,2175.000,2049.000,1964.000,1892.000
691.040,8833.000,4555.000,3473.000,2935.000,2615.000,2371.000,2188.000,2080.000,1973.000,1930.000
696.443,8853.000,4515.000,3487.000,2952.000,2669.000,2398.000,2212.000,2073.000,1954.000,1841.000
701.845,9073.000,4595.000,3550.000,3029.000,2706.000,2487.000,2238.000,2101.000,1996.000,1871.000
707.241,8928.000,4641.000,3478.000,2974.000,2637.000,2441.000,2221.000,2084.000,2026.000,1899.000
712.634,9102.000,4686.000,3650.000,3074.000,2664.000,2425.000,2301.000,2165.000,2035.000,1911.000
718.024,9086.000,4629.000,3611.000,3045.000,2640.000,2428.000,2281.000,2153.000,2027.000,1900.000
723.411,9201.000,4845.000,3652.000,3076.000,3359.000,2494.000,2296.000,2138.000,2066.000,1931.000
728.796,9130.000,4689.000,3580.000,3072.000,2755.000,2467.000,2248.000,2135.000,2063.000,1914.000
734.177,9306.000,4817.000,3653.000,3097.000,2755.000,2518.000,2332.000,2164.000,2083.000,1947.000
739.554,9290.000,4738.000,3587.000,3059.000,2712.000,2485.000,2289.000,2099.000,2063.000,1934.000
744.928,9420.000,4859.000,3681.000,3111.000,2755.000,2546.000,2335.000,2196.000,2100.000,1948.000
750.298,9324.000,4673.000,3670.000,3073.000,2705.000,2494.000,2326.000,2155.000,2058.000,1939.000
755.668,9516.000,4919.000,3783.000,3157.000,2800.000,2525.000,2338.000,2198.000,2158.000,1984.000
761.032,9494.000,4869.000,3747.000,3155.000,2805.000,2566.000,2345.000,2162.000,2093.000,1959.000
766.393,9707.000,4959.000,3723.000,3154.000,2800.000,2539.000,2397.000,2252.000,2146.000,1973.000
771.751,9730.000,4897.000,3723.000,3163.000,2793.000,2504.000,2343.000,2205.000,2102.000,1973.000
777.106,9707.000,4918.000,3796.000,3218.000,2873.000,2548.000,2376.000,2200.000,2130.000,2035.000
782.459,9782.000,4966.000,3845.000,3274.000,2805.000,2542.000,2396.000,2236.000,2125.000,2022.000
787.808,9861.000,4895.000,3844.000,3241.000,2854.000,2580.000,2377.000,2254.000,2155.000,1981.000
793.153,9829.000,5005.000,3858.000,3263.000,2822.000,2581.000,2381.000,2243.000,2134.000,2033.000
798.495,9755.000,4986.000,3816.000,3211.000,2853.000,2522.000,2369.000,2235.000,2090.000,1966.000
803.836,9902.000,5049.000,3943.000,3231.000,2868.000,2639.000,2459.000,2263.000,2157.000,1994.000
809.171,9699.000,4967.000,3813.000,3213.000,2863.000,2582.000,2334.000,2209.000,2092.000,1941.000
814.504,9954.000,5139.000,3903.000,3250.000,2912.000,2638.000,2401.000,2270.000,2127.000,2035.000
819.833,9920.000,4991.000,3847.000,3194.000,2860.000,2627.000,2332.000,2282.000,2147.000,2030.000
825.159,10045.000,5166.000,3930.000,3285.000,2941.000,2718.000,2449.000,2316.000,2187.000,2051.000
830.484,9912.000,5056.000,3808.000,3239.000,2907.000,2584.000,2404.000,2287.000,2137.000,2024.000
835.804,10210.000,5100.000,3910.000,3338.000,2958.000,2659.000,2437.000,2319.000,2175.000,2141.000
841.121,10035.000,5018.000,3871.000,3234.000,2856.000,2612.000,2446.000,2314.000,2158.000,2053.000
846.435,10191.000,5204.000,3951.000,3369.000,3263.000,2672.000,2501.000,2275.000,2255.000,2113.000
851.745,10144.000,5226.000,3976.000,3330.000,2886.000,2646.000,2508.000,2265.000,2214.000,2128.000
857.054,10231.000,5131.000,4038.000,3300.000,2960.000,2733.000,2497.000,2304.000,2207.000,2097.000
862.359,10318.000,5226.000,3969.000,3370.000,2985.000,2732.000,2425.000,2304.000,2215.000,2078.000
867.660,10166.000,5127.000,3920.000,3373.000,2931.000,2679.000,2448.000,2327.000,2235.000,2059.000
872.958,10421.000,5262.000,4073.000,3381.000,2947.000,2679.000,2515.000,2290.000,2221.000,2098.000
878.252,10483.000,5209.000,4077.000,3413.000,2940.000,2708.000,2500.000,2347.000,2188.000,2085.000
883.546,10676.000,5305.000,4031.000,3423.000,2997.000,2760.000,2532.000,2402.000,2231.000,2138.000
888.835,10416.000,5229.000,4046.000,3396.000,2975.000,2739.000,2518.000,2334.000,2242.000,2093.000
894.120,10616.000,5381.000,4095.000,3463.000,2993.000,2747.000,2532.000,2398.000,2263.000,2148.000
899.402,10425.000,5296.000,4073.000,3423.000,3043.000,2697.000,2516.000,2378.000,2178.000,2118.000
904.681,10730.000,5407.000,4138.000,3426.000,3116.000,2718.000,2590.000,2367.000,2265.000,2133.000
909.959,10525.000,5313.000,4025.000,3419.000,3011.000,2744.000,2561.000,2385.000,2273.000,2111.000
915.232,10714.000,5342.000,4117.000,3446.000,3085.000,2820.000,2599.000,2358.000,2281.000,2150.000
920.502,10529.000,5385.000,4069.000,3460.000,3009.000,2667.000,2553.000,2355.000,2233.000,2094.000
925.769,10724.000,5472.000,4159.000,3457.000,3076.000,2793.000,2555.000,2375.000,2285.000,2156.000
931.033,10745.000,5378.000,4123.000,3471.000,3074.000,2773.000,2587.000,2402.000,2269.000,2202.000
936.295,10777.000,5345.000,4080.000,3520.000,3050.000,2771.000,2547.000,2428.000,2271.000,2092.000
941.552,10846.000,5477.000,4184.000,3449.000,3057.000,2804.000,2583.000,2421.000,2259.000,2144.000
946.807,10696.000,5384.000,4155.000,3413.000,3041.000,2695.000,2505.000,2341.000,2274.000,2123.000
952.058,10929.000,5487.000,4207.000,3486.000,3017.000,2772.000,2546.000,2392.000,2331.000,2186.000
957.306,10796.000,5449.000,4115.000,3424.000,3101.000,2718.000,2531.000,2364.000,2312.000,2099.000
962.553,10806.000,5515.000,4101.000,3483.000,3068.000,2810.000,2584.000,2469.000,2317.000,2189.000
967.795,10665.000,5432.000,4124.000,3467.000,3101.000,2768.000,2523.000,2369.000,2270.000,2131.000
973.034,10951.000,5579.000,4202.000,3539.000,3159.000,2857.000,2599.000,2415.000,2319.000,2209.000
978.270,10789.000,5413.000,4146.000,3487.000,3069.000,2751.000,2535.000,2407.000,2250.000,2173.000
983.503,11027.000,5562.000,4187.000,3576.000,3189.000,2809.000,2586.000,2459.000,2331.000,2228.000
988.734,11093.000,5531.000,4265.000,3558.000,3079.000,2793.000,2629.000,2409.000,2307.000,2201.000
993.961,11233.000,5595.000,4290.000,3635.000,3169.000,2843.000,2701.000,2444.000,2318.000,2211.000
999.184,11355.000,5708.000,4365.000,3768.000,3277.000,2918.000,2763.000,2582.000,2503.000,2307.000
1004.405,11231.000,5710.000,4305.000,3679.000,3239.000,2937.000,2680.000,2537.000,2414.000,2253.000
1009.622,11120.000,5668.000,4342.000,3607.000,3194.000,2889.000,2702.000,2484.000,2334.000,2238.000
1014.839,11087.000,5626.000,4255.000,3622.000,3148.000,2836.000,2657.000,2474.000,2358.000,2203.000
1020.050,11486.000,5689.000,4326.000,3553.000,3210.000,2920.000,2688.000,2536.000,2409.000,2259.000
1025.258,11239.000,5628.000,4275.000,3613.000,3156.000,2891.000,2713.000,2473.000,2402.000,2219.000
1030.463,11555.000,5808.000,4406.000,3630.000,3212.000,2981.000,2712.000,2565.000,2382.000,2235.000
1035.667,11395.000,5687.000,4269.000,3624.000,3184.000,2858.000,2675.000,2480.000,2360.000,2212.000
1040.867,11710.000,5822.000,4380.000,3717.000,3313.000,2969.000,2775.000,2586.000,2415.000,2261.000
1046.063,11487.000,5727.000,4355.000,3707.000,3240.000,2924.000,2691.000,2485.000,2364.000,2274.000
1051.256,11622.000,5862.000,4400.000,3747.000,3323.000,2944.000,2700.000,2530.000,2457.000,2316.000
1056.446,11764.000,5859.000,4457.000,3669.000,3354.000,2939.000,2784.000,2616.000,2410.000,2277.000
1061.634,11891.000,5921.000,4440.000,3723.000,3303.000,2952.000,2731.000,2555.000,2461.000,2287.000
1066.818,11828.000,5891.000,4431.000,3741.000,3312.000,3000.000,2738.000,2593.000,2462.000,2306.000
1071.999,11716.000,5937.000,4421.000,3747.000,3302.000,2971.000,2758.000,2576.000,2417.000,2322.000
1077.177,11885.000,5910.000,4449.000,3827.000,3341.000,2976.000,2783.000,2591.000,2465.000,2322.000
1082.352,11583.000,5893.000,4460.000,3701.000,3299.000,2896.000,2705.000,2545.000,2458.000,2303.000
1087.526,11734.000,5877.000,4480.000,3720.000,3321.000,2952.000,2782.000,2555.000,2394.000,2277.000
1092.694,11581.000,5910.000,4434.000,3718.000,3281.000,2982.000,2689.000,2602.000,2416.000,2279.000
1097.860,11891.000,5918.000,4487.000,3808.000,3275.000,2986.000,2788.000,2579.000,2406.000,2289.000
1103.023,11907.000,5903.000,4445.000,3697.000,3291.000,2988.000,2771.000,2615.000,2455.000,2224.000
1108.183,12035.000,5941.000,4559.000,3889.000,3277.000,2993.000,2788.000,2603.000,2485.000,2322.000
1113.341,12157.000,6001.000,4559.000,3871.000,3335.000,3075.000,2792.000,2602.000,2492.000,2336.000
1118.495,12140.000,6106.000,4564.000,3820.000,3393.000,3005.000,2808.000,2661.000,2430.000,2345.000
1123.646,12068.000,5982.000,4550.000,3879.000,3366.000,3028.000,2850.000,2627.000,2469.000,2315.000
1128.794,11937.000,6007.000,4452.000,3828.000,3323.000,3003.000,2785.000,2583.000,2497.000,2330.000
1133.938,12141.000,5981.000,4615.000,3713.000,3381.000,3016.000,2789.000,2634.000,2431.000,2338.000
1139.082,11858.000,5916.000,4447.000,3727.000,3196.000,2962.000,2686.000,2574.000,2411.000,2283.000
1144.221,12067.000,5950.000,4552.000,3757.000,3335.000,2987.000,2808.000,2594.000,2437.000,2304.000
1149.356,11938.000,5951.000,4501.000,3697.000,3287.000,2963.000,2733.000,2609.000,2445.000,2273.000
1154.489,12261.000,5984.000,4559.000,3859.000,3366.000,2984.000,2779.000,2588.000,2527.000,2327.000
1159.619,12096.000,6021.000,4554.000,3764.000,3375.000,3035.000,2837.000,2595.000,2419.000,2363.000
1164.748,12287.000,6156.000,4561.000,3847.000,3348.000,3005.000,2828.000,2657.000,2491.000,2347.000
1169.872,12403.000,6286.000,4650.000,3863.000,3393.000,3070.000,2838.000,2642.000,2504.000,2410.000
1174.992,12577.000,6162.000,4673.000,3939.000,3375.000,3060.000,2853.000,2598.000,2495.000,2365.000
1180.110,12445.000,6071.000,4689.000,3842.000,3416.000,3065.000,2818.000,2748.000,2585.000,2367.000
1185.225,12287.000,6159.000,4629.000,3913.000,3391.000,3069.000,2847.000,2613.000,2502.000,2367.000
1190.339,12706.000,6217.000,4726.000,3885.000,3392.000,3081.000,2813.000,2660.000,2478.000,2379.000
1195.448,12169.000,6052.000,4555.000,3863.000,3393.000,3056.000,2800.000,2604.000,2425.000,2287.000
1200.554,12367.000,6137.000,4626.000,3942.000,3394.000,3104.000,2846.000,2613.000,2579.000,2384.000
1205.657,12480.000,6163.000,4601.000,3916.000,3391.000,3090.000,2888.000,2655.000,2533.000,2362.000
1210.759,12604.000,6268.000,4832.000,3955.000,3516.000,3138.000,2883.000,2722.000,2603.000,2360.000
1215.856,12831.000,6388.000,4795.000,3987.000,3459.000,3166.000,2929.000,2759.000,2594.000,2431.000
1220.950,12772.000,6403.000,4876.000,4046.000,3552.000,3269.000,2941.000,2755.000,2604.000,2442.000
1226.041,13050.000,6575.000,4942.000,4123.000,3581.000,3231.000,2995.000,2800.000,2726.000,2476.000
1231.130,12982.000,6433.000,4863.000,4144.000,3561.000,3222.000,2930.000,2786.000,2682.000,2502.000
1236.217,12818.000,6397.000,4822.000,4018.000,3562.000,3266.000,2913.000,2807.000,2626.000,2459.000
1241.299,12591.000,6276.000,4730.000,3920.000,3529.000,3162.000,2867.000,2717.000,2571.000,2431.000
1246.379,12745.000,6303.000,4719.000,4063.000,3553.000,3164.000,2959.000,2751.000,2600.000,2492.000
1251.455,12564.000,6253.000,4616.000,3993.000,3448.000,3101.000,2907.000,2642.000,2612.000,2419.000
1256.529,12905.000,6283.000,4749.000,3999.000,3478.000,3158.000,2918.000,2762.000,2569.000,2437.000
1261.601,12866.000,6366.000,4743.000,3968.000,3581.000,3126.000,2924.000,2699.000,2631.000,2448.000
1266.669,13084.000,6395.000,4835.000,4024.000,3581.000,3182.000,2938.000,2796.000,2595.000,2466.000
1271.734,13145.000,6537.000,4885.000,4072.000,3564.000,3272.000,2981.000,2748.000,2632.000,2484.000
1276.795,12943.000,6407.000,4797.000,4017.000,3451.000,3171.000,3024.000,2696.000,2594.000,2439.000
1281.854,12939.000,6427.000,4834.000,4000.000,3558.000,3150.000,2935.000,2744.000,2587.000,2446.000
1286.912,12658.000,6207.000,4719.000,3985.000,3468.000,3119.000,2889.000,2695.000,2572.000,2374.000
1291.965,12737.000,6254.000,4697.000,3978.000,3474.000,3113.000,2844.000,2656.000,2516.000,2420.000
1297.015,12676.000,6186.000,4691.000,3879.000,3449.000,3075.000,2842.000,2679.000,2557.000,2439.000
1302.063,12671.000,6349.000,4782.000,3964.000,3545.000,3065.000,2876.000,2650.000,2577.000,2402.000
1307.107,12729.000,6269.000,4748.000,3982.000,3484.000,3124.000,2901.000,2679.000,2553.000,2407.000
1312.150,13016.000,6456.000,4809.000,4062.000,3544.000,3142.000,2924.000,2731.000,2588.000,2426.000
1317.189,13002.000,6347.000,4898.000,4085.000,3534.000,3147.000,2907.000,2743.000,2566.000,2381.000
1322.224,12901.000,6327.000,4811.000,3945.000,3492.000,3176.000,2967.000,2759.000,2607.000,2428.000
1327.257,13232.000,6542.000,4919.000,4089.000,3604.000,3261.000,2953.000,2792.000,2609.000,2462.000
1332.287,12779.000,6357.000,4714.000,3968.000,3447.000,3181.000,2860.000,2725.000,2609.000,2420.000
1337.316,13014.000,6445.000,4827.000,4054.000,3526.000,3135.000,2911.000,2683.000,2598.000,2398.000
1342.340,12741.000,6287.000,4800.000,3956.000,3468.000,3198.000,2887.000,2668.000,2576.000,2406.000
1347.361,12953.000,6367.000,4715.000,4019.000,3486.000,3178.000,2928.000,2683.000,2521.000,2420.000
1352.379,13128.000,6455.000,4864.000,4041.000,3576.000,3165.000,3003.000,2725.000,2665.000,2428.000
1357.395,13133.000,6501.000,4872.000,4125.000,3607.000,3213.000,2935.000,2708.000,2593.000,2459.000
1362.409,13232.000,6506.000,4826.000,4045.000,3626.000,3197.000,2934.000,2767.000,2639.000,2504.000
1367.418,13228.000,6468.000,4842.000,4061.000,3538.000,3180.000,2925.000,2704.000,2592.000,2437.000
1372.425,13313.000,6453.000,4801.000,4094.000,3562.000,3205.000,2939.000,2813.000,2582.000,2457.000
1377.429,13028.000,6468.000,4763.000,4014.000,3492.000,3166.000,2934.000,2719.000,2530.000,2454.000
1382.430,13091.000,6412.000,4779.000,3971.000,3507.000,3235.000,2903.000,2722.000,2555.000,2414.000
1387.430,13056.000,6392.000,4750.000,4004.000,3502.000,3126.000,2912.000,2690.000,2579.000,2351.000
1392.425,13321.000,6436.000,4919.000,4075.000,3606.000,3227.000,3013.000,2777.000,2635.000,2419.000
1397.418,13251.000,6702.000,4964.000,4083.000,3576.000,3259.000,2963.000,2773.000,2671.000,2455.000
1402.407,13517.000,6605.000,4959.000,4159.000,3615.000,3206.000,2981.000,2774.000,2642.000,2481.000
1407.394,13426.000,6667.000,4937.000,4129.000,3642.000,3263.000,2965.000,2874.000,2606.000,2455.000
1412.379,13271.000,6538.000,4874.000,4088.000,3535.000,3203.000,2914.000,2697.000,2602.000,2411.000
1417.360,13402.000,6607.000,4968.000,4091.000,3496.000,3203.000,2959.000,2812.000,2656.000,2454.000
1422.338,13127.000,6504.000,4870.000,4067.000,3550.000,3167.000,2938.000,2739.000,2584.000,2404.000
1427.314,13336.000,6502.000,4886.000,4055.000,3563.000,3200.000,2971.000,2759.000,2590.000,2440.000
1432.286,13391.000,6571.000,4964.000,4067.000,3644.000,3227.000,2994.000,2823.000,2631.000,2488.000
1437.257,13380.000,6638.000,4951.000,4141.000,3664.000,3277.000,3039.000,2847.000,2611.000,2495.000
1442.224,13676.000,6680.000,5123.000,4237.000,3691.000,3322.000,3091.000,2898.000,2686.000,2495.000
1447.188,13661.000,6633.000,4977.000,4212.000,3629.000,3299.000,3023.000,2785.000,2666.000,2536.000
1452.149,13650.000,6786.000,4999.000,4205.000,3662.000,3335.000,3046.000,2843.000,2688.000,2482.000
1457.109,13519.000,6591.000,4946.000,4154.000,3609.000,3312.000,3006.000,2791.000,2644.000,2463.000
1462.064,13556.000,6699.000,5007.000,4167.000,3653.000,3253.000,2962.000,2815.000,2631.000,2474.000
1467.017,13536.000,6540.000,4937.000,4102.000,3631.000,3291.000,2993.000,2759.000,2607.000,2415.000
1471.966,13633.000,6729.000,4989.000,4127.000,3640.000,3288.000,3039.000,2868.000,2641.000,2490.000
1476.913,13856.000,6780.000,5019.000,4222.000,3640.000,3296.000,2987.000,2818.000,2695.000,2509.000
1481.859,13819.000,6724.000,5035.000,4202.000,3654.000,3326.000,3001.000,2710.000,2659.000,2458.000
1486.800,14062.000,6806.000,5128.000,4247.000,3708.000,3281.000,3015.000,2861.000,2652.000,2469.000
1491.739,13914.000,6727.000,5010.000,4168.000,3684.000,3323.000,2987.000,2784.000,2659.000,2456.000
1496.674,14021.000,6833.000,5162.000,4143.000,3673.000,3290.000,3050.000,2815.000,2652.000,2475.000
1501.607,13802.000,6727.000,5059.000,4110.000,3687.000,3285.000,3003.000,2742.000,2605.000,2462.000
1506.539,14000.000,6845.000,5038.000,4189.000,3657.000,3326.000,3067.000,2856.000,2594.000,2486.000
1511.466,14272.000,6826.000,5143.000,4234.000,3731.000,3305.000,3089.000,2840.000,2663.000,2542.000
1516.390,14271.000,6916.000,5073.000,4260.000,3774.000,3303.000,3051.000,2859.000,2660.000,2509.000
1521.312,14344.000,7058.000,5199.000,4306.000,3725.000,3349.000,3030.000,2891.000,2647.000,2488.000
1526.230,14142.000,6790.000,5176.000,4288.000,3700.000,3278.000,3104.000,2831.000,2729.000,2466.000
1531.148,14325.000,6967.000,5200.000,4259.000,3754.000,3334.000,3064.000,2895.000,2702.000,2596.000
1536.061,14271.000,6946.000,5099.000,4218.000,3674.000,3296.000,3045.000,2815.000,2701.000,2517.000
1540.972,14262.000,6982.000,5166.000,4261.000,3682.000,3400.000,3063.000,2918.000,2704.000,2499.000
1545.879,14298.000,7010.000,5189.000,4418.000,3743.000,3323.000,3099.000,2897.000,2713.000,2557.000
1550.784,14079.000,6900.000,5115.000,4278.000,3738.000,3294.000,3101.000,2812.000,2674.000,2513.000
1555.688,14345.000,7082.000,5211.000,4332.000,3715.000,3391.000,3065.000,2902.000,2733.000,2523.000
1560.587,14277.000,6954.000,5131.000,4262.000,3736.000,3331.000,3073.000,2872.000,2703.000,2530.000
1565.483,14568.000,7045.000,5255.000,4384.000,3767.000,3408.000,3141.000,2931.000,2715.000,2569.000
1570.377,14471.000,7028.000,5225.000,4321.000,3801.000,3378.000,3055.000,2909.000,2687.000,2552.000
1575.269,14362.000,7061.000,5237.000,4351.000,3818.000,3374.000,3087.000,2888.000,2765.000,2548.000
1580.157,14419.000,6971.000,5199.000,4347.000,3773.000,3352.000,3073.000,2851.000,2749.000,2538.000
1585.043,14216.000,6945.000,5152.000,4375.000,3800.000,3388.000,3100.000,2928.000,2715.000,2531.000
1589.925,14432.000,6943.000,5109.000,4281.000,3792.000,3360.000,3082.000,2921.000,2725.000,2571.000
1594.805,14331.000,6994.000,5207.000,4397.000,3784.000,3355.000,3123.000,2880.000,2745.000,2543.000
1599.684,14510.000,7063.000,5302.000,4351.000,3782.000,3440.000,3159.000,2951.000,2795.000,2584.000
1604.558,14560.000,6995.000,5313.000,4416.000,3803.000,3407.000,3096.000,2952.000,2807.000,2592.000
1609.429,14486.000,7048.000,5258.000,4442.000,3844.000,3481.000,3147.000,2917.000,2803.000,2659.000
1614.298,14503.000,6990.000,5239.000,4427.000,3858.000,3469.000,3094.000,2900.000,2737.000,2595.000
1619.164,14348.000,7016.000,5150.000,4340.000,3719.000,3379.000,3089.000,2915.000,2795.000,2558.000
1624.029,14555.000,7072.000,5311.000,4350.000,3761.000,3412.000,3137.000,2874.000,2769.000,2587.000
1628.889,14562.000,6912.000,5284.000,4359.000,3810.000,3478.000,3120.000,2932.000,2768.000,2579.000
1633.747,14850.000,7164.000,5364.000,4425.000,3843.000,3475.000,3156.000,2986.000,2809.000,2628.000
1638.602,14989.000,7300.000,5402.000,4499.000,3867.000,3498.000,3278.000,2931.000,2831.000,2661.000
1643.454,14956.000,7252.000,5453.000,4493.000,3934.000,3589.000,3258.000,3069.000,2823.000,2735.000
1648.305,14936.000,7194.000,5390.000,4509.000,3960.000,3532.000,3169.000,3051.000,2872.000,2682.000
1653.152,14684.000,7209.000,5703.000,4483.000,3941.000,3527.000,3253.000,3040.000,2869.000,2713.000
1657.996,14960.000,7378.000,5521.000,4586.000,4056.000,3563.000,3366.000,3110.000,2937.000,2748.000
1662.837,14773.000,7308.000,5557.000,4577.000,4018.000,3591.000,3356.000,3135.000,2924.000,2824.000
1667.675,15204.000,7384.000,5706.000,4677.000,4035.000,3696.000,3362.000,3104.000,3003.000,2794.000
1672.513,15043.000,7394.000,5500.000,4517.000,3971.000,3591.000,3319.000,3067.000,2923.000,2699.000
1677.346,14979.000,7246.000,5371.000,4504.000,3913.000,3499.000,3182.000,3045.000,2912.000,2708.000
1682.176,14923.000,7289.000,5343.000,4381.000,3870.000,3483.000,3152.000,2991.000,2839.000,2568.000
1687.004,14553.000,7034.000,5225.000,4390.000,3863.000,3368.000,3121.000,2898.000,2807.000,2569.000
1691.829,14808.000,7167.000,5325.000,4429.000,3839.000,3423.000,3157.000,2995.000,2767.000,2580.000
1696.652,14597.000,7035.000,5278.000,4370.000,3800.000,3393.000,3162.000,2957.000,2733.000,2575.000
1701.472,15085.000,7207.000,5377.000,4443.000,3844.000,3526.000,3162.000,2942.000,2765.000,2596.000
1706.288,15017.000,7264.000,5470.000,4400.000,3957.000,3455.000,3196.000,2914.000,2770.000,2564.000
1711.102,14886.000,7208.000,5303.000,4375.000,3840.000,3395.000,3143.000,2902.000,2868.000,2578.000
1715.914,14668.000,7100.000,5299.000,4415.000,3773.000,3388.000,3159.000,2866.000,2944.000,2549.000
1720.724,14529.000,6971.000,5211.000,4340.000,3776.000,3379.000,3114.000,2861.000,2645.000,2496.000
1725.530,14737.000,7074.000,5285.000,4363.000,3779.000,3413.000,3146.000,2874.000,2736.000,2531.000
1730.333,14850.000,7122.000,5314.000,4437.000,3808.000,3434.000,3203.000,2843.000,2765.000,2617.000
1735.133,15071.000,7243.000,5489.000,4468.000,3950.000,3460.000,3194.000,2951.000,2771.000,2643.000
1739.931,15002.000,7250.000,5346.000,4442.000,3906.000,3491.000,3190.000,2923.000,2793.000,2638.000
1744.728,14717.000,7102.000,5277.000,4372.000,3799.000,3420.000,3102.000,2916.000,2695.000,2526.000
1749.520,14912.000,7160.000,5251.000,4412.000,3773.000,3403.000,3150.000,2926.000,2775.000,2579.000
1754.310,14547.000,7010.000,5232.000,4357.000,3745.000,3372.000,4051.000,2869.000,2691.000,2512.000
1759.097,15014.000,7172.000,5320.000,4423.000,3840.000,3456.000,3124.000,2920.000,2763.000,2570.000
1763.881,15228.000,7329.000,5349.000,4431.000,3888.000,3487.000,3174.000,2933.000,2788.000,2630.000
1768.664,15158.000,7310.000,5462.000,4417.000,3917.000,3480.000,3192.000,2995.000,2799.000,2641.000
1773.443,14884.000,7109.000,5331.000,4436.000,3840.000,3444.000,3131.000,2916.000,2783.000,2575.000
1778.219,14583.000,7004.000,5252.000,4341.000,3748.000,3321.000,3086.000,2855.000,2746.000,2523.000
1782.993,14815.000,7151.000,5313.000,4383.000,3845.000,3379.000,3150.000,2904.000,2740.000,2592.000
1787.764,14823.000,7192.000,5340.000,4396.000,3795.000,3384.000,3174.000,2909.000,2782.000,2600.000
1792.534,15204.000,7350.000,5458.000,4547.000,3914.000,3543.000,3171.000,2977.000,2812.000,2693.000
1797.299,15399.000,7292.000,5439.000,4527.000,3905.000,3509.000,3185.000,3005.000,2839.000,2638.000
1802.062,14882.000,7221.000,5330.000,4392.000,3875.000,3454.000,3116.000,2932.000,2749.000,2555.000
1806.822,14798.000,7021.000,5294.000,4406.000,3811.000,3387.000,3068.000,2938.000,2764.000,2570.000
1811.582,14724.000,7073.000,5255.000,4446.000,3798.000,3383.000,3043.000,2828.000,2696.000,2566.000
1816.336,15188.000,7292.000,5413.000,4516.000,3867.000,3502.000,3132.000,2940.000,2874.000,2669.000
1821.089,15506.000,7461.000,5527.000,4528.000,3975.000,3490.000,3223.000,3040.000,2913.000,2648.000
1825.838,15535.000,7458.000,5414.000,4511.000,3976.000,3529.000,3238.000,3040.000,2832.000,2662.000
1830.585,15171.000,7275.000,5530.000,4518.000,3960.000,3519.000,3185.000,2976.000,2807.000,2649.000
1835.331,14559.000,7134.000,5263.000,4394.000,3760.000,3389.000,3123.000,2878.000,2784.000,2535.000
1840.072,14808.000,7165.000,5370.000,4426.000,3846.000,3415.000,3155.000,2939.000,2755.000,2616.000
1844.811,15127.000,7344.000,5386.000,4463.000,3931.000,3520.000,3163.000,2985.000,2772.000,2623.000
1849.548,15460.000,7538.000,5579.000,4614.000,4053.000,3569.000,3272.000,3042.000,2841.000,2657.000
1854.281,15596.000,7531.000,5535.000,4527.000,4015.000,3600.000,3315.000,3019.000,2890.000,2708.000
1859.014,15215.000,7371.000,5390.000,4514.000,3996.000,3533.000,3173.000,3016.000,2803.000,2694.000
1863.742,15049.000,7262.000,5426.000,4521.000,3867.000,3479.000,3176.000,2964.000,2846.000,2609.000
1868.468,14959.000,7267.000,5350.000,4418.000,3888.000,3458.000,3172.000,2944.000,2795.000,2606.000
1873.191,15444.000,7372.000,5524.000,4508.000,3984.000,3565.000,3241.000,3049.000,2836.000,2668.000
1877.911,15803.000,7572.000,5636.000,4589.000,4100.000,3654.000,3274.000,3137.000,2873.000,2717.000
1882.631,15639.000,7530.000,5641.000,4627.000,3971.000,3587.000,3322.000,3056.000,2963.000,2754.000
1887.346,15303.000,7436.000,5458.000,4584.000,3998.000,3616.000,3270.000,3044.000,2802.000,2680.000
1892.058,14889.000,7266.000,5384.000,4464.000,3866.000,3464.000,3208.000,2978.000,2815.000,2624.000
1896.768,15287.000,7379.000,5527.000,4503.000,4001.000,3526.000,3214.000,3044.000,2828.000,2665.000
1901.476,15693.000,7472.000,5624.000,4639.000,4004.000,3568.000,3315.000,3037.000,2888.000,2661.000
1906.182,15735.000,7542.000,5598.000,4624.000,4051.000,3674.000,3321.000,3177.000,2884.000,2740.000
1910.884,15730.000,7612.000,5621.000,4641.000,4057.000,3645.000,3346.000,3112.000,2936.000,2793.000
1915.583,15145.000,7374.000,5438.000,4565.000,4030.000,3558.000,3235.000,3067.000,2863.000,2662.000
1920.280,15213.000,7338.000,5439.000,4615.000,3971.000,3540.000,3258.000,3027.000,2888.000,2690.000
1924.974,15474.000,7414.000,5491.000,4529.000,3995.000,3594.000,3345.000,3006.000,2878.000,2708.000
1929.668,15880.000,7733.000,5703.000,4765.000,4137.000,3666.000,3433.000,3119.000,2961.000,2719.000
1934.357,16017.000,7663.000,5705.000,4733.000,4103.000,3683.000,3404.000,3174.000,2995.000,2816.000
1939.043,15600.000,7507.000,5644.000,4670.000,4078.000,3596.000,3360.000,3102.000,2955.000,2782.000
1943.727,15641.000,7447.000,5644.000,4669.000,4057.000,3638.000,3345.000,3126.000,2963.000,2765.000
1948.410,15490.000,7541.000,5636.000,4639.000,4070.000,3671.000,3382.000,3068.000,2892.000,2737.000
1953.088,16047.000,7812.000,5765.000,4735.000,4172.000,3749.000,3426.000,3216.000,3011.000,2858.000
1957.764,16276.000,7943.000,5794.000,4883.000,4277.000,3820.000,3450.000,3206.000,3108.000,2838.000
1962.438,16247.000,7804.000,5819.000,4799.000,4186.000,3727.000,3475.000,3252.000,3095.000,2881.000
1967.108,16053.000,7665.000,5818.000,4812.000,4186.000,3781.000,3465.000,3191.000,3030.000,2826.000
1971.778,15842.000,7620.000,5659.000,4693.000,4085.000,3736.000,3411.000,3191.000,3049.000,2820.000
1976.444,16190.000,7884.000,5797.000,4807.000,4268.000,3729.000,3488.000,3271.000,3121.000,2897.000
1981.107,16461.000,8050.000,5946.000,4921.000,4293.000,3856.000,3519.000,3339.000,3152.000,2983.000
1985.767,16541.000,8078.000,5968.000,4961.000,4333.000,3890.000,3603.000,3250.000,3151.000,2988.000
1990.425,16295.000,7889.000,5987.000,4887.000,4348.000,3846.000,3512.000,3263.000,3152.000,2941.000
1995.082,15822.000,7664.000,5779.000,4841.000,4166.000,3789.000,3433.000,3241.000,3065.000,2902.000
1999.735,16064.000,7843.000,5803.000,4821.000,4280.000,3865.000,3561.000,3300.000,3147.000,2877.000
2004.385,16295.000,7942.000,6003.000,4964.000,4356.000,3883.000,3625.000,3298.000,3210.000,3014.000
2009.032,16923.000,8247.000,6208.000,5114.000,4408.000,3995.000,3626.000,3469.000,3286.000,3116.000
2013.677,16672.000,8192.000,6172.000,5119.000,4479.000,4021.000,3795.000,3517.000,3327.000,3110.000
2018.321,16497.000,8031.000,6043.000,4948.000,4529.000,4020.000,3675.000,3497.000,3282.000,3089.000
2022.961,16394.000,8110.000,6123.000,5185.000,4394.000,4038.000,3713.000,3547.000,3346.000,3199.000
2027.598,16533.000,8288.000,6271.000,5272.000,4669.000,4200.000,3838.000,3563.000,3428.000,3250.000