File: Raman/2022_11_26/Data/2022_11_26_Hagfish_Film_Unstreched_532nm_DePol_6mW_750mm_600gv_1200wn_iDus_100s_10accum_Pos1.csv
282.050,1275.000,1229.000,1223.000,1211.000,1186.000,1181.000,1175.000,1163.000,1147.000,1183.000
287.700,1283.000,1243.000,1191.000,1197.000,1179.000,1184.000,1186.000,1153.000,1160.000,1121.000
293.346,1291.000,1250.000,1239.000,1220.000,1178.000,1175.000,1177.000,1153.000,1169.000,1142.000
298.991,1263.000,1227.000,1193.000,1200.000,1192.000,1164.000,1179.000,1160.000,1141.000,1134.000
304.630,1283.000,1244.000,1223.000,1213.000,1184.000,1208.000,1175.000,1175.000,1129.000,1160.000
310.266,1235.000,1202.000,1196.000,1222.000,1173.000,1175.000,1165.000,1141.000,1143.000,1115.000
315.898,1276.000,1235.000,1239.000,1219.000,1195.000,1180.000,1179.000,1159.000,1141.000,1143.000
321.527,1278.000,1249.000,1176.000,1206.000,1171.000,1169.000,1166.000,1171.000,1143.000,1106.000
327.155,1259.000,1265.000,1213.000,1211.000,1219.000,1183.000,1181.000,1183.000,1163.000,1140.000
332.777,1268.000,1229.000,1225.000,1200.000,1216.000,1192.000,1180.000,1175.000,1154.000,1122.000
338.396,1298.000,1235.000,1251.000,1223.000,1214.000,1193.000,1154.000,1171.000,1161.000,1159.000
344.011,1264.000,1215.000,1224.000,1206.000,1165.000,1196.000,1169.000,1141.000,1140.000,1122.000
349.623,1282.000,1261.000,1233.000,1227.000,1204.000,1225.000,1149.000,1166.000,1140.000,1131.000
355.233,1275.000,1222.000,1227.000,1215.000,1203.000,1187.000,1179.000,1141.000,1156.000,1125.000
360.838,1257.000,1263.000,1213.000,1224.000,1220.000,1196.000,1176.000,1158.000,1161.000,1145.000
366.440,1263.000,1243.000,1212.000,1196.000,1162.000,1194.000,1165.000,1152.000,1148.000,1155.000
372.038,1293.000,1258.000,1229.000,1213.000,1246.000,1191.000,1182.000,1151.000,1171.000,1147.000
377.633,1281.000,1234.000,1216.000,1206.000,1205.000,1155.000,1171.000,1188.000,1116.000,1111.000
383.226,1290.000,1247.000,1242.000,1195.000,1243.000,1175.000,1184.000,1180.000,1144.000,1131.000
388.815,1271.000,1256.000,1216.000,1227.000,1207.000,1212.000,1192.000,1169.000,1151.000,1109.000
394.399,1279.000,1256.000,1263.000,1252.000,1200.000,1207.000,1199.000,1218.000,1172.000,1147.000
399.980,1288.000,1235.000,1233.000,1233.000,1205.000,1180.000,1156.000,1177.000,1158.000,1146.000
405.560,1302.000,1271.000,1272.000,1245.000,1236.000,1221.000,1164.000,1207.000,1189.000,1163.000
411.135,1309.000,1279.000,1213.000,1230.000,1250.000,1248.000,1181.000,1191.000,1165.000,1174.000
416.706,1331.000,1273.000,1268.000,1261.000,1246.000,1214.000,1208.000,1216.000,1189.000,1203.000
422.274,1353.000,1272.000,1257.000,1243.000,1248.000,1256.000,1187.000,1187.000,1187.000,1163.000
427.838,1361.000,1287.000,1284.000,1248.000,1251.000,1220.000,1223.000,1235.000,1184.000,1172.000
433.401,1285.000,1272.000,1245.000,1243.000,1247.000,1227.000,1227.000,1196.000,1174.000,1145.000
438.959,1343.000,1318.000,1279.000,1285.000,1261.000,1256.000,1701.000,1207.000,1178.000,1192.000
444.513,1332.000,1291.000,1281.000,1271.000,1213.000,1217.000,1221.000,1199.000,1183.000,1205.000
450.064,1375.000,1319.000,1284.000,1255.000,1262.000,1267.000,1249.000,1207.000,1203.000,1185.000
455.611,1361.000,1311.000,1268.000,1272.000,1277.000,1232.000,1217.000,1236.000,1209.000,1175.000
461.158,1380.000,1310.000,1296.000,1301.000,1290.000,1254.000,1215.000,1204.000,1190.000,1211.000
466.698,1365.000,1328.000,1292.000,1282.000,1279.000,1246.000,1240.000,1197.000,1191.000,1190.000
472.236,1376.000,1325.000,1311.000,1270.000,1300.000,1285.000,1236.000,1211.000,1202.000,1198.000
477.770,1313.000,1302.000,1307.000,1292.000,1242.000,1262.000,1223.000,1209.000,1214.000,1201.000
483.301,1398.000,1350.000,1294.000,1277.000,1286.000,1267.000,1267.000,1224.000,1217.000,1218.000
488.830,1363.000,1303.000,1298.000,1333.000,1256.000,1283.000,1264.000,1215.000,1198.000,1207.000
494.354,1412.000,1334.000,1299.000,1297.000,1268.000,1288.000,1263.000,1212.000,1208.000,1209.000
499.875,1360.000,1339.000,1315.000,1319.000,1290.000,1272.000,1247.000,1229.000,1232.000,1211.000
505.393,1372.000,1322.000,1336.000,1282.000,1315.000,1291.000,1254.000,1239.000,1223.000,1208.000
510.907,1362.000,1317.000,1309.000,1306.000,1264.000,1273.000,1243.000,1234.000,1215.000,1220.000
516.420,1394.000,1326.000,1333.000,1322.000,1325.000,1310.000,1283.000,1256.000,1241.000,1244.000
521.927,1414.000,1349.000,1340.000,1345.000,1280.000,1287.000,1280.000,1225.000,1242.000,1227.000
527.431,1408.000,1396.000,1341.000,1342.000,1307.000,1301.000,1283.000,1287.000,1218.000,1243.000
532.932,1421.000,1367.000,1352.000,1328.000,1318.000,1311.000,1254.000,1290.000,1243.000,1235.000
538.430,1406.000,1388.000,1347.000,1313.000,1315.000,1297.000,1430.000,1282.000,1249.000,1234.000
543.926,1429.000,1367.000,1378.000,1349.000,1316.000,1340.000,1263.000,1259.000,1264.000,1236.000
549.417,1434.000,1366.000,1323.000,1336.000,1318.000,1313.000,1275.000,1267.000,1270.000,1212.000
554.904,1419.000,1380.000,1354.000,1323.000,1358.000,1324.000,1312.000,1279.000,1274.000,1265.000
560.389,1439.000,1376.000,1344.000,1353.000,1333.000,1311.000,1270.000,1268.000,1259.000,1269.000
565.870,1467.000,1407.000,1402.000,1358.000,1339.000,1320.000,1314.000,1289.000,1289.000,1247.000
571.350,1442.000,1418.000,1390.000,1361.000,1334.000,1318.000,1288.000,1292.000,1262.000,1254.000
576.824,2027.000,1409.000,1383.000,1391.000,1356.000,1355.000,1338.000,1346.000,1300.000,1279.000
582.295,1439.000,1341.000,1374.000,1401.000,1358.000,1338.000,1319.000,1294.000,1281.000,1266.000
587.763,1474.000,1411.000,1416.000,1388.000,1392.000,1352.000,1310.000,1317.000,1284.000,1247.000
593.228,1456.000,1436.000,1397.000,1402.000,1357.000,1351.000,1318.000,1308.000,1279.000,1259.000
598.691,1497.000,1447.000,1393.000,1407.000,1356.000,1372.000,1334.000,1306.000,1251.000,1288.000
604.149,1470.000,1445.000,1395.000,1429.000,1348.000,1354.000,1314.000,1324.000,1299.000,1304.000
609.604,1497.000,1437.000,1401.000,1389.000,1388.000,1387.000,1333.000,1348.000,1304.000,1322.000
615.055,1473.000,1443.000,1444.000,1382.000,1368.000,1314.000,1336.000,1355.000,1271.000,1280.000
620.505,1536.000,1488.000,1467.000,1445.000,1470.000,1435.000,1389.000,1377.000,1352.000,1334.000
625.950,1476.000,1444.000,1407.000,1409.000,1413.000,1336.000,1322.000,1320.000,1304.000,1272.000
631.392,1509.000,1428.000,1447.000,1410.000,1409.000,1425.000,1367.000,1337.000,1313.000,1275.000
636.831,1530.000,1450.000,1423.000,1427.000,1431.000,1371.000,1360.000,1317.000,1327.000,1304.000
642.266,1575.000,1513.000,1485.000,1490.000,1445.000,1425.000,1427.000,1395.000,1384.000,1382.000
647.700,1512.000,1433.000,1449.000,1433.000,1409.000,1376.000,1375.000,1330.000,1331.000,1337.000
653.128,1510.000,1475.000,1433.000,1427.000,1385.000,1399.000,1386.000,1348.000,1330.000,1350.000
658.554,1550.000,1435.000,1426.000,1430.000,1404.000,1430.000,1367.000,1364.000,1357.000,1291.000
663.976,1543.000,1436.000,1470.000,1463.000,1421.000,1397.000,1401.000,1372.000,1361.000,1303.000
669.395,1572.000,1489.000,1449.000,1453.000,1413.000,1384.000,1348.000,1354.000,1348.000,1330.000
674.813,1551.000,1467.000,1436.000,1416.000,1419.000,1416.000,1376.000,1340.000,1317.000,1326.000
680.225,1572.000,1484.000,1447.000,1456.000,1436.000,1439.000,1410.000,1372.000,1335.000,1332.000
685.634,1512.000,1466.000,1462.000,1440.000,1413.000,1407.000,1392.000,1352.000,1358.000,1334.000
691.040,1558.000,1491.000,1456.000,1461.000,1468.000,1438.000,1388.000,1354.000,1331.000,1339.000
696.443,1546.000,1469.000,1474.000,1463.000,1439.000,1396.000,1365.000,1352.000,1341.000,1343.000
701.845,1591.000,1496.000,1492.000,1469.000,1459.000,1432.000,1419.000,1369.000,1367.000,1343.000
707.241,1549.000,1491.000,1476.000,1425.000,1454.000,1402.000,1404.000,1386.000,1353.000,1318.000
712.634,1593.000,1531.000,1523.000,1482.000,1482.000,1444.000,1434.000,1420.000,1359.000,1350.000
718.024,1612.000,1531.000,1503.000,1492.000,1461.000,1446.000,1376.000,1414.000,1371.000,1323.000
723.411,1624.000,1582.000,1518.000,1522.000,1492.000,1469.000,1450.000,1447.000,1396.000,1378.000
728.796,1608.000,1498.000,1487.000,1466.000,1453.000,1443.000,1434.000,1381.000,1405.000,1349.000
734.177,1629.000,1542.000,1508.000,1518.000,1506.000,1442.000,1467.000,1420.000,1411.000,1384.000
739.554,1621.000,1539.000,1579.000,1499.000,1484.000,1469.000,1424.000,1426.000,1425.000,1348.000
744.928,1610.000,1571.000,1549.000,1543.000,1503.000,1455.000,1460.000,1423.000,1424.000,1380.000
750.298,1622.000,1574.000,1529.000,1470.000,1508.000,1481.000,1422.000,1405.000,1406.000,1366.000
755.668,1654.000,1572.000,1554.000,1556.000,1532.000,1481.000,1453.000,1416.000,1424.000,1407.000
761.032,1663.000,1550.000,1555.000,1485.000,1491.000,1477.000,1482.000,1460.000,1403.000,1390.000
766.393,1637.000,1581.000,1527.000,1547.000,1507.000,1485.000,1477.000,1437.000,1425.000,1415.000
771.751,1673.000,1539.000,1542.000,1498.000,1495.000,1476.000,1477.000,1456.000,1431.000,1404.000
777.106,1674.000,1588.000,1547.000,1561.000,1545.000,1477.000,1438.000,1431.000,1408.000,1394.000
782.459,1639.000,1587.000,1551.000,1545.000,1511.000,1490.000,1460.000,1440.000,1443.000,1392.000
787.808,1673.000,1573.000,1534.000,1525.000,1540.000,1481.000,1475.000,1446.000,1432.000,1358.000
793.153,1647.000,1613.000,1542.000,1508.000,1543.000,1485.000,1451.000,1432.000,1425.000,1370.000
798.495,1675.000,1595.000,1530.000,1532.000,1513.000,1461.000,1457.000,1471.000,1416.000,1397.000
803.836,1668.000,1618.000,1548.000,1533.000,1546.000,1514.000,1471.000,1473.000,1452.000,1399.000
809.171,1672.000,1554.000,1504.000,1540.000,1505.000,1496.000,1471.000,1454.000,1422.000,1383.000
814.504,1684.000,1600.000,1579.000,1563.000,1514.000,1517.000,1474.000,1456.000,1431.000,1441.000
819.833,1714.000,1527.000,1558.000,1586.000,1545.000,1495.000,1498.000,1456.000,1445.000,1451.000
825.159,1689.000,1622.000,1560.000,1557.000,1539.000,1532.000,1490.000,1501.000,1427.000,1426.000
830.484,1688.000,1618.000,1590.000,1576.000,1541.000,1544.000,1504.000,1479.000,1437.000,1412.000
835.804,1676.000,1662.000,1566.000,1557.000,1568.000,1519.000,1500.000,1494.000,1485.000,1440.000
841.121,1682.000,1605.000,1553.000,1549.000,1563.000,1514.000,1510.000,1483.000,1461.000,1422.000
846.435,1727.000,1649.000,1593.000,1567.000,1565.000,1579.000,1497.000,1461.000,1474.000,1455.000
851.745,1715.000,1623.000,1596.000,1586.000,1552.000,1509.000,1539.000,1525.000,1462.000,1435.000
857.054,1716.000,1671.000,1615.000,1607.000,1561.000,1562.000,1548.000,1474.000,1474.000,1442.000
862.359,1721.000,1620.000,1596.000,1555.000,1563.000,1557.000,1501.000,1474.000,1455.000,1432.000
867.660,1729.000,1631.000,1627.000,1616.000,1560.000,1533.000,1512.000,1493.000,1454.000,1459.000
872.958,1715.000,1678.000,1612.000,1602.000,1566.000,1577.000,1514.000,1504.000,1481.000,1482.000
878.252,1767.000,1642.000,1657.000,1597.000,1574.000,1571.000,1524.000,1484.000,1486.000,1434.000
883.546,1767.000,1701.000,1678.000,1608.000,1583.000,1571.000,1559.000,1531.000,1495.000,1482.000
888.835,1729.000,1641.000,1640.000,1611.000,1611.000,1568.000,1531.000,1514.000,1475.000,1446.000
894.120,1776.000,1683.000,1661.000,1604.000,1593.000,1579.000,1540.000,1530.000,1460.000,1471.000
899.402,1743.000,1681.000,1637.000,1620.000,1610.000,1582.000,1527.000,1514.000,1471.000,1456.000
904.681,1785.000,1698.000,1665.000,1656.000,1606.000,1615.000,1551.000,1571.000,1521.000,1529.000
909.959,1759.000,1695.000,1646.000,1607.000,1597.000,1582.000,1557.000,1555.000,1498.000,1471.000
915.232,1796.000,1705.000,1687.000,1660.000,1607.000,1638.000,1602.000,1545.000,1477.000,1510.000
920.502,1788.000,1642.000,1675.000,1658.000,1658.000,1629.000,1552.000,1551.000,1495.000,1493.000
925.769,1825.000,1753.000,1691.000,1658.000,1641.000,1594.000,1577.000,1549.000,1549.000,1514.000
931.033,1789.000,1702.000,1667.000,1673.000,1675.000,1596.000,1610.000,1572.000,1483.000,1497.000
936.295,1830.000,1706.000,1667.000,1687.000,1636.000,1627.000,1595.000,1578.000,1538.000,1512.000
941.552,1839.000,1737.000,1676.000,1677.000,2030.000,1643.000,1586.000,1593.000,1498.000,1545.000
946.807,1799.000,1693.000,1648.000,1697.000,1659.000,1627.000,1563.000,1557.000,1523.000,1495.000
952.058,1845.000,1751.000,1699.000,1681.000,1630.000,1602.000,1604.000,1547.000,1538.000,1540.000
957.306,1842.000,1728.000,1665.000,1695.000,1674.000,1663.000,1576.000,1584.000,1575.000,1548.000
962.553,1878.000,1755.000,1683.000,1653.000,1635.000,1606.000,1634.000,1581.000,1540.000,1522.000
967.795,1782.000,1710.000,1675.000,1634.000,1620.000,1636.000,1584.000,1583.000,1516.000,1509.000
973.034,1847.000,1763.000,1673.000,1682.000,1663.000,1670.000,1627.000,1578.000,1536.000,1514.000
978.270,1830.000,1716.000,1699.000,1677.000,1627.000,1611.000,1584.000,1574.000,1580.000,1528.000
983.503,1835.000,1735.000,1717.000,1679.000,1677.000,1656.000,1621.000,1631.000,1571.000,1532.000
988.734,1839.000,1729.000,1717.000,1686.000,1649.000,1629.000,1591.000,1576.000,1565.000,1521.000
993.961,1853.000,1741.000,1700.000,1746.000,1681.000,1635.000,1661.000,1606.000,1545.000,1526.000
999.184,1913.000,1768.000,1742.000,1748.000,1720.000,1698.000,1652.000,2173.000,1556.000,1590.000
1004.405,1867.000,1768.000,1732.000,1731.000,1747.000,1668.000,1667.000,1581.000,1571.000,1573.000
1009.622,1857.000,1791.000,1767.000,1755.000,1722.000,1696.000,1690.000,1599.000,1626.000,1577.000
1014.839,1888.000,1779.000,1754.000,1712.000,1701.000,1659.000,1606.000,1617.000,1571.000,1553.000
1020.050,1874.000,1777.000,1722.000,1699.000,1731.000,1672.000,1646.000,1628.000,1599.000,1586.000
1025.258,1890.000,1758.000,1730.000,1782.000,1723.000,1697.000,1652.000,1645.000,1615.000,1561.000
1030.463,1908.000,1795.000,1810.000,1773.000,1757.000,1710.000,1694.000,1618.000,1617.000,1627.000
1035.667,1893.000,1763.000,1742.000,1762.000,1719.000,1714.000,1688.000,1669.000,1580.000,1584.000
1040.867,1923.000,1854.000,1777.000,1762.000,1759.000,1716.000,1694.000,1674.000,1644.000,1625.000
1046.063,1900.000,1827.000,1789.000,1779.000,1740.000,1738.000,1660.000,1660.000,1643.000,1617.000
1051.256,1946.000,1827.000,1750.000,1753.000,1758.000,1717.000,1700.000,1685.000,1643.000,1570.000
1056.446,1938.000,1802.000,1802.000,1790.000,1747.000,1747.000,1711.000,1655.000,1622.000,1630.000
1061.634,1925.000,1833.000,1828.000,1780.000,1768.000,1733.000,1698.000,1688.000,1673.000,1664.000
1066.818,1952.000,1846.000,1816.000,1799.000,1752.000,1714.000,1706.000,1712.000,1674.000,1638.000
1071.999,1931.000,1822.000,1793.000,1808.000,1755.000,1791.000,1698.000,1688.000,1634.000,1644.000
1077.177,1931.000,1909.000,1832.000,1765.000,1745.000,1755.000,1679.000,1683.000,1633.000,1648.000
1082.352,1925.000,1791.000,1796.000,1774.000,1808.000,1736.000,1719.000,1636.000,1630.000,1627.000
1087.526,1950.000,1832.000,1801.000,1755.000,1769.000,1744.000,1699.000,1666.000,1684.000,1612.000
1092.694,1922.000,1781.000,1773.000,1791.000,1745.000,1719.000,1705.000,1668.000,1645.000,1645.000
1097.860,1942.000,1818.000,1798.000,1805.000,1751.000,1728.000,1701.000,1653.000,1667.000,1640.000
1103.023,1976.000,1815.000,1803.000,1763.000,1761.000,1738.000,1662.000,1674.000,1645.000,1621.000
1108.183,1950.000,1837.000,1759.000,1760.000,1749.000,1731.000,1696.000,1688.000,1596.000,1611.000
1113.341,1922.000,1882.000,1797.000,1773.000,1758.000,1734.000,1654.000,1683.000,1611.000,1607.000
1118.495,1968.000,1904.000,1818.000,1805.000,1772.000,1760.000,1681.000,1693.000,1663.000,1663.000
1123.646,1943.000,1890.000,1811.000,1831.000,1784.000,1781.000,1757.000,1698.000,1664.000,1647.000
1128.794,1931.000,1823.000,1803.000,1761.000,1764.000,1731.000,1727.000,1672.000,1640.000,1602.000
1133.938,1918.000,1837.000,1777.000,1759.000,1753.000,1700.000,1697.000,1664.000,1656.000,1628.000
1139.082,1919.000,1810.000,1788.000,1734.000,1762.000,1743.000,1691.000,1672.000,1599.000,1617.000
1144.221,1952.000,1851.000,1809.000,1791.000,1755.000,1723.000,1693.000,1661.000,1655.000,1647.000
1149.356,1912.000,1832.000,1789.000,1791.000,1774.000,1767.000,1698.000,1661.000,1648.000,1642.000
1154.489,1938.000,1897.000,1826.000,1791.000,1766.000,1793.000,1710.000,1708.000,1684.000,1611.000
1159.619,1948.000,1904.000,1827.000,1757.000,1750.000,1750.000,1691.000,1652.000,1649.000,1654.000
1164.748,1979.000,1902.000,1844.000,1833.000,1811.000,1774.000,1751.000,1746.000,1695.000,1649.000
1169.872,1937.000,1871.000,1843.000,1811.000,1857.000,1772.000,1741.000,1711.000,1644.000,1681.000
1174.992,2034.000,1901.000,1866.000,1848.000,1806.000,1800.000,1721.000,1686.000,1632.000,1643.000
1180.110,1999.000,1915.000,1872.000,1801.000,1828.000,1766.000,1732.000,1724.000,1686.000,1679.000
1185.225,1969.000,1835.000,1826.000,1812.000,1795.000,1752.000,1683.000,1730.000,1692.000,1651.000
1190.339,2007.000,1899.000,1862.000,1825.000,1803.000,1825.000,1788.000,1719.000,1705.000,1697.000
1195.448,1956.000,1859.000,1856.000,1819.000,1803.000,1825.000,1733.000,1702.000,1672.000,1679.000
1200.554,2027.000,1924.000,1887.000,1848.000,1844.000,1809.000,1769.000,1742.000,1722.000,1677.000
1205.657,2057.000,1924.000,1902.000,1851.000,1885.000,1804.000,1789.000,1765.000,1729.000,1710.000
1210.759,2110.000,1988.000,1939.000,1903.000,1879.000,1874.000,1816.000,1816.000,1792.000,1752.000
1215.856,2117.000,1954.000,1972.000,1941.000,1897.000,1877.000,1819.000,1828.000,1775.000,1784.000
1220.950,2120.000,2029.000,1944.000,1943.000,1911.000,1886.000,1891.000,1855.000,1781.000,1775.000
1226.041,2167.000,2006.000,1998.000,1993.000,1919.000,1908.000,1875.000,1838.000,1831.000,1771.000
1231.130,2209.000,2051.000,2027.000,1928.000,1974.000,1900.000,1855.000,1843.000,1806.000,1776.000
1236.217,2181.000,2048.000,2011.000,2016.000,2003.000,1974.000,1900.000,1863.000,1864.000,1834.000
1241.299,2167.000,2005.000,1963.000,1972.000,1915.000,1922.000,1855.000,1840.000,1812.000,1818.000
1246.379,2121.000,2032.000,2006.000,2012.000,1951.000,1955.000,1906.000,1839.000,1826.000,1823.000
1251.455,2078.000,2052.000,1967.000,2018.000,1938.000,1923.000,1903.000,1872.000,1780.000,1773.000
1256.529,2142.000,2077.000,2012.000,1985.000,1972.000,1919.000,1892.000,1817.000,1798.000,1813.000
1261.601,2159.000,2034.000,2002.000,1950.000,1907.000,1943.000,1864.000,1805.000,1812.000,1806.000
1266.669,2137.000,2030.000,1959.000,1926.000,1915.000,1902.000,1863.000,1832.000,1801.000,1776.000
1271.734,2132.000,2003.000,1966.000,1922.000,1910.000,1945.000,1880.000,1833.000,1805.000,1781.000
1276.795,2162.000,1987.000,1988.000,1958.000,1947.000,1913.000,1852.000,1855.000,1785.000,1745.000
1281.854,2144.000,1968.000,2029.000,1961.000,1941.000,1936.000,1921.000,1845.000,1815.000,1794.000
1286.912,2130.000,2014.000,1997.000,1913.000,1920.000,1862.000,1891.000,1811.000,1795.000,1785.000
1291.965,2110.000,2056.000,1995.000,1917.000,1984.000,1912.000,1909.000,1828.000,1817.000,1808.000
1297.015,2145.000,2019.000,1969.000,1936.000,1948.000,1889.000,1871.000,1818.000,1823.000,1768.000
1302.063,2226.000,2055.000,2011.000,2007.000,1978.000,1940.000,1891.000,1874.000,1849.000,1832.000
1307.107,2170.000,2015.000,2005.000,1963.000,1938.000,1953.000,1933.000,1855.000,1827.000,1835.000
1312.150,2121.000,2093.000,2017.000,1971.000,2000.000,1947.000,1934.000,1875.000,1881.000,1846.000
1317.189,2208.000,2059.000,2037.000,2017.000,2004.000,1989.000,1926.000,1879.000,1857.000,1844.000
1322.224,2164.000,2035.000,2026.000,1967.000,1963.000,1958.000,1943.000,1895.000,1829.000,1818.000
1327.257,2193.000,2099.000,2059.000,2004.000,1985.000,1957.000,1917.000,1885.000,1829.000,1851.000
1332.287,2207.000,2109.000,2021.000,1978.000,1985.000,1936.000,1959.000,1906.000,1879.000,1853.000
1337.316,2228.000,2114.000,2057.000,1987.000,2019.000,1983.000,1961.000,1885.000,1906.000,1840.000
1342.340,2171.000,2100.000,2000.000,2002.000,1979.000,1979.000,1971.000,1874.000,1874.000,1883.000
1347.361,2172.000,2032.000,2023.000,2023.000,1936.000,1933.000,1906.000,1851.000,1829.000,1830.000
1352.379,2129.000,2036.000,2020.000,1923.000,1966.000,1895.000,1884.000,1813.000,1794.000,1803.000
1357.395,2127.000,2000.000,1932.000,1985.000,1927.000,1895.000,1855.000,1826.000,1851.000,1795.000
1362.409,2134.000,2014.000,1929.000,1975.000,1928.000,1899.000,1895.000,1823.000,1789.000,1747.000
1367.418,2057.000,1959.000,1914.000,1937.000,1899.000,1888.000,1846.000,1793.000,1818.000,1730.000
1372.425,2118.000,1985.000,1962.000,1904.000,1884.000,1892.000,1839.000,1841.000,1770.000,1756.000
1377.429,2148.000,1988.000,1915.000,1938.000,1886.000,1876.000,1812.000,1815.000,1768.000,1735.000
1382.430,2139.000,1974.000,2003.000,1954.000,1919.000,1894.000,1821.000,1830.000,1769.000,1791.000
1387.430,2091.000,2008.000,1947.000,1897.000,1894.000,1849.000,1823.000,1804.000,1727.000,1730.000
1392.425,2143.000,2005.000,1948.000,1929.000,1932.000,1917.000,1834.000,1799.000,1768.000,1718.000
1397.418,2067.000,2014.000,1961.000,1958.000,1919.000,1898.000,1850.000,1826.000,1739.000,1780.000
1402.407,2108.000,2017.000,1925.000,1940.000,1920.000,1899.000,1855.000,1852.000,1780.000,1731.000
1407.394,2180.000,2030.000,2035.000,1939.000,1947.000,1907.000,1867.000,1866.000,1799.000,1811.000
1412.379,2088.000,1995.000,1959.000,1954.000,1938.000,1924.000,1854.000,1867.000,1772.000,1773.000
1417.360,2142.000,2054.000,2001.000,2008.000,1955.000,1920.000,1920.000,1841.000,1775.000,1782.000
1422.338,2118.000,2034.000,1996.000,1968.000,1949.000,1930.000,1926.000,1872.000,1841.000,1779.000
1427.314,2251.000,2165.000,2083.000,2062.000,2022.000,1991.000,1980.000,1916.000,1878.000,1848.000
1432.286,2323.000,2220.000,2142.000,2136.000,2089.000,2128.000,2014.000,1965.000,1940.000,1933.000
1437.257,2379.000,2250.000,2145.000,2143.000,2174.000,2116.000,2086.000,1997.000,1978.000,1979.000
1442.224,2360.000,2239.000,2222.000,2158.000,2178.000,2131.000,2075.000,2067.000,2020.000,1964.000
1447.188,2351.000,2186.000,2152.000,2100.000,2097.000,2146.000,2043.000,2002.000,1998.000,1975.000
1452.149,2323.000,2204.000,2175.000,2137.000,2138.000,2036.000,2056.000,2037.000,1925.000,2010.000
1457.109,2291.000,2139.000,2114.000,2101.000,2111.000,2009.000,2003.000,1963.000,1984.000,1898.000
1462.064,2248.000,2112.000,2081.000,2056.000,2048.000,2022.000,1946.000,1937.000,1880.000,1832.000
1467.017,2169.000,2084.000,2021.000,1990.000,1972.000,1950.000,1923.000,1838.000,1800.000,1816.000
1471.966,2178.000,2050.000,1995.000,1944.000,1942.000,1934.000,1879.000,1880.000,1804.000,1808.000
1476.913,2080.000,2017.000,1943.000,1936.000,1890.000,1872.000,1825.000,1805.000,1782.000,1736.000
1481.859,2076.000,1972.000,1943.000,1940.000,1869.000,1844.000,1788.000,1784.000,1746.000,1717.000
1486.800,2116.000,1979.000,1966.000,1941.000,1926.000,1853.000,1874.000,1804.000,1766.000,1704.000
1491.739,2084.000,1996.000,1931.000,1935.000,1899.000,1883.000,1802.000,1750.000,1744.000,1698.000
1496.674,2106.000,1982.000,1953.000,1933.000,1889.000,1863.000,1835.000,1772.000,1735.000,1735.000
1501.607,2097.000,1961.000,1935.000,1927.000,1881.000,1882.000,1764.000,1786.000,1770.000,1755.000
1506.539,2121.000,1931.000,1939.000,1944.000,1854.000,1847.000,1841.000,1814.000,1722.000,1759.000
1511.466,2071.000,1978.000,1943.000,1904.000,1934.000,1856.000,1828.000,1804.000,1788.000,1752.000
1516.390,2106.000,1989.000,1895.000,1894.000,1877.000,1855.000,1858.000,1767.000,1747.000,1715.000
1521.312,2109.000,1987.000,1940.000,1922.000,1925.000,1897.000,1825.000,1813.000,1759.000,1711.000
1526.230,2042.000,1966.000,1938.000,1927.000,1898.000,1884.000,1856.000,1786.000,1772.000,1714.000
1531.148,2121.000,1982.000,1956.000,1922.000,1890.000,1856.000,1812.000,1813.000,1775.000,1747.000
1536.061,2141.000,1991.000,1913.000,1959.000,1898.000,1897.000,1811.000,1801.000,1783.000,1738.000
1540.972,2135.000,2002.000,1969.000,1938.000,1905.000,1895.000,1841.000,1831.000,1771.000,1756.000
1545.879,2194.000,2067.000,1999.000,1964.000,1942.000,1878.000,1853.000,1839.000,1784.000,1754.000
1550.784,2145.000,1991.000,1934.000,1888.000,1862.000,1851.000,1861.000,1845.000,1769.000,1783.000
1555.688,2167.000,2057.000,1998.000,1939.000,1969.000,1904.000,1863.000,1867.000,1793.000,1782.000
1560.587,2156.000,2048.000,1989.000,1954.000,1931.000,1921.000,1857.000,1844.000,1783.000,1782.000
1565.483,2166.000,2000.000,1959.000,1985.000,1935.000,1969.000,1853.000,1847.000,1850.000,1783.000
1570.377,2157.000,2012.000,1975.000,1956.000,1897.000,1933.000,1858.000,1803.000,1775.000,1777.000
1575.269,2114.000,2064.000,2007.000,1979.000,1979.000,1929.000,1874.000,1804.000,1812.000,1776.000
1580.157,2159.000,2065.000,1970.000,1922.000,1969.000,1936.000,1887.000,1851.000,1783.000,1773.000
1585.043,2140.000,2002.000,1987.000,1905.000,1964.000,1940.000,1835.000,1817.000,1791.000,1789.000
1589.925,2151.000,2030.000,1984.000,1990.000,1952.000,1907.000,1879.000,1831.000,1815.000,1782.000
1594.805,2150.000,2042.000,2020.000,1982.000,1976.000,1955.000,1930.000,1853.000,1838.000,1821.000
1599.684,2192.000,2103.000,2064.000,2038.000,2010.000,2009.000,1925.000,1882.000,1871.000,1854.000
1604.558,2171.000,2085.000,2034.000,2016.000,2007.000,1954.000,1895.000,1895.000,1861.000,1829.000
1609.429,2237.000,2083.000,2124.000,1994.000,2005.000,1970.000,1926.000,1883.000,1886.000,1827.000
1614.298,2200.000,2075.000,2008.000,1993.000,1991.000,1973.000,1904.000,1845.000,1834.000,1791.000
1619.164,2168.000,2094.000,1994.000,1982.000,1975.000,1873.000,1885.000,1875.000,1791.000,1755.000
1624.029,2143.000,2063.000,1999.000,1972.000,1936.000,1943.000,1923.000,1834.000,1791.000,1849.000
1628.889,2167.000,2067.000,2000.000,1985.000,1928.000,1898.000,1903.000,1830.000,1801.000,1780.000
1633.747,2223.000,2075.000,2065.000,1987.000,2016.000,1930.000,1904.000,1864.000,1845.000,1827.000
1638.602,2186.000,2060.000,2011.000,1985.000,2020.000,1974.000,1919.000,1866.000,1837.000,1821.000
1643.454,2245.000,2072.000,2049.000,2027.000,2061.000,1995.000,1955.000,1901.000,1882.000,1877.000
1648.305,2281.000,2157.000,2139.000,2025.000,2060.000,2051.000,1987.000,1987.000,1949.000,1860.000
1653.152,2280.000,2221.000,2132.000,2069.000,2076.000,2112.000,1986.000,1967.000,1925.000,1905.000
1657.996,2379.000,2229.000,2205.000,2197.000,2155.000,2113.000,2051.000,1983.000,1966.000,1941.000
1662.837,2388.000,2248.000,2187.000,2145.000,2102.000,2087.000,2091.000,2037.000,1990.000,1945.000
1667.675,2349.000,2209.000,2116.000,2109.000,2117.000,2079.000,2030.000,2011.000,1938.000,1900.000
1672.513,2216.000,2110.000,2072.000,2061.000,1985.000,2010.000,1978.000,1940.000,1846.000,1877.000
1677.346,2178.000,2068.000,2060.000,1992.000,2037.000,1996.000,1932.000,1930.000,1833.000,1821.000
1682.176,2189.000,2070.000,2020.000,2024.000,1983.000,1964.000,1912.000,1855.000,1818.000,1802.000
1687.004,2207.000,2056.000,1983.000,2002.000,1929.000,1920.000,1862.000,1869.000,1789.000,1747.000
1691.829,2162.000,2039.000,1930.000,2005.000,1950.000,1923.000,1877.000,1835.000,1812.000,1789.000
1696.652,2125.000,1987.000,1941.000,1930.000,1903.000,1937.000,1875.000,1836.000,1766.000,1794.000
1701.472,2156.000,2040.000,1986.000,1971.000,1926.000,1909.000,1848.000,1815.000,1785.000,1754.000
1706.288,2160.000,2015.000,1998.000,1923.000,1933.000,1911.000,1842.000,1832.000,1733.000,1764.000
1711.102,2102.000,2013.000,1961.000,1940.000,1888.000,1895.000,1837.000,1810.000,1778.000,1743.000
1715.914,2102.000,2020.000,2018.000,1918.000,1927.000,1856.000,1856.000,1851.000,1781.000,1771.000
1720.724,2091.000,2028.000,1963.000,1938.000,1905.000,1900.000,1823.000,1782.000,1778.000,1755.000
1725.530,2103.000,2003.000,1952.000,1931.000,1918.000,1914.000,1828.000,1803.000,1777.000,1773.000
1730.333,2125.000,2000.000,1933.000,1933.000,1905.000,1851.000,1801.000,1800.000,1753.000,1747.000
1735.133,2099.000,2032.000,1962.000,1929.000,1910.000,1899.000,1846.000,1819.000,1801.000,1749.000
1739.931,2128.000,2017.000,1977.000,1963.000,1899.000,1899.000,1854.000,1811.000,1782.000,1734.000
1744.728,2155.000,1994.000,1996.000,1933.000,1939.000,1896.000,1864.000,1797.000,1778.000,1762.000
1749.520,2120.000,2033.000,1962.000,1933.000,1978.000,1875.000,1866.000,1791.000,1781.000,1727.000
1754.310,2145.000,2056.000,1976.000,1937.000,1915.000,1891.000,1861.000,1846.000,1758.000,1762.000
1759.097,2108.000,2033.000,1999.000,1930.000,1927.000,1927.000,1848.000,1844.000,1772.000,1785.000
1763.881,2112.000,2028.000,1938.000,1927.000,1954.000,1899.000,1841.000,1817.000,1783.000,1730.000
1768.664,2151.000,2050.000,1993.000,1908.000,1929.000,1923.000,1858.000,1816.000,1793.000,1752.000
1773.443,2138.000,2052.000,2011.000,1916.000,1961.000,1898.000,1876.000,1813.000,1813.000,1765.000
1778.219,2123.000,1974.000,1983.000,2001.000,1921.000,1884.000,1864.000,1845.000,1779.000,1787.000
1782.993,2104.000,2076.000,2028.000,1986.000,1931.000,1948.000,1866.000,1838.000,1747.000,1776.000
1787.764,2102.000,2050.000,1993.000,1941.000,1949.000,1932.000,1840.000,1789.000,1770.000,1799.000
1792.534,2166.000,2017.000,1975.000,1973.000,1928.000,1919.000,1855.000,1807.000,1797.000,1752.000
1797.299,2176.000,2068.000,2011.000,1993.000,1972.000,1901.000,1855.000,1830.000,1824.000,1772.000
1802.062,2147.000,2032.000,2011.000,1986.000,1920.000,1944.000,1893.000,1836.000,1809.000,1773.000
1806.822,2169.000,2028.000,2007.000,2015.000,1992.000,1865.000,1880.000,1869.000,1783.000,1821.000
1811.582,2133.000,2074.000,2015.000,1979.000,1967.000,1934.000,1882.000,1826.000,1815.000,1806.000
1816.336,2217.000,2104.000,1983.000,2009.000,1997.000,1933.000,1879.000,1851.000,1823.000,1809.000
1821.089,2178.000,2077.000,2006.000,2013.000,1939.000,1941.000,1877.000,1851.000,1823.000,1824.000
1825.838,2144.000,2039.000,1965.000,1968.000,1909.000,1916.000,1894.000,1865.000,1796.000,1805.000
1830.585,2199.000,2139.000,2043.000,1976.000,1936.000,1942.000,1903.000,1885.000,1790.000,1796.000
1835.331,2190.000,2057.000,2031.000,1991.000,1987.000,1949.000,1853.000,1830.000,1805.000,1825.000
1840.072,2176.000,2081.000,2058.000,1999.000,1979.000,1920.000,1888.000,1884.000,1805.000,1805.000
1844.811,2144.000,2106.000,2062.000,2002.000,1971.000,1955.000,1918.000,1892.000,1864.000,1791.000
1849.548,2170.000,2105.000,2043.000,1959.000,1990.000,1948.000,1883.000,1876.000,1789.000,1809.000
1854.281,2180.000,2132.000,2058.000,1999.000,1997.000,2001.000,1914.000,1881.000,1855.000,1806.000
1859.014,2205.000,2105.000,2066.000,1997.000,1996.000,1964.000,1920.000,1877.000,1809.000,1802.000
1863.742,2199.000,2101.000,2055.000,2072.000,1991.000,1968.000,1900.000,1908.000,1862.000,1812.000
1868.468,2173.000,2072.000,2064.000,2023.000,2008.000,1947.000,1906.000,1847.000,1831.000,1821.000
1873.191,5966.000,2071.000,2062.000,2030.000,1989.000,1921.000,1937.000,1905.000,1832.000,1831.000
1877.911,2220.000,2118.000,2053.000,2032.000,2019.000,1986.000,1893.000,1876.000,1849.000,1820.000
1882.631,2215.000,2099.000,2053.000,2017.000,2010.000,1956.000,1956.000,1861.000,1825.000,1797.000
1887.346,2211.000,2130.000,2057.000,2008.000,1987.000,1978.000,1929.000,1887.000,1854.000,1852.000
1892.058,2192.000,2100.000,2051.000,2032.000,2055.000,1959.000,1953.000,1905.000,1852.000,1834.000
1896.768,2273.000,2138.000,2058.000,2058.000,2028.000,1974.000,1906.000,1884.000,1860.000,1845.000
1901.476,2232.000,2129.000,2066.000,2062.000,2023.000,1952.000,1940.000,1903.000,1895.000,1831.000
1906.182,2231.000,2158.000,2096.000,2040.000,2053.000,1977.000,1940.000,1888.000,1856.000,1824.000
1910.884,2269.000,2137.000,2105.000,2086.000,2036.000,2012.000,1957.000,1883.000,1874.000,1849.000
1915.583,2211.000,2136.000,2092.000,2095.000,2017.000,1977.000,1943.000,1880.000,1898.000,1861.000
1920.280,2300.000,2126.000,2116.000,2084.000,2065.000,2010.000,1959.000,1916.000,1880.000,1871.000
1924.974,2227.000,2140.000,2099.000,2088.000,2040.000,2039.000,1958.000,1894.000,1910.000,1860.000
1929.668,2248.000,2119.000,2142.000,2079.000,2073.000,2019.000,1943.000,1932.000,1872.000,1883.000
1934.357,2262.000,2138.000,2094.000,2107.000,2030.000,2076.000,1991.000,1932.000,1911.000,1854.000
1939.043,2271.000,2134.000,2132.000,2060.000,2101.000,2669.000,1944.000,1944.000,1909.000,1888.000
1943.727,2293.000,2159.000,2120.000,2137.000,2111.000,2094.000,2025.000,1963.000,1938.000,1899.000
1948.410,2309.000,2188.000,2142.000,2112.000,2102.000,2061.000,1994.000,1992.000,1950.000,1879.000
1953.088,2299.000,2207.000,2174.000,2124.000,2107.000,2106.000,2053.000,2012.000,1920.000,1919.000
1957.764,2313.000,2221.000,2115.000,2126.000,2089.000,2110.000,2048.000,2001.000,1956.000,1916.000
1962.438,2345.000,2201.000,2163.000,2135.000,2127.000,2062.000,2031.000,2039.000,1959.000,1930.000
1967.108,2338.000,2228.000,2172.000,2164.000,2109.000,2103.000,2039.000,2030.000,1956.000,1945.000
1971.778,2317.000,2260.000,2153.000,2139.000,2119.000,2123.000,2031.000,1995.000,1952.000,1890.000
1976.444,2328.000,2256.000,2189.000,2203.000,2124.000,2103.000,2129.000,2021.000,2016.000,1960.000
1981.107,2419.000,2265.000,2198.000,2234.000,2173.000,2097.000,2090.000,2006.000,2010.000,1995.000
1985.767,2430.000,2262.000,2231.000,2184.000,2197.000,2152.000,2101.000,2039.000,1994.000,1967.000
1990.425,2381.000,2313.000,2280.000,2260.000,2222.000,2122.000,2100.000,2085.000,2057.000,2055.000
1995.082,2433.000,2339.000,2200.000,2179.000,2238.000,2163.000,2169.000,2071.000,2079.000,2081.000
1999.735,2431.000,2327.000,2257.000,2282.000,2230.000,2199.000,2146.000,2174.000,2096.000,2082.000
2004.385,2505.000,2362.000,2315.000,2280.000,2258.000,2213.000,2177.000,2166.000,2098.000,2059.000
2009.032,2529.000,2427.000,2319.000,2345.000,2285.000,2333.000,2213.000,2172.000,2131.000,2080.000
2013.677,2544.000,2414.000,2430.000,2337.000,2347.000,2295.000,2239.000,2240.000,2168.000,2124.000
2018.321,2584.000,2468.000,2449.000,2445.000,2355.000,2335.000,2300.000,2296.000,2188.000,2196.000
2022.961,2678.000,2581.000,2527.000,2485.000,2400.000,2402.000,2384.000,2310.000,2289.000,2266.000
2027.598,2706.000,2612.000,2579.000,2552.000,2521.000,2492.000,2419.000,2463.000,2379.000,2338.000