File: Raman/2022_11_26/Data/2022_11_26_Nylon6_532nm_Pol_6mW_750mm_600gv_2250wn_iDus_100s_10accum_Pos1.csv
1443.187,2998.000,2933.000
1444.838,3208.000,3179.000
1446.488,3685.000,3604.000
1448.136,4127.000,4205.000
1449.785,4573.000,4593.000
1451.435,5184.000,5142.000
1453.083,5758.000,5778.000
1454.732,6185.000,6092.000
1456.380,6775.000,6712.000
1458.026,7469.000,7429.000
1459.674,7910.000,7946.000
1461.321,7855.000,7920.000
1462.968,7310.000,7466.000
1464.615,6479.000,6467.000
1466.261,5431.000,5364.000
1467.906,4546.000,4595.000
1469.551,4040.000,3907.000
1471.197,3532.000,3576.000
1472.842,3312.000,3273.000
1474.487,3152.000,3119.000
1476.131,3164.000,3097.000
1477.774,3154.000,3123.000
1479.418,3271.000,3272.000
1481.061,3533.000,3559.000
1482.704,3667.000,3609.000
1484.347,3507.000,3613.000
1485.990,3342.000,3389.000
1487.631,3106.000,3100.000
1489.273,2951.000,2937.000
1490.914,2911.000,2865.000
1492.556,3057.000,2999.000
1494.197,3027.000,3107.000
1495.836,3068.000,3083.000
1497.476,2945.000,2947.000
1499.116,2557.000,2568.000
1500.756,2096.000,2129.000
1502.396,1798.000,1799.000
1504.035,1611.000,1601.000
1505.672,1455.000,1461.000
1507.311,1358.000,1357.000
1508.949,1301.000,1304.000
1510.587,1250.000,1238.000
1512.224,1216.000,1195.000
1513.862,1158.000,1148.000
1515.497,1137.000,1149.000
1517.134,1138.000,1109.000
1518.770,1111.000,1116.000
1520.406,1106.000,1100.000
1522.042,1099.000,1096.000
1523.678,1094.000,1058.000
1525.311,1066.000,1068.000
1526.946,1066.000,1087.000
1528.580,1066.000,1034.000
1530.215,1060.000,1056.000
1531.849,1058.000,1062.000
1533.482,1071.000,1046.000
1535.114,1094.000,1070.000
1536.747,1075.000,1055.000
1538.379,1063.000,1059.000
1540.012,1086.000,1108.000
1541.644,1123.000,1138.000
1543.276,1122.000,1116.000
1544.905,1140.000,1136.000
1546.537,1147.000,1160.000
1548.167,1165.000,1157.000
1549.798,1210.000,1166.000
1551.428,1212.000,1190.000
1553.056,1204.000,1227.000
1554.686,1222.000,1215.000
1556.315,1236.000,1242.000
1557.944,1230.000,1249.000
1559.573,1194.000,1209.000
1561.201,1205.000,1176.000
1562.828,1160.000,1167.000
1564.455,1143.000,1167.000
1566.083,1158.000,1159.000
1567.710,1136.000,1137.000
1569.337,1120.000,1170.000
1570.964,1090.000,1102.000
1572.588,1114.000,1099.000
1574.214,1106.000,1071.000
1575.840,1089.000,1074.000
1577.465,1079.000,1041.000
1579.090,1051.000,1024.000
1580.715,1042.000,1051.000
1582.337,1024.000,1034.000
1583.961,1002.000,1053.000
1585.585,1032.000,998.000
1587.209,1022.000,1015.000
1588.832,1001.000,1011.000
1590.455,1031.000,999.000
1592.075,992.000,1024.000
1593.698,997.000,1011.000
1595.320,961.000,991.000
1596.941,985.000,959.000
1598.563,990.000,987.000
1600.182,991.000,979.000
1601.803,989.000,973.000
1603.423,990.000,983.000
1605.043,988.000,998.000
1606.663,991.000,1015.000
1608.282,1027.000,1015.000
1609.900,1031.000,1015.000
1611.519,1097.000,1073.000
1613.137,1116.000,1121.000
1614.756,1141.000,1158.000
1616.374,1183.000,1217.000
1617.991,1229.000,1195.000
1619.607,1234.000,1219.000
1621.224,1240.000,1259.000
1622.841,1263.000,1255.000
1624.457,1312.000,1274.000
1626.073,1309.000,1345.000
1627.689,1329.000,1359.000
1629.303,1415.000,1391.000
1630.918,1472.000,1891.000
1632.533,1554.000,2785.000
1634.148,1680.000,2377.000
1635.762,1856.000,1881.000
1637.376,1982.000,2003.000
1638.988,2270.000,2238.000
1640.601,2537.000,2576.000
1642.215,2941.000,2971.000
1643.827,3631.000,3635.000
1645.440,4570.000,4619.000
1647.050,5546.000,5571.000
1648.662,6034.000,6027.000
1650.274,5951.000,6047.000
1651.885,5270.000,5227.000
1653.496,4595.000,4579.000
1655.107,4092.000,4033.000
1656.715,3634.000,3666.000
1658.326,3255.000,3221.000
1659.935,2996.000,2969.000
1661.545,2747.000,2687.000
1663.154,2553.000,2564.000
1664.763,2455.000,2473.000
1666.370,2386.000,2375.000
1667.978,2310.000,2315.000
1669.586,2221.000,2209.000
1671.194,2250.000,2239.000
1672.801,2176.000,2192.000
1674.408,2118.000,2086.000
1676.013,2043.000,2015.000
1677.620,1840.000,1880.000
1679.226,1768.000,1779.000
1680.832,1645.000,1671.000
1682.437,1554.000,1502.000
1684.042,1438.000,1417.000
1685.646,1398.000,1370.000
1687.250,1299.000,1317.000
1688.855,1238.000,1279.000
1690.459,1227.000,1237.000
1692.062,1163.000,1155.000
1693.664,1113.000,1130.000
1695.267,1088.000,1086.000
1696.870,1035.000,1041.000
1698.473,1008.000,993.000
1700.075,978.000,968.000
1701.677,954.000,938.000
1703.277,919.000,932.000
1704.878,894.000,931.000
1706.479,900.000,876.000
1708.080,894.000,885.000
1709.680,872.000,870.000
1711.281,868.000,869.000
1712.879,851.000,845.000
1714.478,858.000,847.000
1716.077,836.000,865.000
1717.676,828.000,820.000
1719.275,835.000,844.000
1720.873,816.000,821.000
1722.470,814.000,812.000
1724.068,823.000,830.000
1725.665,807.000,817.000
1727.262,817.000,823.000
1728.859,817.000,813.000
1730.456,809.000,804.000
1732.050,798.000,804.000
1733.646,807.000,815.000
1735.242,814.000,800.000
1736.837,815.000,801.000
1738.432,803.000,788.000
1740.027,802.000,805.000
1741.620,799.000,808.000
1743.214,786.000,803.000
1744.808,791.000,805.000
1746.401,795.000,791.000
1747.995,804.000,800.000
1749.586,786.000,810.000
1751.179,781.000,799.000
1752.771,792.000,783.000
1754.363,796.000,796.000
1755.955,789.000,787.000
1757.546,776.000,786.000
1759.136,790.000,786.000
1760.727,787.000,791.000
1762.317,781.000,789.000
1763.908,776.000,783.000
1765.498,792.000,764.000
1767.087,773.000,766.000
1768.675,778.000,768.000
1770.264,780.000,781.000
1771.853,760.000,767.000
1773.442,776.000,780.000
1775.030,762.000,755.000
1776.618,769.000,759.000
1778.204,770.000,760.000
1779.791,777.000,746.000
1781.378,755.000,772.000
1782.965,756.000,768.000
1784.551,753.000,766.000
1786.137,758.000,747.000
1787.721,760.000,769.000
1789.307,752.000,763.000
1790.892,752.000,751.000
1792.477,770.000,756.000
1794.062,756.000,757.000
1795.645,759.000,742.000
1797.229,736.000,756.000
1798.813,766.000,763.000
1800.396,752.000,760.000
1801.979,754.000,752.000
1803.562,741.000,759.000
1805.143,743.000,753.000
1806.725,761.000,749.000
1808.307,754.000,757.000
1809.889,744.000,750.000
1811.471,757.000,769.000
1813.052,751.000,754.000
1814.631,753.000,753.000
1816.211,750.000,742.000
1817.792,752.000,750.000
1819.372,730.000,739.000
1820.951,736.000,742.000
1822.531,739.000,756.000
1824.108,761.000,765.000
1825.687,736.000,745.000
1827.265,753.000,744.000
1828.844,758.000,764.000
1830.422,747.000,759.000
1831.999,749.000,751.000
1833.575,760.000,751.000
1835.152,745.000,754.000
1836.729,737.000,745.000
1838.305,764.000,747.000
1839.881,740.000,739.000
1841.455,751.000,750.000
1843.031,739.000,749.000
1844.606,750.000,743.000
1846.181,737.000,749.000
1847.756,741.000,735.000
1849.330,742.000,744.000
1850.903,735.000,750.000
1852.476,744.000,743.000
1854.050,741.000,746.000
1855.623,741.000,728.000
1857.196,740.000,749.000
1858.769,738.000,751.000
1860.339,733.000,743.000
1861.911,751.000,752.000
1863.483,747.000,748.000
1865.055,748.000,736.000
1866.626,748.000,746.000
1868.197,742.000,740.000
1869.766,739.000,752.000
1871.336,735.000,745.000
1872.906,756.000,733.000
1874.476,744.000,750.000
1876.045,760.000,750.000
1877.614,744.000,745.000
1879.181,744.000,751.000
1880.750,754.000,743.000
1882.318,756.000,754.000
1883.886,755.000,751.000
1885.454,755.000,745.000
1887.021,742.000,751.000
1888.587,756.000,751.000
1890.154,763.000,764.000
1891.720,755.000,766.000
1893.286,756.000,743.000
1894.852,749.000,759.000
1896.416,754.000,767.000
1897.982,763.000,767.000
1899.547,756.000,742.000
1901.111,747.000,762.000
1902.676,756.000,760.000
1904.240,757.000,763.000
1905.802,758.000,756.000
1907.366,755.000,760.000
1908.929,776.000,761.000
1910.492,750.000,768.000
1912.055,767.000,772.000
1913.618,758.000,775.000
1915.178,772.000,769.000
1916.740,766.000,772.000
1918.302,784.000,791.000
1919.863,779.000,772.000
1921.424,771.000,773.000
1922.985,753.000,763.000
1924.544,775.000,767.000
1926.104,767.000,762.000
1927.664,754.000,765.000
1929.223,756.000,767.000
1930.782,736.000,761.000
1932.341,745.000,738.000
1933.898,757.000,740.000
1935.457,742.000,738.000
1937.015,750.000,753.000
1938.573,757.000,758.000
1940.131,749.000,740.000
1941.688,753.000,751.000
1943.243,748.000,741.000
1944.800,766.000,743.000
1946.356,754.000,755.000
1947.912,775.000,760.000
1949.468,762.000,775.000
1951.022,757.000,749.000
1952.577,756.000,764.000
1954.132,754.000,759.000
1955.687,767.000,740.000
1957.241,746.000,767.000
1958.796,761.000,747.000
1960.348,752.000,757.000
1961.901,767.000,759.000
1963.455,770.000,761.000
1965.008,765.000,758.000
1966.560,748.000,748.000
1968.113,760.000,756.000
1969.663,754.000,746.000
1971.215,758.000,748.000
1972.766,757.000,754.000
1974.318,745.000,746.000
1975.869,746.000,762.000
1977.419,746.000,770.000
1978.968,747.000,746.000
1980.518,767.000,756.000
1982.068,757.000,755.000
1983.618,749.000,754.000
1985.167,756.000,758.000
1986.714,759.000,737.000
1988.263,759.000,763.000
1989.811,755.000,745.000
1991.359,753.000,753.000
1992.907,767.000,763.000
1994.455,762.000,754.000
1996.000,757.000,759.000
1997.547,758.000,763.000
1999.094,751.000,761.000
2000.640,763.000,745.000
2002.186,759.000,753.000
2003.732,760.000,767.000
2005.276,769.000,766.000
2006.821,751.000,754.000
2008.366,760.000,778.000
2009.911,756.000,764.000
2011.456,768.000,762.000
2013.000,760.000,760.000
2014.542,773.000,770.000
2016.085,759.000,754.000
2017.629,776.000,766.000
2019.172,757.000,754.000
2020.714,770.000,764.000
2022.257,770.000,770.000
2023.797,759.000,755.000
2025.339,765.000,768.000
2026.881,777.000,772.000
2028.422,757.000,773.000
2029.963,765.000,781.000
2031.504,765.000,765.000
2033.043,764.000,769.000
2034.583,766.000,758.000
2036.123,784.000,757.000
2037.662,779.000,772.000
2039.202,767.000,788.000
2040.739,771.000,765.000
2042.278,762.000,764.000
2043.816,768.000,771.000
2045.354,760.000,778.000
2046.892,776.000,772.000
2048.430,771.000,784.000
2049.966,769.000,765.000
2051.503,767.000,767.000
2053.039,759.000,761.000
2054.576,779.000,796.000
2056.112,772.000,762.000
2057.648,768.000,781.000
2059.182,775.000,779.000
2060.717,772.000,768.000
2062.252,780.000,770.000
2063.787,777.000,774.000
2065.322,782.000,791.000
2066.856,771.000,796.000
2068.388,784.000,785.000
2069.922,784.000,785.000
2071.455,784.000,782.000
2072.988,776.000,778.000
2074.521,779.000,781.000
2076.054,797.000,773.000
2077.584,781.000,800.000
2079.116,785.000,785.000
2080.648,783.000,790.000
2082.180,792.000,790.000
2083.711,802.000,797.000
2085.242,792.000,781.000
2086.771,797.000,800.000
2088.301,799.000,803.000
2089.831,786.000,781.000
2091.361,786.000,779.000
2092.890,778.000,786.000
2094.418,777.000,781.000
2095.947,790.000,766.000
2097.475,764.000,767.000
2099.003,773.000,788.000
2100.532,782.000,768.000
2102.059,782.000,784.000
2103.585,790.000,773.000
2105.112,793.000,794.000
2106.639,799.000,793.000
2108.166,793.000,796.000
2109.692,796.000,794.000
2111.219,796.000,792.000
2112.743,798.000,793.000
2114.268,785.000,808.000
2115.794,795.000,790.000
2117.319,811.000,815.000
2118.843,819.000,820.000
2120.368,819.000,807.000
2121.890,807.000,810.000
2123.414,802.000,819.000
2124.938,818.000,808.000
2126.461,816.000,823.000
2127.984,823.000,819.000
2129.505,819.000,806.000
2131.028,816.000,829.000
2132.550,821.000,826.000
2134.072,841.000,845.000
2135.594,829.000,810.000
2137.115,821.000,815.000
2138.634,827.000,834.000
2140.155,811.000,829.000
2141.676,823.000,824.000
2143.196,806.000,824.000
2144.716,819.000,825.000
2146.236,834.000,828.000
2147.753,831.000,815.000
2149.273,827.000,824.000
2150.792,828.000,828.000
2152.310,849.000,828.000
2153.828,827.000,831.000
2155.347,823.000,828.000
2156.863,831.000,824.000
2158.380,846.000,830.000
2159.897,824.000,831.000
2161.414,837.000,843.000
2162.931,832.000,830.000
2164.447,835.000,840.000
2165.962,842.000,827.000
2167.478,833.000,851.000
2168.993,840.000,819.000
2170.509,831.000,835.000
2172.024,845.000,844.000
2173.538,852.000,863.000
2175.051,836.000,824.000
2176.565,851.000,846.000
2178.079,843.000,853.000
2179.593,827.000,854.000
2181.106,859.000,851.000
2182.618,850.000,840.000
2184.130,856.000,860.000
2185.643,861.000,859.000
2187.155,870.000,867.000
2188.667,875.000,884.000
2190.179,858.000,870.000
2191.689,881.000,888.000
2193.200,885.000,884.000
2194.711,891.000,879.000
2196.221,924.000,902.000
2197.732,926.000,909.000
2199.242,898.000,912.000
2200.750,946.000,924.000
2202.259,920.000,933.000
2203.769,914.000,950.000
2205.277,903.000,927.000
2206.786,930.000,927.000
2208.295,903.000,921.000
2209.801,903.000,916.000
2211.309,908.000,923.000
2212.817,910.000,920.000
2214.324,926.000,875.000
2215.831,904.000,917.000
2217.338,901.000,912.000
2218.842,914.000,897.000
2220.349,903.000,901.000
2221.855,895.000,882.000
2223.360,894.000,885.000
2224.866,897.000,883.000
2226.371,870.000,878.000
2227.874,882.000,866.000
2229.379,869.000,865.000
2230.883,873.000,849.000
2232.387,870.000,856.000
2233.891,857.000,866.000
2235.393,848.000,877.000
2236.896,862.000,859.000
2238.399,879.000,859.000
2239.901,864.000,857.000
2241.404,845.000,843.000
2242.906,857.000,874.000
2244.406,851.000,852.000
2245.908,867.000,844.000
2247.409,857.000,870.000
2248.910,865.000,850.000
2250.411,846.000,858.000
2251.911,858.000,855.000
2253.410,868.000,879.000
2254.910,863.000,846.000
2256.409,869.000,858.000
2257.909,846.000,863.000
2259.408,851.000,861.000
2260.907,848.000,845.000
2262.404,850.000,834.000
2263.902,841.000,843.000
2265.400,836.000,837.000
2266.898,837.000,843.000
2268.395,838.000,851.000
2269.891,819.000,831.000
2271.388,833.000,826.000
2272.885,838.000,846.000
2274.381,834.000,831.000
2275.877,838.000,835.000
2277.373,827.000,832.000
2278.867,855.000,833.000
2280.362,843.000,846.000
2281.857,836.000,824.000
2283.352,846.000,833.000
2284.847,846.000,838.000
2286.341,858.000,836.000
2287.833,837.000,827.000
2289.327,854.000,840.000
2290.820,824.000,834.000
2292.314,834.000,848.000
2293.806,841.000,828.000
2295.299,836.000,820.000
2296.790,836.000,834.000
2298.282,816.000,840.000
2299.774,817.000,820.000
2301.265,830.000,845.000
2302.757,831.000,818.000
2304.248,820.000,841.000
2305.737,825.000,846.000
2307.227,834.000,840.000
2308.717,846.000,813.000
2310.207,827.000,818.000
2311.697,844.000,828.000
2313.186,856.000,845.000
2314.674,839.000,839.000
2316.163,851.000,843.000
2317.651,847.000,856.000
2319.140,845.000,835.000
2320.628,844.000,841.000
2322.114,844.000,842.000
2323.601,847.000,854.000
2325.089,862.000,835.000
2326.575,854.000,859.000
2328.062,844.000,850.000
2329.549,848.000,867.000
2331.033,843.000,866.000
2332.519,859.000,870.000
2334.005,873.000,886.000
2335.490,897.000,898.000
2336.975,882.000,888.000
2338.460,852.000,864.000
2339.943,868.000,873.000
2341.427,868.000,875.000
2342.911,851.000,860.000
2344.395,854.000,863.000
2345.879,874.000,853.000
2347.362,836.000,862.000
2348.843,854.000,865.000
2350.326,847.000,847.000
2351.808,860.000,849.000
2353.290,834.000,832.000
2354.772,854.000,829.000
2356.252,838.000,850.000
2357.734,843.000,846.000
2359.215,812.000,838.000
2360.695,821.000,843.000
2362.176,824.000,838.000
2363.656,833.000,841.000
2365.136,845.000,861.000
2366.614,825.000,828.000
2368.094,837.000,847.000
2369.573,826.000,832.000
2371.052,837.000,840.000
2372.531,831.000,833.000
2374.008,850.000,850.000
2375.486,836.000,848.000
2376.964,825.000,843.000
2378.441,824.000,852.000
2379.919,835.000,835.000
2381.396,849.000,855.000
2382.871,846.000,845.000
2384.347,844.000,832.000
2385.824,840.000,851.000
2387.300,855.000,833.000
2388.776,827.000,819.000
2390.251,847.000,846.000
2391.725,842.000,836.000
2393.200,839.000,850.000
2394.674,851.000,848.000
2396.149,845.000,843.000
2397.623,846.000,857.000
2399.097,853.000,852.000
2400.569,857.000,850.000
2402.042,857.000,868.000
2403.515,871.000,852.000
2404.988,870.000,872.000
2406.461,863.000,884.000
2407.932,864.000,871.000
2409.404,883.000,892.000
2410.875,875.000,903.000
2412.347,893.000,882.000
2413.818,901.000,905.000
2415.289,889.000,886.000
2416.758,901.000,889.000
2418.229,897.000,899.000
2419.699,923.000,910.000
2421.169,903.000,902.000
2422.639,881.000,902.000
2424.108,886.000,883.000
2425.576,904.000,903.000
2427.044,887.000,921.000
2428.513,908.000,911.000
2429.981,917.000,903.000
2431.450,910.000,915.000
2432.917,920.000,936.000
2434.383,906.000,906.000
2435.851,929.000,910.000
2437.318,942.000,906.000
2438.784,926.000,949.000
2440.251,908.000,930.000
2441.717,925.000,918.000
2443.182,922.000,930.000
2444.647,916.000,926.000
2446.113,904.000,922.000
2447.578,902.000,906.000
2449.043,907.000,924.000
2450.508,926.000,907.000
2451.970,906.000,886.000
2453.435,891.000,907.000
2454.899,895.000,925.000
2456.362,887.000,902.000
2457.826,890.000,898.000
2459.287,927.000,888.000
2460.750,912.000,897.000
2462.212,943.000,906.000
2463.675,903.000,890.000
2465.137,899.000,910.000
2466.599,902.000,880.000
2468.059,881.000,903.000
2469.520,912.000,896.000
2470.981,910.000,922.000
2472.442,927.000,925.000
2473.902,912.000,924.000
2475.362,914.000,905.000
2476.821,913.000,905.000
2478.280,926.000,926.000
2479.740,925.000,924.000
2481.199,925.000,906.000
2482.658,940.000,924.000
2484.117,958.000,947.000
2485.573,945.000,923.000
2487.032,934.000,927.000
2488.489,922.000,919.000
2489.947,912.000,902.000
2491.404,898.000,911.000
2492.860,921.000,1302.000
2494.317,896.000,1209.000
2495.773,914.000,940.000
2497.230,901.000,927.000
2498.686,905.000,893.000
2500.142,921.000,918.000
2501.597,917.000,923.000
2503.051,911.000,900.000
2504.506,929.000,908.000
2505.961,916.000,908.000
2507.415,907.000,908.000
2508.869,908.000,907.000
2510.322,922.000,934.000
2511.775,941.000,945.000
2513.229,929.000,928.000
2514.682,909.000,938.000
2516.135,937.000,930.000
2517.588,950.000,928.000
2519.038,932.000,929.000
2520.491,952.000,931.000
2521.943,941.000,970.000
2523.394,941.000,946.000
2524.846,951.000,994.000
2526.297,958.000,956.000
2527.746,965.000,976.000
2529.197,981.000,989.000
2530.647,966.000,959.000
2532.097,969.000,965.000
2533.547,1001.000,959.000
2534.996,984.000,997.000
2536.444,991.000,1008.000
2537.893,975.000,975.000
2539.342,988.000,986.000
2540.791,1011.000,1023.000
2542.239,1002.000,1010.000
2543.685,1031.000,1001.000
2545.133,1032.000,1025.000
2546.581,1022.000,1036.000
2548.028,1004.000,1060.000
2549.475,1037.000,1022.000
2550.922,1066.000,1065.000
2552.366,1078.000,1062.000
2553.813,1065.000,1050.000
2555.259,1093.000,1065.000
2556.704,1086.000,1091.000
2558.150,1091.000,1109.000
2559.595,1090.000,1087.000
2561.038,1078.000,1106.000
2562.483,1090.000,1112.000
2563.928,1122.000,1126.000
2565.372,1110.000,1104.000
2566.816,1095.000,1110.000
2568.259,1107.000,1105.000
2569.701,1115.000,1127.000
2571.144,1091.000,1096.000
2572.587,1082.000,1105.000
2574.030,1084.000,1103.000
2575.472,1076.000,1106.000
2576.914,1085.000,1079.000
2578.354,1085.000,1101.000
2579.796,1110.000,1091.000
2581.237,1106.000,1090.000
2582.679,1119.000,1142.000
2584.119,1138.000,1521.000
2585.560,1132.000,1263.000
2586.999,1167.000,1172.000
2588.439,1157.000,1192.000
2589.879,1176.000,1189.000
2591.318,1225.000,1246.000
2592.757,1244.000,1224.000
2594.195,1264.000,1255.000
2595.634,1255.000,1249.000
2597.072,1311.000,1268.000
2598.510,1284.000,1318.000
2599.948,1326.000,1306.000
2601.386,1300.000,1343.000
2602.822,1319.000,1355.000
2604.259,1361.000,1372.000
2605.696,1330.000,1350.000
2607.133,1370.000,1334.000
2608.570,1385.000,1392.000
2610.006,1400.000,1375.000
2611.440,1322.000,1392.000
2612.876,1358.000,1368.000
2614.312,1389.000,1420.000
2615.747,1348.000,1373.000
2617.182,1317.000,1347.000
2618.616,1330.000,1374.000
2620.049,1356.000,1328.000
2621.483,1349.000,1361.000
2622.917,1337.000,1328.000
2624.351,1381.000,1356.000
2625.785,1359.000,1357.000
2627.216,1351.000,1307.000
2628.649,1292.000,1338.000
2630.082,1321.000,1312.000
2631.514,1366.000,1332.000
2632.946,1342.000,1325.000
2634.378,1317.000,1336.000
2635.810,1327.000,1327.000
2637.240,1337.000,1344.000
2638.671,1342.000,1349.000
2640.102,1348.000,1336.000
2641.532,1322.000,1365.000
2642.963,1387.000,1377.000
2644.391,1372.000,1352.000
2645.821,1328.000,1367.000
2647.251,1338.000,1377.000
2648.680,1383.000,1399.000
2650.109,1358.000,1403.000
2651.538,1329.000,1348.000
2652.965,1380.000,1382.000
2654.394,1401.000,1432.000
2655.822,1430.000,1421.000
2657.250,1407.000,1428.000
2658.677,1458.000,1445.000
2660.105,1453.000,1452.000
2661.530,1442.000,1467.000
2662.957,1480.000,1446.000
2664.384,1494.000,1483.000
2665.810,1541.000,1527.000
2667.236,1515.000,1526.000
2668.662,1514.000,1508.000
2670.086,1524.000,1543.000
2671.511,1568.000,1575.000
2672.936,1571.000,1622.000
2674.361,1587.000,1572.000
2675.786,1619.000,1623.000
2677.209,1572.000,1639.000
2678.633,1607.000,1605.000
2680.057,1589.000,1609.000
2681.480,1640.000,1619.000
2682.903,1685.000,1672.000
2684.327,1663.000,1656.000
2685.748,1659.000,1610.000
2687.170,1709.000,1715.000
2688.593,1737.000,1799.000
2690.015,1766.000,1762.000
2691.437,1814.000,1769.000
2692.858,1804.000,1869.000
2694.278,1866.000,1842.000
2695.699,1904.000,1871.000
2697.120,1904.000,1881.000
2698.540,1979.000,1948.000
2699.961,2008.000,1994.000
2701.381,1959.000,1964.000
2702.799,1968.000,1976.000
2704.219,1981.000,2057.000
2705.638,2069.000,2067.000
2707.057,2058.000,2018.000
2708.476,2055.000,2059.000
2709.894,2058.000,2122.000
2711.311,2116.000,2116.000
2712.729,2162.000,2138.000
2714.147,2149.000,2175.000
2715.565,2175.000,2157.000
2716.982,2232.000,2211.000
2718.399,2286.000,2215.000
2719.814,2224.000,2235.000
2721.231,2317.000,2333.000
2722.647,2354.000,2378.000
2724.063,2407.000,2407.000
2725.479,2356.000,2383.000
2726.893,2438.000,2448.000
2728.308,2451.000,2481.000
2729.723,2453.000,2471.000
2731.138,2525.000,2489.000
2732.553,2591.000,2567.000
2733.967,2576.000,2613.000
2735.380,2661.000,2585.000
2736.793,2576.000,2598.000
2738.207,2658.000,2678.000
2739.620,2659.000,2756.000
2741.033,2741.000,2744.000
2742.446,2732.000,2798.000
2743.857,2819.000,2807.000
2745.270,2933.000,2900.000
2746.682,2883.000,2871.000
2748.093,2839.000,2867.000
2749.505,2893.000,2856.000
2750.916,2808.000,2811.000
2752.326,2784.000,2713.000
2753.737,2718.000,2681.000
2755.147,2617.000,2590.000
2756.558,2575.000,2579.000
2757.968,2500.000,2519.000
2759.376,2405.000,2442.000
2760.786,2393.000,2386.000
2762.195,2351.000,2331.000
2763.604,2303.000,2324.000
2765.013,2235.000,2300.000
2766.422,2221.000,2215.000
2767.830,2183.000,2535.000
2769.237,2226.000,2193.000
2770.644,2122.000,2163.000
2772.052,2109.000,2085.000
2773.459,2089.000,2084.000
2774.867,2044.000,2058.000
2776.272,2073.000,2068.000
2777.679,2007.000,1994.000
2779.085,2018.000,2007.000
2780.491,1962.000,1964.000
2781.897,1919.000,1927.000
2783.303,1910.000,1924.000
2784.706,1925.000,1921.000
2786.112,1946.000,1879.000
2787.517,1877.000,1853.000
2788.921,1845.000,1879.000
2790.326,1889.000,1866.000
2791.730,1869.000,1858.000
2793.132,1901.000,1854.000
2794.536,1855.000,1862.000
2795.939,1879.000,1884.000
2797.342,1872.000,1906.000
2798.745,1919.000,1915.000
2800.148,1935.000,1928.000
2801.549,1971.000,1944.000
2802.951,1992.000,1979.000
2804.353,1985.000,1943.000
2805.755,2008.000,2052.000
2807.156,2072.000,2054.000
2808.556,2102.000,2104.000
2809.957,2110.000,2143.000
2811.358,2238.000,2221.000
2812.758,2278.000,2322.000
2814.158,2336.000,2367.000
2815.558,2448.000,2454.000
2816.957,2547.000,2533.000
2818.356,2697.000,2677.000
2819.755,2832.000,2776.000
2821.154,2838.000,2766.000
2822.553,2936.000,2971.000
2823.952,3015.000,3329.000
2825.348,3109.000,3196.000
2826.746,3217.000,3202.000
2828.144,3244.000,3286.000
2829.542,3340.000,3385.000
2830.939,3343.000,3374.000
2832.336,3452.000,3438.000
2833.731,3625.000,3553.000
2835.128,3800.000,3847.000
2836.524,3943.000,4034.000
2837.920,4109.000,4030.000
2839.316,4378.000,4303.000
2840.712,4751.000,4615.000
2842.106,5034.000,5070.000
2843.501,5571.000,5576.000
2844.896,6313.000,6299.000
2846.290,7238.000,7266.000
2847.684,8206.000,8295.000
2849.079,9491.000,9521.000
2850.471,11304.000,11263.000
2851.865,13124.000,13224.000
2853.258,14857.000,15045.000
2854.651,16420.000,16537.000
2856.044,17800.000,17623.000
2857.435,19148.000,19112.000
2858.828,19723.000,19731.000
2860.220,20138.000,19833.000
2861.612,20405.000,20090.000
2863.003,20784.000,20643.000
2864.395,20919.000,20889.000
2865.784,21049.000,21000.000
2867.175,21610.000,21512.000
2868.566,22638.000,22694.000
2869.957,23120.000,23121.000
2871.347,23153.000,22958.000
2872.737,23472.000,23270.000
2874.125,24256.000,24369.000
2875.515,24935.000,24882.000
2876.904,24312.000,24410.000
2878.293,24090.000,24116.000
2879.682,24696.000,24733.000
2881.070,24310.000,24217.000
2882.457,23611.000,23666.000
2883.845,23419.000,23433.000
2885.233,23137.000,23235.000
2886.620,23022.000,22990.000
2888.008,22282.000,22232.000
2889.393,22126.000,22236.000
2890.780,23029.000,22978.000
2892.167,23439.000,23594.000
2893.553,24309.000,24197.000
2894.939,25328.000,25386.000
2896.325,26816.000,26928.000
2897.711,29037.000,28940.000
2899.095,31018.000,31205.000
2900.480,33174.000,33249.000
2901.865,35719.000,35740.000
2903.249,36825.000,36967.000
2904.634,36385.000,36618.000
2906.016,35492.000,35587.000
2907.400,34775.000,34682.000
2908.784,34342.000,34100.000
2910.167,32958.000,32810.000
2911.551,31184.000,31222.000
2912.934,30723.000,30998.000
2914.315,30348.000,30182.000
2915.697,29348.000,29406.000
2917.080,28536.000,28518.000
2918.462,28062.000,28155.000
2919.843,28073.000,28082.000
2921.225,27208.000,27286.000
2922.605,26819.000,26592.000
2923.986,27333.000,27435.000
2925.367,28117.000,28054.000
2926.747,28277.000,28308.000
2928.128,28379.000,28281.000
2929.508,28801.000,28941.000
2930.886,30182.000,29464.000
2932.266,30430.000,29287.000
2933.645,30118.000,28601.000
2935.024,29389.000,27955.000
2936.403,27305.000,27459.000
2937.780,26690.000,26710.000
2939.159,25353.000,25210.000
2940.537,24211.000,24369.000
2941.915,23715.000,23582.000
2943.292,22969.000,22678.000
2944.670,21165.000,21176.000
2946.046,19718.000,19847.000
2947.423,19092.000,19070.000
2948.799,18359.000,18219.000
2950.176,17195.000,17125.000
2951.552,16095.000,15958.000
2952.928,15522.000,15462.000
2954.302,14852.000,14908.000
2955.678,13960.000,13926.000
2957.053,13162.000,13251.000
2958.428,12875.000,12993.000
2959.803,12562.000,12504.000
2961.178,11787.000,11840.000
2962.551,11402.000,11380.000
2963.925,11105.000,11149.000
2965.299,10826.000,10896.000
2966.672,10463.000,10439.000
2968.046,9849.000,9893.000
2969.419,9555.000,9642.000
2970.790,9255.000,9239.000
2972.163,8801.000,8820.000
2973.535,8305.000,8286.000
2974.908,7857.000,7710.000
2976.279,7499.000,7522.000
2977.651,7099.000,7149.000
2979.021,6708.000,6787.000
2980.392,6305.000,6308.000
2981.763,6188.000,6125.000