File: Raman/2022_11_26/Data/2022_11_26_Nylon6_532nm_Pol_6mW_750mm_600gv_1200wn_iDus_100s_10accum_Pos1.csv
282.050,1443.000,1415.000,1461.000,1422.000,1422.000,1447.000,1435.000,1431.000,1417.000,1406.000
285.818,1475.000,1426.000,1467.000,1436.000,1454.000,1459.000,1458.000,1464.000,1458.000,1455.000
289.584,1515.000,1507.000,1501.000,1503.000,1506.000,1475.000,1492.000,1474.000,1512.000,1469.000
293.346,1560.000,1527.000,1515.000,1560.000,1505.000,1522.000,1536.000,1498.000,1521.000,1502.000
297.109,1469.000,1451.000,1482.000,1507.000,1458.000,1451.000,1451.000,1474.000,1467.000,1417.000
300.870,1440.000,1433.000,1386.000,1419.000,1415.000,1427.000,1394.000,1407.000,1427.000,1436.000
304.630,1409.000,1401.000,1404.000,1408.000,1409.000,1409.000,1399.000,1388.000,1919.000,1375.000
308.388,1357.000,1379.000,1378.000,1372.000,1345.000,1361.000,1381.000,1354.000,1330.000,1361.000
312.143,1344.000,1355.000,1331.000,1312.000,1337.000,1369.000,1335.000,1360.000,1384.000,1350.000
315.898,1337.000,1382.000,1342.000,1349.000,1338.000,1325.000,1376.000,1330.000,1306.000,1347.000
319.652,1321.000,1309.000,1293.000,1304.000,1293.000,1276.000,1286.000,1297.000,1267.000,1312.000
323.404,1274.000,1279.000,1283.000,1272.000,1284.000,1310.000,1269.000,1296.000,1253.000,1268.000
327.155,1252.000,1291.000,1271.000,1279.000,1253.000,1278.000,1268.000,1275.000,1260.000,1274.000
330.902,1257.000,1293.000,1238.000,1225.000,1275.000,1264.000,1283.000,1253.000,1256.000,1242.000
334.650,1253.000,1258.000,1232.000,1247.000,1244.000,1236.000,1239.000,1247.000,1262.000,1215.000
338.396,1277.000,1223.000,1256.000,1278.000,1255.000,1254.000,1234.000,1249.000,1223.000,1265.000
342.140,1232.000,1242.000,1254.000,1235.000,1233.000,1187.000,1214.000,1223.000,1215.000,1206.000
345.883,1218.000,1225.000,1214.000,1219.000,1210.000,1222.000,1217.000,1193.000,1216.000,1241.000
349.623,1223.000,1203.000,1223.000,1220.000,1198.000,1175.000,1204.000,1202.000,1204.000,1207.000
353.363,1184.000,1174.000,1174.000,1176.000,1171.000,1186.000,1169.000,1196.000,1152.000,1187.000
357.101,1192.000,1175.000,1166.000,1171.000,1167.000,1188.000,1175.000,1160.000,1167.000,1172.000
360.838,1198.000,1221.000,1204.000,1205.000,1218.000,1208.000,1184.000,1187.000,1173.000,1194.000
364.574,1227.000,1234.000,1233.000,1214.000,1247.000,1242.000,1249.000,1210.000,1228.000,1202.000
368.306,1249.000,1286.000,1254.000,1274.000,1262.000,1258.000,1250.000,1241.000,1221.000,1228.000
372.038,1248.000,1259.000,1207.000,1233.000,1209.000,1212.000,1215.000,1232.000,1212.000,1223.000
375.769,1173.000,1133.000,1133.000,1118.000,1152.000,1132.000,1182.000,1128.000,1116.000,1143.000
379.499,1111.000,1091.000,1066.000,1080.000,1113.000,1111.000,1094.000,1092.000,1108.000,1109.000
383.226,1048.000,1075.000,1071.000,1094.000,1073.000,1059.000,1073.000,1086.000,1052.000,1071.000
386.951,1083.000,1068.000,1065.000,1035.000,1030.000,1059.000,1036.000,1046.000,1062.000,1037.000
390.676,1053.000,1034.000,1063.000,1023.000,1025.000,1035.000,1038.000,1040.000,1049.000,1003.000
394.399,1047.000,1052.000,1076.000,1055.000,1032.000,1049.000,1058.000,1067.000,1033.000,1042.000
398.121,1048.000,1060.000,1015.000,1023.000,1048.000,1024.000,1021.000,1053.000,1050.000,1034.000
401.841,997.000,1014.000,1024.000,1035.000,1021.000,997.000,1022.000,995.000,1021.000,991.000
405.560,1052.000,1041.000,1001.000,1013.000,1000.000,982.000,1012.000,1018.000,1016.000,999.000
409.276,1025.000,1006.000,997.000,1012.000,1014.000,986.000,980.000,991.000,991.000,1005.000
412.991,1032.000,1010.000,1031.000,1003.000,1002.000,1000.000,998.000,979.000,990.000,987.000
416.706,1028.000,1012.000,991.000,1005.000,1015.000,1020.000,1017.000,1010.000,1021.000,1013.000
420.419,1031.000,1039.000,1020.000,1013.000,1046.000,1050.000,1007.000,1008.000,1039.000,1040.000
424.130,1063.000,1067.000,1042.000,1057.000,1059.000,1064.000,1038.000,1044.000,1048.000,1031.000
427.838,1110.000,1093.000,1113.000,1095.000,1080.000,1105.000,1082.000,1085.000,1088.000,1096.000
431.546,1108.000,1107.000,1101.000,1090.000,1101.000,1110.000,1107.000,1106.000,1104.000,1086.000
435.253,1043.000,1057.000,1051.000,1057.000,1044.000,1038.000,1069.000,1052.000,1055.000,1056.000
438.959,1058.000,1058.000,1033.000,1043.000,1033.000,1026.000,1041.000,1031.000,1007.000,1021.000
442.662,1040.000,1009.000,1033.000,1045.000,1027.000,992.000,1015.000,1004.000,1046.000,995.000
446.363,1042.000,1053.000,1025.000,1017.000,1031.000,1043.000,1042.000,1030.000,1004.000,1017.000
450.064,1020.000,1030.000,1019.000,1014.000,1015.000,993.000,1016.000,978.000,1003.000,1013.000
453.763,992.000,987.000,968.000,996.000,988.000,984.000,968.000,965.000,970.000,972.000
457.461,971.000,1000.000,953.000,976.000,963.000,983.000,971.000,991.000,973.000,971.000
461.158,977.000,990.000,970.000,970.000,973.000,958.000,990.000,970.000,961.000,966.000
464.850,964.000,1005.000,957.000,1000.000,967.000,982.000,985.000,963.000,956.000,960.000
468.544,981.000,956.000,959.000,986.000,959.000,955.000,952.000,977.000,943.000,954.000
472.236,981.000,993.000,973.000,960.000,958.000,952.000,980.000,973.000,950.000,938.000
475.926,1000.000,982.000,972.000,957.000,950.000,950.000,942.000,953.000,963.000,948.000
479.615,975.000,987.000,981.000,952.000,959.000,956.000,953.000,930.000,961.000,937.000
483.301,975.000,978.000,982.000,982.000,985.000,952.000,960.000,963.000,950.000,936.000
486.987,992.000,984.000,969.000,985.000,959.000,979.000,983.000,981.000,940.000,959.000
490.671,992.000,988.000,989.000,976.000,991.000,995.000,986.000,968.000,982.000,985.000
494.354,1029.000,1044.000,1035.000,1025.000,1039.000,1018.000,1019.000,997.000,1017.000,1022.000
498.036,1053.000,1058.000,1063.000,1025.000,1015.000,1045.000,1029.000,1033.000,1037.000,1023.000
501.714,1056.000,1031.000,1057.000,1046.000,1007.000,1027.000,1045.000,1009.000,1040.000,1033.000
505.393,1057.000,1059.000,1052.000,1034.000,1072.000,1065.000,1039.000,1053.000,1032.000,1040.000
509.070,1066.000,1062.000,1039.000,1031.000,1056.000,1029.000,1069.000,1033.000,1029.000,1036.000
512.745,1056.000,1058.000,1044.000,1043.000,1038.000,1056.000,1037.000,1058.000,1016.000,1055.000
516.420,1095.000,1088.000,1088.000,1107.000,1095.000,1077.000,1057.000,1063.000,1075.000,1088.000
520.090,1139.000,1100.000,1131.000,1085.000,1105.000,1125.000,1103.000,1068.000,1084.000,1085.000
523.762,1104.000,1087.000,1120.000,1091.000,1097.000,1088.000,1114.000,1071.000,1094.000,1097.000
527.431,1120.000,1140.000,1113.000,1136.000,1121.000,1107.000,1093.000,1103.000,1097.000,1110.000
531.100,1160.000,1187.000,1169.000,1158.000,1137.000,1155.000,1147.000,1152.000,1131.000,1124.000
534.766,1215.000,1221.000,1190.000,1199.000,1200.000,1191.000,1203.000,1194.000,1203.000,1179.000
538.430,1552.000,1297.000,1302.000,1250.000,1278.000,1263.000,1262.000,1253.000,1279.000,1236.000
542.094,1207.000,1161.000,1173.000,1165.000,1179.000,1175.000,1162.000,1121.000,1173.000,1150.000
545.756,1053.000,1052.000,1053.000,1049.000,1021.000,1035.000,1057.000,1040.000,1024.000,1050.000
549.417,1010.000,992.000,998.000,1008.000,988.000,986.000,983.000,1001.000,993.000,986.000
553.076,1804.000,986.000,982.000,985.000,988.000,971.000,961.000,959.000,982.000,952.000
556.732,986.000,947.000,985.000,967.000,968.000,956.000,964.000,955.000,955.000,953.000
560.389,1012.000,1004.000,974.000,976.000,965.000,978.000,982.000,987.000,961.000,957.000
564.044,1012.000,1011.000,1036.000,1031.000,1027.000,1035.000,998.000,1004.000,1011.000,999.000
567.697,2105.000,1061.000,1098.000,1082.000,1058.000,1041.000,1079.000,1089.000,1038.000,1059.000
571.350,1189.000,1189.000,1167.000,1178.000,1176.000,1149.000,1176.000,1159.000,1144.000,1143.000
574.998,1286.000,1320.000,1313.000,1325.000,1335.000,1290.000,1315.000,1295.000,1307.000,1298.000
578.647,1418.000,1368.000,1374.000,1388.000,1795.000,1392.000,1359.000,1358.000,1367.000,1333.000
582.295,1408.000,1388.000,1381.000,1363.000,1404.000,1404.000,1383.000,1372.000,1361.000,1370.000
585.941,1405.000,1391.000,1380.000,1387.000,1398.000,1383.000,1406.000,1401.000,1373.000,1373.000
589.586,1384.000,1397.000,1374.000,1365.000,1388.000,1384.000,1386.000,1366.000,1367.000,1350.000
593.228,1389.000,1350.000,1340.000,1351.000,1336.000,1373.000,1331.000,1378.000,1348.000,1345.000
596.870,1415.000,1367.000,1360.000,1368.000,1388.000,1375.000,1361.000,1390.000,1385.000,1343.000
600.510,1364.000,1373.000,1386.000,1407.000,1354.000,1353.000,1362.000,1361.000,1358.000,1354.000
604.149,1357.000,1344.000,1339.000,1347.000,1298.000,1326.000,1312.000,1290.000,1333.000,1343.000
607.787,1353.000,1343.000,1315.000,1332.000,1329.000,1329.000,1332.000,1334.000,1309.000,1333.000
611.423,1294.000,1314.000,1305.000,1326.000,1325.000,1278.000,1292.000,1333.000,1290.000,1290.000
615.055,1320.000,1277.000,1262.000,1274.000,1278.000,1257.000,1286.000,1283.000,1286.000,1282.000
618.688,1295.000,1322.000,1289.000,1275.000,1268.000,1255.000,1264.000,1263.000,1289.000,1255.000
622.320,1290.000,1285.000,1277.000,1243.000,1261.000,1238.000,1274.000,1258.000,1270.000,1252.000
625.950,1232.000,1239.000,1219.000,1237.000,1225.000,1225.000,1253.000,1240.000,1247.000,1238.000
629.579,1263.000,1225.000,1253.000,1265.000,1243.000,1241.000,1239.000,1254.000,1239.000,1217.000
633.205,1228.000,1227.000,1237.000,1215.000,1210.000,1224.000,1216.000,1244.000,1226.000,1212.000
636.831,1224.000,1184.000,1195.000,1203.000,1739.000,1212.000,1184.000,1187.000,1198.000,1169.000
640.455,1184.000,1220.000,1185.000,1191.000,1210.000,1204.000,1176.000,1200.000,1186.000,1169.000
644.078,1148.000,1181.000,1168.000,1148.000,1159.000,1142.000,1173.000,1140.000,1133.000,1139.000
647.700,1138.000,1120.000,1111.000,1132.000,1109.000,1106.000,1105.000,1100.000,1118.000,1077.000
651.318,1148.000,1124.000,1109.000,1103.000,1086.000,1094.000,1088.000,1084.000,1100.000,1081.000
654.937,1107.000,1079.000,1082.000,1090.000,1082.000,1086.000,1092.000,1080.000,1084.000,1093.000
658.554,1091.000,1092.000,1097.000,1080.000,1081.000,1055.000,1061.000,1047.000,1062.000,1041.000
662.170,1090.000,1068.000,1096.000,1093.000,1070.000,1074.000,1064.000,1055.000,1056.000,1072.000
665.784,1105.000,1067.000,1075.000,1074.000,1083.000,1078.000,1060.000,1060.000,1056.000,1042.000
669.395,1117.000,1063.000,1091.000,1050.000,1069.000,1091.000,1089.000,1038.000,1053.000,1052.000
673.006,1093.000,1078.000,1060.000,1058.000,1059.000,1067.000,1045.000,1037.000,1050.000,1046.000
676.617,1088.000,1060.000,1056.000,1069.000,1069.000,1081.000,1064.000,1075.000,1046.000,1055.000
680.225,1089.000,1095.000,1097.000,1074.000,1070.000,1081.000,1055.000,1065.000,1073.000,1085.000
683.832,1093.000,1094.000,1095.000,1106.000,1077.000,1066.000,1081.000,1084.000,1094.000,1086.000
687.436,1131.000,1138.000,1143.000,1124.000,1125.000,1102.000,1085.000,1093.000,1098.000,1110.000
691.040,1149.000,1139.000,1119.000,1122.000,1139.000,1132.000,1151.000,1114.000,1139.000,1132.000
694.643,1163.000,1140.000,1143.000,1127.000,1129.000,1125.000,1113.000,1123.000,1125.000,1118.000
698.245,1184.000,1157.000,1169.000,1184.000,1151.000,1131.000,1128.000,1171.000,1162.000,1145.000
701.845,1240.000,1207.000,1219.000,1187.000,1181.000,1203.000,1193.000,1182.000,1193.000,1183.000
705.441,1212.000,1195.000,1212.000,1188.000,1197.000,1220.000,1197.000,1207.000,1240.000,1201.000
709.038,1285.000,1259.000,1261.000,1262.000,1291.000,1264.000,1232.000,1254.000,1235.000,1247.000
712.634,1316.000,1303.000,1267.000,1275.000,1278.000,1270.000,1253.000,1276.000,1283.000,1257.000
716.228,1278.000,1254.000,1216.000,1226.000,1233.000,1236.000,1232.000,1247.000,1224.000,1244.000
719.821,1252.000,1208.000,1229.000,1222.000,1219.000,1217.000,1203.000,1189.000,1185.000,1197.000
723.411,1251.000,1216.000,1240.000,1225.000,1238.000,1240.000,1210.000,1177.000,1201.000,1208.000
727.001,1237.000,1232.000,1221.000,1244.000,1243.000,1226.000,1221.000,1249.000,1246.000,1246.000
730.589,1319.000,1302.000,1289.000,1295.000,1297.000,1282.000,1286.000,1270.000,1272.000,1283.000
734.177,1352.000,1327.000,1320.000,1310.000,1348.000,1324.000,1282.000,1313.000,1290.000,1300.000
737.762,1310.000,1315.000,1310.000,1309.000,1313.000,1293.000,1320.000,1283.000,1302.000,1320.000
741.345,1305.000,1298.000,1309.000,1309.000,1313.000,1313.000,1307.000,1301.000,1277.000,1287.000
744.928,1272.000,1313.000,1303.000,1323.000,1302.000,1277.000,1296.000,1258.000,1276.000,1287.000
748.509,1294.000,1267.000,1275.000,1264.000,1242.000,1267.000,1242.000,1233.000,1223.000,1255.000
752.089,1256.000,1272.000,1233.000,1229.000,1229.000,1245.000,1222.000,1255.000,1226.000,1210.000
755.668,1261.000,1272.000,1279.000,1240.000,1251.000,1246.000,1242.000,1235.000,1246.000,1233.000
759.243,1268.000,1269.000,1297.000,1268.000,1291.000,1273.000,1288.000,1303.000,1290.000,1276.000
762.819,1361.000,1323.000,1314.000,1349.000,1322.000,1316.000,1297.000,1297.000,1311.000,1316.000
766.393,1475.000,1458.000,1387.000,1418.000,1411.000,1434.000,1431.000,1405.000,1404.000,1451.000
769.966,1540.000,1536.000,1541.000,1519.000,1531.000,1545.000,1497.000,1513.000,1494.000,1458.000
773.538,1343.000,1371.000,1375.000,1350.000,1326.000,1340.000,1347.000,1367.000,1315.000,1339.000
777.106,1280.000,1267.000,1260.000,1233.000,1249.000,1248.000,1246.000,1258.000,1198.000,1215.000
780.674,1236.000,1244.000,1244.000,1249.000,1248.000,1219.000,1239.000,1218.000,1240.000,1211.000
784.242,1238.000,1206.000,1189.000,1208.000,1189.000,1211.000,1220.000,1180.000,1162.000,1218.000
787.808,1233.000,1226.000,1237.000,1213.000,1225.000,1210.000,1202.000,1201.000,1205.000,1207.000
791.372,1250.000,1210.000,1249.000,1222.000,1213.000,1201.000,1198.000,1202.000,1215.000,1221.000
794.933,1221.000,1234.000,1213.000,1257.000,1202.000,1201.000,1224.000,1226.000,1223.000,1206.000
798.495,1242.000,1266.000,1234.000,1218.000,1258.000,1223.000,1209.000,1234.000,1226.000,1239.000
802.055,1277.000,1285.000,1247.000,1282.000,1260.000,1265.000,1255.000,1248.000,1247.000,1236.000
805.614,1298.000,1274.000,1292.000,1300.000,1249.000,1287.000,1258.000,1274.000,1288.000,1250.000
809.171,1307.000,1283.000,1301.000,1305.000,1289.000,1295.000,1294.000,1267.000,1285.000,1295.000
812.727,1350.000,1344.000,1371.000,1335.000,1331.000,1319.000,1327.000,1319.000,1280.000,1354.000
816.280,1390.000,1384.000,1365.000,1370.000,1400.000,1394.000,1372.000,1375.000,1358.000,1335.000
819.833,1464.000,1455.000,1473.000,1443.000,1415.000,1397.000,1440.000,1423.000,1434.000,1407.000
823.385,1545.000,1514.000,1512.000,1524.000,1534.000,1533.000,1502.000,1507.000,1485.000,1518.000
826.935,1658.000,1608.000,1580.000,1633.000,1580.000,1571.000,1591.000,1595.000,1597.000,7519.000
830.484,1630.000,1632.000,1642.000,1673.000,1660.000,1607.000,1651.000,1619.000,1632.000,1631.000
834.030,1742.000,1695.000,1685.000,1711.000,1697.000,1704.000,1688.000,1707.000,1723.000,1710.000
837.576,1767.000,1825.000,1804.000,1765.000,1802.000,1824.000,1801.000,1815.000,1779.000,1772.000
841.121,1792.000,1801.000,1753.000,1804.000,1764.000,1763.000,1782.000,1739.000,1717.000,1804.000
844.665,1795.000,1759.000,1712.000,1778.000,1774.000,1759.000,1741.000,1739.000,1749.000,1733.000
848.207,1751.000,1691.000,1720.000,1736.000,1718.000,1698.000,1725.000,1719.000,1711.000,1702.000
851.745,1668.000,1677.000,1641.000,1675.000,1649.000,1640.000,1643.000,1624.000,1658.000,1642.000
855.284,1642.000,1671.000,1662.000,1635.000,1625.000,1598.000,1680.000,1632.000,1638.000,1619.000
858.822,1667.000,1683.000,1656.000,1662.000,1655.000,1705.000,1631.000,1665.000,1672.000,1644.000
862.359,1719.000,1724.000,1701.000,1690.000,1707.000,1700.000,1681.000,1723.000,1667.000,1669.000
865.894,1754.000,1762.000,1698.000,1756.000,1732.000,1781.000,1727.000,1746.000,1715.000,1734.000
869.425,1870.000,1830.000,1840.000,1858.000,1812.000,1831.000,1831.000,1819.000,1783.000,1831.000
872.958,1914.000,1899.000,1870.000,1878.000,1924.000,1858.000,1870.000,1838.000,1868.000,1877.000
876.488,1936.000,1949.000,1904.000,1968.000,1902.000,1940.000,1915.000,1950.000,1924.000,1950.000
880.018,2029.000,2002.000,2016.000,1976.000,1966.000,1986.000,2024.000,1966.000,1986.000,1954.000
883.546,2005.000,2005.000,1999.000,2019.000,2028.000,2061.000,1994.000,2009.000,2017.000,1960.000
887.071,2024.000,1993.000,2022.000,2019.000,1966.000,2000.000,1983.000,1988.000,1947.000,1983.000
890.596,2078.000,2049.000,2003.000,2085.000,1992.000,1992.000,1983.000,1996.000,1995.000,2005.000
894.120,2027.000,2072.000,2041.000,2069.000,2031.000,2051.000,2037.000,2071.000,2043.000,2006.000
897.642,2002.000,2056.000,2023.000,2022.000,2028.000,2018.000,2012.000,2003.000,2019.000,2025.000
901.164,2058.000,2079.000,2078.000,2022.000,2023.000,2010.000,2024.000,2050.000,2036.000,2035.000
904.681,3018.000,2152.000,2165.000,2147.000,2161.000,2143.000,2196.000,2116.000,2136.000,2090.000
908.200,2247.000,2266.000,2207.000,2258.000,2230.000,2232.000,2231.000,2206.000,2241.000,2223.000
911.717,2363.000,2346.000,2328.000,2325.000,2323.000,2330.000,2289.000,2332.000,2327.000,2335.000
915.232,5739.000,2535.000,2544.000,2520.000,2528.000,2494.000,2534.000,2528.000,2502.000,2544.000
918.747,2648.000,2673.000,3147.000,2666.000,2585.000,2677.000,2648.000,2666.000,2647.000,2671.000
922.257,2999.000,2924.000,2967.000,2938.000,2926.000,2964.000,2948.000,2936.000,2954.000,2965.000
925.769,3714.000,3658.000,3618.000,3622.000,3639.000,3686.000,3652.000,3837.000,3590.000,3652.000
929.279,4008.000,4051.000,4022.000,4083.000,4013.000,4014.000,4051.000,4020.000,4007.000,4011.000
932.788,3300.000,3221.000,3227.000,3253.000,3200.000,3232.000,3304.000,3225.000,3208.000,3225.000
936.295,2456.000,2538.000,2508.000,2528.000,2488.000,2462.000,2497.000,2444.000,2455.000,2425.000
939.799,2282.000,2239.000,2253.000,2210.000,2203.000,2241.000,2210.000,2195.000,2215.000,2230.000
943.304,2157.000,2162.000,2149.000,2117.000,2142.000,2066.000,2114.000,2118.000,2143.000,2157.000
946.807,2186.000,2190.000,2150.000,2156.000,2152.000,2158.000,2116.000,2108.000,2153.000,2135.000
950.309,2304.000,2311.000,2321.000,2334.000,2285.000,2304.000,2255.000,2315.000,2288.000,2332.000
953.809,2263.000,2245.000,2262.000,2246.000,2259.000,2288.000,2215.000,2204.000,2216.000,2218.000
957.306,2197.000,2168.000,2200.000,2179.000,2126.000,2151.000,2179.000,2121.000,2129.000,2177.000
960.804,2201.000,2208.000,2192.000,2189.000,2218.000,2180.000,2165.000,2183.000,2160.000,2178.000
964.300,2253.000,2216.000,2184.000,2212.000,2175.000,2186.000,2173.000,2177.000,2154.000,2181.000
967.795,2278.000,2226.000,2234.000,2224.000,2229.000,2213.000,2203.000,2232.000,2223.000,2233.000
971.289,2246.000,2295.000,2247.000,2259.000,2266.000,2225.000,2301.000,2235.000,2216.000,2204.000
974.779,2213.000,2171.000,2203.000,2207.000,2224.000,2199.000,2169.000,2175.000,2201.000,2149.000
978.270,2137.000,2117.000,2098.000,2120.000,2173.000,2130.000,2131.000,2085.000,2089.000,2064.000
981.759,2056.000,2025.000,2053.000,2069.000,2039.000,2075.000,2022.000,2020.000,2032.000,2031.000
985.248,1980.000,1975.000,1926.000,1917.000,1898.000,1885.000,1935.000,1879.000,1881.000,1910.000
988.734,1857.000,1807.000,1814.000,1840.000,1799.000,1817.000,1763.000,1782.000,1783.000,1805.000
992.218,1824.000,1818.000,1841.000,1799.000,1800.000,1779.000,1815.000,1792.000,1777.000,1795.000
995.702,2014.000,2049.000,1975.000,1981.000,1960.000,1972.000,1978.000,1964.000,1926.000,1942.000
999.184,2024.000,1992.000,1972.000,1961.000,1987.000,2008.000,1990.000,1939.000,1951.000,2011.000
1002.666,1768.000,1761.000,1760.000,1794.000,1771.000,1728.000,1804.000,1768.000,1710.000,1768.000
1006.146,1731.000,1751.000,1754.000,1678.000,1738.000,1674.000,1685.000,1719.000,1670.000,1710.000
1009.622,1687.000,1709.000,1669.000,1663.000,1635.000,1681.000,1695.000,1659.000,1665.000,1641.000
1013.100,1692.000,1682.000,1688.000,1692.000,1667.000,1681.000,1662.000,1639.000,1663.000,1674.000
1016.575,1718.000,1727.000,1774.000,1698.000,1751.000,1736.000,1700.000,1720.000,1731.000,1739.000
1020.050,1701.000,1674.000,1726.000,1716.000,1701.000,1672.000,1705.000,1706.000,1713.000,1666.000
1023.523,1763.000,1760.000,1740.000,1732.000,1757.000,1707.000,1739.000,1751.000,1724.000,1707.000
1026.993,1813.000,1837.000,1788.000,1851.000,1826.000,1811.000,1789.000,1814.000,1850.000,1801.000
1030.463,2021.000,1948.000,1965.000,1950.000,1998.000,1959.000,1946.000,1946.000,1927.000,1932.000
1033.932,2203.000,2161.000,2181.000,2137.000,2193.000,2125.000,2173.000,2163.000,2160.000,2197.000
1037.400,2320.000,2282.000,2304.000,2314.000,2271.000,2309.000,2275.000,2290.000,2217.000,2298.000
1040.867,2275.000,2237.000,2234.000,2333.000,2260.000,2267.000,2196.000,2251.000,2209.000,2259.000
1044.332,2413.000,2411.000,2395.000,2388.000,2367.000,2380.000,2315.000,2394.000,2334.000,2345.000
1047.793,2774.000,2793.000,2776.000,2803.000,2757.000,2773.000,2793.000,2744.000,2750.000,2747.000
1051.256,3733.000,3778.000,3745.000,3752.000,3761.000,3739.000,3727.000,3703.000,3723.000,3720.000
1054.717,5146.000,5138.000,5158.000,5067.000,5225.000,5082.000,5084.000,5108.000,5047.000,5093.000
1058.176,5576.000,5616.000,5695.000,5680.000,5669.000,5641.000,5624.000,5645.000,5653.000,5647.000
1061.634,5173.000,5137.000,5115.000,5095.000,5112.000,5139.000,5103.000,5048.000,5143.000,5166.000
1065.089,4600.000,4688.000,4563.000,4588.000,4574.000,4611.000,4587.000,4643.000,4497.000,4585.000
1068.545,4784.000,4761.000,4767.000,4750.000,4765.000,4806.000,4791.000,4724.000,4778.000,4808.000
1071.999,4891.000,4859.000,4981.000,4945.000,4955.000,4911.000,4946.000,4981.000,4840.000,4948.000
1075.452,4596.000,4632.000,4620.000,4605.000,4572.000,4538.000,4551.000,4525.000,4470.000,4546.000
1078.904,4101.000,4162.000,4097.000,4081.000,4059.000,4061.000,4112.000,4017.000,4086.000,4049.000
1082.352,3590.000,3594.000,3529.000,3565.000,3592.000,3617.000,3596.000,3553.000,3549.000,3578.000
1085.801,3315.000,3374.000,3318.000,3284.000,3325.000,3362.000,3383.000,3357.000,3371.000,3291.000
1089.248,3178.000,3128.000,3141.000,3108.000,3139.000,3127.000,3147.000,3125.000,3085.000,3184.000
1092.694,2905.000,2920.000,2879.000,2909.000,2889.000,2928.000,2849.000,2918.000,2875.000,2834.000
1096.139,3014.000,2992.000,3002.000,2898.000,2986.000,2899.000,2951.000,2953.000,2911.000,2930.000
1099.581,3111.000,3176.000,3112.000,3123.000,3104.000,3174.000,3139.000,3171.000,3137.000,3084.000
1103.023,3130.000,3135.000,3108.000,3079.000,3196.000,3130.000,3107.000,3136.000,3135.000,3090.000
1106.464,3106.000,3067.000,3081.000,3018.000,3051.000,3052.000,3072.000,3048.000,3044.000,3014.000
1109.903,3280.000,3318.000,3269.000,3265.000,3214.000,3261.000,3214.000,3182.000,3254.000,3235.000
1113.341,3823.000,3868.000,3848.000,3850.000,3870.000,3805.000,3814.000,3826.000,3769.000,3779.000
1116.776,4961.000,5010.000,5055.000,5097.000,5015.000,4945.000,5050.000,5008.000,5009.000,5000.000
1120.212,6890.000,6919.000,6908.000,6955.000,6925.000,6801.000,7140.000,6827.000,6855.000,6905.000
1123.646,7180.000,7140.000,7221.000,7234.000,7110.000,7007.000,8320.000,7225.000,7201.000,7187.000
1127.079,4126.000,4131.000,4079.000,4144.000,4104.000,4142.000,4581.000,4097.000,4076.000,4134.000
1130.510,2457.000,2466.000,2458.000,2430.000,2417.000,2398.000,2424.000,2417.000,2453.000,2417.000
1133.938,1817.000,1834.000,1821.000,1837.000,1774.000,1771.000,1728.000,1767.000,1766.000,1730.000
1137.367,1548.000,1555.000,1569.000,1552.000,1554.000,1531.000,1545.000,1533.000,1523.000,1524.000
1140.795,1543.000,1539.000,1521.000,1505.000,1543.000,1515.000,1518.000,1500.000,1512.000,1507.000
1144.221,1564.000,1575.000,1517.000,1539.000,1522.000,1554.000,1576.000,1523.000,1564.000,1504.000
1147.645,1686.000,1666.000,1663.000,1654.000,1603.000,1621.000,1605.000,1609.000,1611.000,1617.000
1151.067,1829.000,1818.000,1802.000,1797.000,1784.000,1812.000,1847.000,1828.000,1826.000,1811.000
1154.489,2096.000,2055.000,2070.000,2043.000,2056.000,2035.000,2065.000,2024.000,2064.000,2032.000
1157.910,2475.000,2440.000,2438.000,2489.000,2446.000,2452.000,2409.000,2438.000,2406.000,2412.000
1161.330,2687.000,2715.000,2663.000,2699.000,2625.000,2728.000,2659.000,2636.000,2623.000,2691.000
1164.748,2784.000,2811.000,2859.000,2828.000,2819.000,2769.000,2760.000,2781.000,2783.000,2839.000
1168.163,2545.000,2515.000,2579.000,2505.000,2553.000,2501.000,2520.000,2470.000,2516.000,2482.000
1171.578,2081.000,2111.000,2070.000,2038.000,2039.000,2051.000,2027.000,2063.000,2068.000,2025.000
1174.992,1846.000,1899.000,1884.000,1871.000,1869.000,1877.000,1848.000,1830.000,1832.000,1862.000
1178.405,1793.000,1800.000,1727.000,1813.000,1739.000,1741.000,1747.000,1726.000,1766.000,1729.000
1181.817,1833.000,1813.000,1768.000,1771.000,1762.000,1770.000,1825.000,1804.000,1770.000,1755.000
1185.225,1925.000,1947.000,1920.000,1927.000,1950.000,1955.000,1877.000,1911.000,1915.000,1875.000
1188.634,2140.000,2170.000,2139.000,2144.000,2187.000,2055.000,2154.000,2130.000,2121.000,2140.000
1192.042,2524.000,2509.000,2503.000,2502.000,2463.000,2510.000,2436.000,2418.000,2483.000,2471.000
1195.448,2864.000,2819.000,2826.000,2842.000,2814.000,2842.000,2801.000,2773.000,2832.000,2787.000
1198.853,2960.000,2942.000,2915.000,2935.000,2977.000,2847.000,2889.000,2869.000,2900.000,2919.000
1202.256,2607.000,2564.000,2556.000,2586.000,2525.000,2907.000,2528.000,2601.000,2561.000,2504.000
1205.657,2349.000,2306.000,2278.000,3397.000,2278.000,2242.000,2271.000,2289.000,2282.000,2278.000
1209.058,2331.000,2313.000,2273.000,2424.000,2286.000,2224.000,2223.000,2250.000,2263.000,2227.000
1212.458,2161.000,2136.000,2128.000,2112.000,2128.000,2148.000,2137.000,2125.000,2107.000,2117.000
1215.856,2072.000,2056.000,1987.000,2023.000,1968.000,2006.000,1995.000,2004.000,2012.000,1976.000
1219.253,2139.000,2125.000,2121.000,2117.000,2116.000,2065.000,2103.000,2070.000,2060.000,2098.000
1222.647,2360.000,2374.000,2347.000,2378.000,2317.000,2340.000,2335.000,2359.000,2336.000,2324.000
1226.041,2772.000,2749.000,2860.000,2766.000,2781.000,2779.000,2759.000,2791.000,2771.000,2814.000
1229.434,3012.000,2943.000,2998.000,2967.000,3000.000,3010.000,2950.000,3012.000,2985.000,3028.000
1232.826,3116.000,3170.000,3146.000,3098.000,3059.000,3123.000,3134.000,3099.000,3105.000,3136.000
1236.217,2941.000,2984.000,2932.000,2998.000,2949.000,2974.000,2970.000,2995.000,3013.000,2939.000
1239.604,2868.000,2836.000,2835.000,2838.000,2853.000,2789.000,2816.000,2839.000,2842.000,2769.000
1242.992,2934.000,2968.000,2906.000,2852.000,2858.000,2875.000,2843.000,2906.000,2849.000,2875.000
1246.379,2953.000,2928.000,2897.000,2879.000,2965.000,2913.000,2901.000,2873.000,2896.000,2865.000
1249.764,3121.000,3118.000,3095.000,3087.000,3084.000,3061.000,3096.000,3060.000,3077.000,3061.000
1253.148,3384.000,3328.000,3403.000,3359.000,3338.000,3361.000,3325.000,3318.000,3344.000,3357.000
1256.529,3607.000,3568.000,3529.000,3541.000,3547.000,3618.000,3589.000,3586.000,3527.000,3556.000
1259.910,3776.000,3737.000,3751.000,3712.000,3718.000,3747.000,3712.000,3727.000,3693.000,3712.000
1263.290,3792.000,3850.000,3728.000,3746.000,3770.000,3767.000,3736.000,3756.000,3796.000,3737.000
1266.669,4343.000,4360.000,4383.000,4330.000,4414.000,4330.000,4310.000,4310.000,4320.000,4346.000
1270.046,5478.000,5460.000,5350.000,5438.000,5389.000,5400.000,5288.000,5403.000,5419.000,5399.000
1273.421,6474.000,6335.000,6317.000,6361.000,6345.000,6337.000,6259.000,6343.000,6296.000,6307.000
1276.795,6421.000,6307.000,6394.000,6368.000,6315.000,6250.000,6292.000,6282.000,6329.000,6273.000
1280.169,5214.000,5135.000,5228.000,5155.000,5131.000,5086.000,5093.000,5174.000,5114.000,5042.000
1283.541,4634.000,4596.000,4664.000,4582.000,4548.000,4627.000,4587.000,4895.000,4556.000,4597.000
1286.912,4632.000,4680.000,4547.000,4664.000,4664.000,4658.000,4646.000,4588.000,4527.000,4539.000
1290.280,5095.000,5068.000,5008.000,5083.000,5081.000,4987.000,5010.000,5020.000,5037.000,5067.000
1293.648,5783.000,5799.000,5706.000,5852.000,5832.000,5697.000,5798.000,5772.000,5822.000,5735.000
1297.015,6093.000,6039.000,6056.000,6111.000,6116.000,6068.000,6099.000,6097.000,6187.000,6098.000
1300.381,6960.000,6953.000,6997.000,6982.000,6884.000,6908.000,6935.000,6980.000,6978.000,6943.000
1303.746,6457.000,6314.000,6422.000,6481.000,6361.000,6445.000,6340.000,6376.000,6258.000,6344.000
1307.107,4779.000,4692.000,4720.000,4685.000,4696.000,4696.000,4657.000,4629.000,4669.000,4746.000
1310.469,3986.000,3944.000,3976.000,3939.000,3959.000,3943.000,3924.000,3950.000,3899.000,3994.000
1313.830,3369.000,3360.000,3331.000,3288.000,3359.000,3391.000,3332.000,3327.000,3314.000,3278.000
1317.189,3011.000,3019.000,3024.000,3000.000,2971.000,2942.000,2971.000,2950.000,2947.000,2976.000
1320.547,2673.000,2637.000,2616.000,2641.000,2612.000,2643.000,2623.000,2580.000,2632.000,2663.000
1323.902,2500.000,2510.000,2528.000,2483.000,2492.000,2478.000,2427.000,2474.000,2486.000,2467.000
1327.257,2461.000,2425.000,2435.000,2450.000,2431.000,2369.000,2442.000,2394.000,2456.000,2440.000
1330.611,2235.000,2237.000,2256.000,2227.000,2207.000,2207.000,2149.000,2260.000,2205.000,2230.000
1333.964,2238.000,2242.000,2184.000,2269.000,2237.000,2156.000,2218.000,2183.000,2190.000,2211.000
1337.316,2181.000,2200.000,2174.000,2180.000,2161.000,2145.000,2193.000,2146.000,2148.000,2144.000
1340.664,2203.000,2218.000,2248.000,2208.000,2163.000,2244.000,2204.000,2209.000,2183.000,2196.000
1344.013,2291.000,2264.000,2279.000,2262.000,2297.000,2273.000,2253.000,2238.000,2274.000,2254.000
1347.361,2392.000,2387.000,2355.000,2351.000,2378.000,2392.000,2347.000,2330.000,2327.000,2327.000
1350.707,2562.000,3176.000,2585.000,2504.000,2571.000,2578.000,2521.000,2546.000,2573.000,2545.000
1354.053,2647.000,2610.000,2651.000,2669.000,2670.000,2648.000,2569.000,2663.000,2627.000,2638.000
1357.395,2883.000,2904.000,2877.000,2899.000,2863.000,2851.000,2851.000,2877.000,2830.000,2898.000
1360.737,3115.000,3133.000,3139.000,3048.000,3054.000,3077.000,3067.000,3060.000,3131.000,3082.000
1364.078,3203.000,3185.000,3178.000,3206.000,3178.000,3158.000,3177.000,3174.000,3175.000,3143.000
1367.418,3405.000,3370.000,3395.000,3460.000,3369.000,3354.000,3358.000,3378.000,3288.000,3309.000
1370.757,3391.000,3417.000,3346.000,3312.000,3332.000,3382.000,3334.000,3324.000,3330.000,3275.000
1374.093,3378.000,3352.000,3361.000,3301.000,3325.000,3345.000,3354.000,3328.000,3343.000,3293.000
1377.429,3324.000,3244.000,3265.000,3217.000,3283.000,3234.000,3199.000,3243.000,3238.000,3251.000
1380.764,3129.000,3200.000,3193.000,3140.000,3182.000,3144.000,3156.000,3124.000,3096.000,3136.000
1384.098,2809.000,2789.000,2799.000,2786.000,2769.000,2790.000,2752.000,2779.000,2728.000,2743.000
1387.430,2325.000,2354.000,2288.000,2289.000,2292.000,2313.000,2273.000,2297.000,2254.000,2308.000
1390.759,2082.000,2029.000,2015.000,2062.000,2073.000,2017.000,2029.000,2027.000,2073.000,2008.000
1394.089,1888.000,1854.000,1872.000,1851.000,1842.000,1875.000,1830.000,1840.000,1829.000,1867.000
1397.418,1942.000,1877.000,1905.000,1850.000,1835.000,1859.000,1857.000,1825.000,1844.000,1834.000
1400.745,2103.000,2043.000,2079.000,2018.000,2021.000,2027.000,2027.000,2037.000,2049.000,2049.000
1404.071,2480.000,2465.000,2407.000,2483.000,2444.000,2433.000,2380.000,2392.000,2432.000,2361.000
1407.394,3127.000,3119.000,3070.000,3060.000,3049.000,3069.000,3046.000,3158.000,2961.000,3057.000
1410.717,3495.000,3452.000,3478.000,3438.000,3405.000,3468.000,3428.000,3391.000,3467.000,3414.000
1414.039,3747.000,3804.000,3791.000,3759.000,3760.000,3744.000,3748.000,3709.000,3734.000,3722.000
1417.360,3895.000,3903.000,3917.000,3827.000,3850.000,3874.000,3916.000,3859.000,3885.000,3838.000
1420.680,4262.000,4239.000,4274.000,4247.000,4268.000,4325.000,4284.000,4211.000,4303.000,4149.000
1423.996,5481.000,5371.000,5384.000,5475.000,5347.000,5403.000,5364.000,5354.000,5353.000,5354.000
1427.314,6830.000,6774.000,6861.000,6849.000,6865.000,6843.000,6830.000,6831.000,6772.000,6812.000
1430.629,8696.000,8691.000,8662.000,8728.000,8659.000,8575.000,8794.000,8757.000,8654.000,8626.000
1433.944,10313.000,10329.000,10219.000,10352.000,10190.000,10147.000,10183.000,10173.000,10188.000,10271.000
1437.257,12300.000,12214.000,12088.000,12199.000,12019.000,12241.000,12198.000,12131.000,12178.000,12124.000
1440.569,10979.000,10982.000,11003.000,10989.000,11035.000,10900.000,11018.000,10987.000,10988.000,11019.000
1443.878,7829.000,7723.000,7800.000,7743.000,7650.000,7649.000,7735.000,7726.000,7695.000,7738.000
1447.188,5660.000,5548.000,5614.000,5642.000,5622.000,5523.000,5591.000,5602.000,5537.000,5639.000
1450.496,4602.000,4580.000,4540.000,4565.000,4487.000,4534.000,4503.000,4505.000,4584.000,4528.000
1453.803,4360.000,4310.000,4371.000,4290.000,4296.000,4374.000,4369.000,4347.000,4350.000,4336.000
1457.109,4664.000,4584.000,4593.000,4609.000,4648.000,4672.000,4577.000,4640.000,4676.000,4579.000
1460.412,5319.000,5259.000,5293.000,5314.000,5326.000,5260.000,5228.000,5313.000,5248.000,5278.000
1463.715,4897.000,4809.000,4754.000,4743.000,4725.000,4749.000,4733.000,4815.000,4774.000,4709.000
1467.017,4042.000,4089.000,4089.000,4043.000,3983.000,3994.000,4015.000,4046.000,4009.000,3990.000
1470.317,4289.000,4228.000,4202.000,4166.000,4231.000,4215.000,4182.000,4298.000,4175.000,4139.000
1473.617,4336.000,4387.000,4289.000,4367.000,4297.000,4241.000,4335.000,4316.000,4246.000,4312.000
1476.913,3504.000,3555.000,3514.000,3502.000,3513.000,3455.000,3495.000,3495.000,3517.000,3491.000
1480.210,2397.000,2348.000,2346.000,2349.000,2356.000,2365.000,2378.000,2353.000,2357.000,2384.000
1483.506,1877.000,1843.000,1855.000,1858.000,1852.000,1809.000,1855.000,1823.000,1802.000,1849.000
1486.800,1633.000,1629.000,1651.000,1646.000,1619.000,1634.000,1646.000,1653.000,1627.000,1644.000
1490.093,1521.000,1492.000,1481.000,1469.000,1511.000,1490.000,1451.000,1454.000,1425.000,1475.000
1493.384,1432.000,1404.000,1401.000,1454.000,1406.000,1423.000,1395.000,1401.000,1405.000,1391.000
1496.674,1394.000,1382.000,1374.000,1343.000,1363.000,1355.000,1336.000,1347.000,1353.000,1331.000
1499.964,1357.000,1345.000,1333.000,1357.000,1326.000,1312.000,1345.000,1319.000,1314.000,1317.000
1503.252,1304.000,1297.000,1299.000,1318.000,1327.000,1314.000,1270.000,1299.000,1281.000,1293.000
1506.539,1320.000,1288.000,1279.000,1287.000,1298.000,1249.000,1293.000,1304.000,1299.000,1283.000
1509.823,1291.000,1290.000,1325.000,1296.000,1282.000,1300.000,1294.000,1285.000,1256.000,1278.000
1513.107,1292.000,1286.000,1264.000,1302.000,1281.000,1281.000,1281.000,1295.000,1285.000,1313.000
1516.390,1292.000,1312.000,1327.000,1309.000,1297.000,1281.000,1281.000,1303.000,1279.000,1287.000
1519.672,1377.000,1375.000,1355.000,1349.000,1342.000,1365.000,1317.000,1313.000,1337.000,1344.000
1522.953,1406.000,1417.000,1363.000,1368.000,1381.000,1356.000,1375.000,1366.000,1365.000,1361.000
1526.230,1457.000,1442.000,1420.000,1414.000,1410.000,1393.000,1396.000,1415.000,1392.000,1402.000
1529.509,1493.000,1457.000,1482.000,1447.000,1464.000,1464.000,1433.000,1451.000,1431.000,1468.000
1532.786,1504.000,1491.000,1490.000,1503.000,1459.000,1444.000,1484.000,1464.000,1453.000,1477.000
1536.061,1491.000,1499.000,1520.000,1492.000,1483.000,1476.000,1481.000,1505.000,1471.000,1430.000
1539.336,1461.000,1495.000,1481.000,1461.000,1438.000,1469.000,1443.000,1423.000,1428.000,1445.000
1542.607,1408.000,1436.000,1425.000,1459.000,1415.000,1429.000,1408.000,1403.000,1420.000,1417.000
1545.879,1403.000,1378.000,1391.000,1368.000,1383.000,1364.000,1389.000,1346.000,1384.000,1359.000
1549.150,1343.000,1322.000,1353.000,1351.000,1339.000,1351.000,1337.000,1355.000,1319.000,1319.000
1552.419,1343.000,1296.000,1303.000,1310.000,1296.000,1290.000,1287.000,1279.000,1308.000,1290.000
1555.688,1287.000,1317.000,1290.000,1283.000,1273.000,1296.000,1281.000,1275.000,1286.000,1262.000
1558.953,1270.000,1273.000,1243.000,1288.000,1228.000,1251.000,1233.000,1222.000,1233.000,1240.000
1562.219,1243.000,1256.000,1236.000,1227.000,1252.000,1216.000,1230.000,1539.000,1225.000,1229.000
1565.483,1224.000,1232.000,1229.000,1194.000,1212.000,1203.000,1202.000,1191.000,1185.000,1193.000
1568.746,1235.000,1209.000,1176.000,1217.000,1193.000,1177.000,1180.000,1172.000,1179.000,1191.000
1572.008,1149.000,1167.000,1168.000,1164.000,1164.000,1179.000,1176.000,1125.000,1138.000,1134.000
1575.269,1166.000,1155.000,1158.000,1142.000,1173.000,1140.000,1151.000,1148.000,1159.000,1137.000
1578.527,1173.000,1155.000,1153.000,1142.000,1160.000,1101.000,1125.000,1130.000,1134.000,1143.000
1581.785,1155.000,1142.000,1152.000,1169.000,1149.000,1164.000,1131.000,1127.000,1123.000,1152.000
1585.043,1182.000,1163.000,1189.000,1148.000,1172.000,1152.000,1153.000,1152.000,1141.000,1166.000
1588.299,1223.000,1197.000,1208.000,1219.000,1219.000,1227.000,1190.000,1195.000,1232.000,1171.000
1591.553,1279.000,1308.000,1304.000,1276.000,1283.000,1275.000,1281.000,1229.000,1255.000,1279.000
1594.805,1390.000,1395.000,1393.000,1387.000,1397.000,1368.000,1349.000,1395.000,1390.000,1336.000
1598.057,1450.000,1466.000,1453.000,1453.000,1447.000,1460.000,1458.000,1427.000,1405.000,1408.000
1601.308,1502.000,1471.000,1480.000,1437.000,1477.000,1469.000,1512.000,1463.000,1480.000,1473.000
1604.558,1549.000,1544.000,1510.000,1504.000,1494.000,1530.000,1538.000,1564.000,1500.000,1500.000
1607.806,1585.000,1679.000,1631.000,1630.000,1606.000,1627.000,1614.000,1598.000,1569.000,1606.000
1611.052,1804.000,1819.000,1770.000,1776.000,1774.000,1794.000,1784.000,1780.000,1797.000,1746.000
1614.298,2126.000,2088.000,2083.000,2088.000,2118.000,2107.000,2063.000,2108.000,2091.000,2099.000
1617.543,2562.000,2575.000,2522.000,2564.000,2505.000,2579.000,2508.000,2511.000,2519.000,2492.000
1620.786,3295.000,3317.000,3329.000,3302.000,3275.000,3322.000,3298.000,3288.000,3246.000,3245.000
1624.029,5056.000,4973.000,4974.000,4986.000,5001.000,5000.000,5057.000,5030.000,4976.000,4931.000
1627.268,7411.000,7268.000,7386.000,7383.000,7291.000,7389.000,7383.000,7268.000,7234.000,7318.000
1630.508,6819.000,6662.000,6653.000,6635.000,6657.000,6680.000,6672.000,6721.000,6793.000,6653.000
1633.747,5179.000,5186.000,5145.000,5069.000,5147.000,5117.000,5076.000,5100.000,5069.000,5024.000
1636.984,4051.000,3956.000,4023.000,4062.000,3950.000,4096.000,4089.000,4024.000,4003.000,3983.000
1640.221,3357.000,3339.000,3371.000,3346.000,3319.000,3337.000,3315.000,3270.000,3326.000,3299.000
1643.454,3011.000,2992.000,3019.000,2958.000,2987.000,2987.000,2900.000,2959.000,2951.000,2984.000
1646.688,2715.000,2711.000,2739.000,2708.000,2671.000,2708.000,2721.000,2702.000,2639.000,2702.000
1649.920,2674.000,2672.000,2656.000,2664.000,2651.000,2698.000,2611.000,2619.000,2665.000,2631.000
1653.152,2545.000,2566.000,2552.000,2497.000,2497.000,2498.000,2533.000,2500.000,2472.000,2475.000
1656.382,2331.000,2272.000,2269.000,2249.000,2291.000,2235.000,2253.000,2261.000,2241.000,2248.000
1659.609,1964.000,2028.000,1988.000,1957.000,1986.000,1996.000,2010.000,1956.000,1972.000,1957.000
1662.837,1722.000,1729.000,1699.000,1729.000,1691.000,1709.000,1744.000,1663.000,1720.000,1685.000
1666.063,1561.000,1534.000,1530.000,1545.000,1551.000,1548.000,1511.000,1502.000,1539.000,1510.000
1669.289,1439.000,1410.000,1372.000,1399.000,1427.000,1399.000,1419.000,1361.000,1402.000,1413.000
1672.513,1316.000,1301.000,1308.000,1299.000,1291.000,1289.000,1293.000,1303.000,1286.000,1262.000
1675.734,1219.000,1207.000,1217.000,1192.000,1205.000,1206.000,1184.000,1186.000,1200.000,1197.000
1678.956,1130.000,1147.000,1149.000,1141.000,1115.000,1121.000,1125.000,1131.000,1097.000,1149.000
1682.176,1090.000,1074.000,1068.000,1062.000,1037.000,1070.000,1076.000,1043.000,1077.000,1074.000
1685.395,1054.000,1006.000,1024.000,1023.000,1045.000,1034.000,1026.000,1025.000,1017.000,1027.000
1688.613,1036.000,997.000,999.000,992.000,1013.000,979.000,993.000,974.000,993.000,980.000
1691.829,967.000,979.000,990.000,978.000,979.000,985.000,972.000,975.000,956.000,963.000
1695.044,972.000,985.000,968.000,978.000,980.000,962.000,978.000,976.000,934.000,952.000
1698.259,955.000,963.000,939.000,926.000,952.000,946.000,945.000,936.000,927.000,929.000
1701.472,987.000,938.000,954.000,928.000,931.000,922.000,922.000,945.000,924.000,917.000
1704.684,936.000,933.000,920.000,941.000,942.000,934.000,918.000,906.000,914.000,906.000
1707.893,940.000,953.000,958.000,931.000,933.000,910.000,928.000,921.000,925.000,897.000
1711.102,911.000,938.000,921.000,925.000,934.000,904.000,902.000,893.000,896.000,916.000
1714.311,904.000,906.000,939.000,927.000,903.000,911.000,893.000,907.000,895.000,901.000
1717.518,931.000,920.000,906.000,939.000,914.000,897.000,907.000,903.000,906.000,895.000
1720.724,941.000,917.000,910.000,901.000,898.000,902.000,897.000,894.000,894.000,896.000
1723.927,947.000,928.000,930.000,884.000,892.000,912.000,898.000,883.000,889.000,888.000
1727.131,942.000,916.000,917.000,903.000,910.000,884.000,885.000,891.000,871.000,884.000
1730.333,926.000,932.000,897.000,899.000,899.000,912.000,879.000,889.000,911.000,876.000
1733.534,1168.000,926.000,912.000,903.000,900.000,909.000,899.000,889.000,889.000,894.000
1736.734,941.000,897.000,898.000,910.000,904.000,895.000,901.000,874.000,896.000,878.000
1739.931,920.000,904.000,915.000,890.000,889.000,895.000,907.000,888.000,889.000,900.000
1743.129,895.000,895.000,898.000,906.000,879.000,877.000,881.000,886.000,877.000,858.000
1746.325,923.000,903.000,897.000,892.000,883.000,869.000,895.000,868.000,873.000,887.000
1749.520,907.000,890.000,872.000,895.000,880.000,879.000,879.000,868.000,880.000,878.000
1752.714,913.000,908.000,1066.000,889.000,865.000,882.000,860.000,852.000,854.000,876.000
1755.905,904.000,879.000,951.000,881.000,878.000,877.000,858.000,861.000,864.000,858.000
1759.097,877.000,890.000,884.000,860.000,889.000,890.000,855.000,867.000,844.000,859.000
1762.287,903.000,885.000,882.000,870.000,854.000,856.000,853.000,850.000,854.000,871.000
1765.476,896.000,859.000,860.000,866.000,855.000,874.000,866.000,862.000,860.000,856.000
1768.664,882.000,880.000,868.000,879.000,860.000,862.000,858.000,864.000,864.000,848.000
1771.849,871.000,869.000,881.000,858.000,862.000,851.000,868.000,848.000,840.000,847.000
1775.035,868.000,885.000,870.000,872.000,861.000,857.000,864.000,848.000,860.000,840.000
1778.219,874.000,875.000,864.000,842.000,856.000,881.000,870.000,862.000,859.000,842.000
1781.403,912.000,889.000,872.000,865.000,873.000,855.000,855.000,859.000,852.000,859.000
1784.585,912.000,875.000,880.000,865.000,846.000,864.000,849.000,867.000,843.000,853.000
1787.764,901.000,879.000,868.000,886.000,861.000,863.000,832.000,835.000,831.000,855.000
1790.944,871.000,874.000,879.000,878.000,861.000,849.000,848.000,848.000,839.000,849.000
1794.122,886.000,857.000,876.000,870.000,867.000,852.000,863.000,858.000,844.000,848.000
1797.299,878.000,890.000,872.000,856.000,873.000,851.000,876.000,877.000,870.000,860.000
1800.475,863.000,885.000,863.000,855.000,852.000,863.000,840.000,860.000,839.000,831.000
1803.649,876.000,892.000,863.000,874.000,875.000,863.000,868.000,861.000,842.000,849.000
1806.822,889.000,878.000,866.000,868.000,843.000,865.000,871.000,851.000,843.000,825.000
1809.995,885.000,880.000,879.000,879.000,877.000,866.000,867.000,866.000,850.000,862.000
1813.166,880.000,895.000,873.000,867.000,890.000,875.000,870.000,863.000,869.000,860.000
1816.336,878.000,897.000,879.000,854.000,872.000,882.000,857.000,848.000,866.000,851.000
1819.505,1927.000,875.000,887.000,861.000,881.000,857.000,880.000,853.000,845.000,840.000
1822.671,889.000,911.000,888.000,871.000,867.000,878.000,859.000,852.000,858.000,859.000
1825.838,891.000,875.000,903.000,888.000,880.000,864.000,871.000,859.000,853.000,866.000
1829.004,889.000,876.000,887.000,867.000,858.000,847.000,864.000,859.000,870.000,854.000
1832.168,893.000,893.000,875.000,895.000,863.000,886.000,855.000,843.000,850.000,850.000
1835.331,895.000,891.000,874.000,890.000,872.000,866.000,860.000,858.000,858.000,857.000
1838.491,910.000,895.000,882.000,874.000,892.000,870.000,850.000,858.000,861.000,863.000
1841.652,883.000,892.000,877.000,877.000,873.000,852.000,857.000,857.000,874.000,862.000
1844.811,888.000,882.000,888.000,883.000,888.000,876.000,868.000,854.000,856.000,843.000
1847.970,892.000,885.000,896.000,892.000,874.000,872.000,877.000,894.000,883.000,873.000
1851.127,895.000,876.000,909.000,874.000,867.000,895.000,872.000,868.000,866.000,861.000
1854.281,906.000,903.000,895.000,880.000,894.000,883.000,875.000,880.000,876.000,864.000
1857.436,892.000,878.000,905.000,901.000,862.000,870.000,875.000,878.000,868.000,869.000
1860.590,910.000,915.000,890.000,872.000,868.000,889.000,869.000,874.000,886.000,1556.000
1863.742,911.000,902.000,905.000,887.000,878.000,881.000,879.000,888.000,885.000,882.000
1866.894,933.000,893.000,904.000,908.000,915.000,879.000,892.000,899.000,897.000,876.000
1870.042,908.000,884.000,899.000,908.000,900.000,878.000,889.000,889.000,901.000,888.000
1873.191,910.000,914.000,907.000,908.000,901.000,891.000,886.000,875.000,883.000,884.000
1876.339,913.000,914.000,925.000,901.000,893.000,899.000,898.000,889.000,891.000,871.000
1879.485,939.000,930.000,912.000,892.000,892.000,895.000,875.000,898.000,891.000,881.000
1882.631,928.000,904.000,924.000,912.000,912.000,896.000,924.000,903.000,904.000,888.000
1885.773,938.000,914.000,907.000,905.000,912.000,901.000,896.000,926.000,891.000,893.000
1888.917,936.000,925.000,936.000,909.000,915.000,915.000,903.000,900.000,907.000,897.000
1892.058,937.000,936.000,935.000,923.000,902.000,896.000,900.000,920.000,887.000,909.000
1895.199,962.000,964.000,936.000,912.000,926.000,927.000,920.000,941.000,926.000,922.000
1898.339,964.000,955.000,920.000,923.000,919.000,916.000,941.000,928.000,905.000,904.000
1901.476,965.000,936.000,941.000,937.000,938.000,937.000,913.000,918.000,933.000,929.000
1904.613,974.000,946.000,943.000,927.000,937.000,915.000,934.000,906.000,911.000,911.000
1907.749,959.000,937.000,933.000,946.000,927.000,923.000,936.000,908.000,901.000,924.000
1910.884,939.000,964.000,937.000,916.000,941.000,934.000,925.000,918.000,912.000,925.000
1914.018,940.000,919.000,918.000,912.000,919.000,941.000,933.000,917.000,904.000,901.000
1917.149,931.000,938.000,949.000,944.000,939.000,924.000,930.000,917.000,924.000,931.000
1920.280,935.000,945.000,926.000,932.000,928.000,922.000,913.000,912.000,901.000,923.000
1923.411,951.000,928.000,928.000,954.000,932.000,937.000,935.000,919.000,928.000,917.000
1926.540,952.000,975.000,954.000,931.000,937.000,929.000,912.000,918.000,927.000,915.000
1929.668,956.000,949.000,953.000,956.000,950.000,922.000,942.000,929.000,922.000,898.000
1932.793,990.000,965.000,938.000,952.000,936.000,940.000,956.000,925.000,946.000,950.000
1935.919,975.000,976.000,968.000,957.000,955.000,945.000,940.000,931.000,970.000,937.000
1939.043,972.000,958.000,964.000,970.000,969.000,950.000,953.000,946.000,960.000,966.000
1942.166,966.000,972.000,968.000,953.000,961.000,960.000,951.000,960.000,951.000,932.000
1945.289,982.000,1003.000,950.000,965.000,963.000,940.000,949.000,938.000,949.000,958.000
1948.410,980.000,971.000,965.000,955.000,959.000,961.000,933.000,950.000,955.000,952.000
1951.528,998.000,993.000,988.000,996.000,985.000,972.000,960.000,963.000,956.000,969.000
1954.647,991.000,977.000,972.000,977.000,963.000,962.000,952.000,969.000,970.000,987.000
1957.764,1017.000,1002.000,1000.000,1006.000,970.000,971.000,966.000,975.000,953.000,968.000
1960.881,1017.000,995.000,982.000,987.000,1005.000,993.000,960.000,963.000,981.000,972.000
1963.996,1020.000,982.000,993.000,1006.000,1006.000,978.000,982.000,980.000,973.000,975.000
1967.108,1005.000,1019.000,1005.000,995.000,988.000,1001.000,977.000,1006.000,999.000,1004.000
1970.221,1018.000,1052.000,1013.000,997.000,1012.000,984.000,990.000,986.000,983.000,996.000
1973.333,1044.000,1004.000,1022.000,1014.000,1036.000,1024.000,997.000,989.000,1009.000,996.000
1976.444,1041.000,1034.000,1028.000,1026.000,1010.000,1008.000,1030.000,1015.000,1017.000,1039.000
1979.553,1067.000,1060.000,1039.000,1056.000,1027.000,1035.000,1036.000,1013.000,998.000,1026.000
1982.660,1078.000,1073.000,1042.000,1052.000,1031.000,1032.000,1043.000,1025.000,1022.000,1017.000
1985.767,1086.000,1076.000,1060.000,1028.000,1058.000,1061.000,1043.000,1043.000,1048.000,1051.000
1988.873,1065.000,1084.000,1072.000,1088.000,1063.000,1057.000,1064.000,1059.000,1053.000,1050.000
1991.978,1084.000,1087.000,1073.000,1077.000,1055.000,1079.000,1067.000,1071.000,1064.000,1073.000
1995.082,1114.000,1107.000,1097.000,1078.000,1089.000,1091.000,1071.000,1076.000,1079.000,1067.000
1998.183,1126.000,1139.000,1106.000,1120.000,1114.000,1106.000,1127.000,1105.000,1099.000,1099.000
2001.284,1134.000,1151.000,1124.000,1126.000,1154.000,1110.000,1116.000,1099.000,1097.000,1116.000
2004.385,1158.000,1144.000,1141.000,1131.000,1127.000,1135.000,1119.000,1138.000,1112.000,1088.000
2007.484,1175.000,1170.000,1175.000,1164.000,1176.000,2195.000,1136.000,1132.000,1167.000,1135.000
2010.582,1204.000,1209.000,1191.000,1171.000,1187.000,1188.000,1158.000,1199.000,1155.000,1177.000
2013.677,1226.000,1225.000,1226.000,1244.000,1217.000,1212.000,1208.000,1192.000,1214.000,1215.000
2016.773,1255.000,1239.000,1258.000,1244.000,1207.000,1227.000,1202.000,1240.000,1220.000,1232.000
2019.868,1280.000,1276.000,1279.000,1244.000,1280.000,1238.000,1269.000,1230.000,1240.000,1270.000
2022.961,1322.000,1338.000,1341.000,1280.000,1309.000,1282.000,1305.000,1280.000,1301.000,1274.000
2026.053,1400.000,1378.000,1365.000,1364.000,1364.000,1398.000,1388.000,1375.000,1358.000,1353.000
2027.598,1426.000,1423.000,1372.000,1417.000,1390.000,1350.000,1387.000,1412.000,1388.000,1394.000