File: XRD/2023_07_24_CBD_Liq_3_60_22min_Qtz.xy
3.00043 24664.0
3.0439 23170.0
3.08736 22513.0
3.13083 21225.0
3.1743 20049.0
3.21776 18652.0
3.26123 17630.0
3.30469 16517.0
3.34816 15569.0
3.39163 14967.0
3.43509 13911.0
3.47856 13323.0
3.52202 12345.0
3.56549 11501.0
3.60895 10922.0
3.65242 10020.0
3.69589 9646.0
3.73935 8840.0
3.78282 8594.0
3.82628 7760.0
3.86975 7450.0
3.91321 6913.0
3.95668 6372.0
4.00015 6030.0
4.04361 5749.0
4.08708 5390.0
4.13054 4971.0
4.17401 4735.0
4.21747 4268.0
4.26094 4149.0
4.30441 3815.0
4.34787 3683.0
4.39134 3530.0
4.4348 3310.0
4.47827 3171.0
4.52173 3145.0
4.5652 2959.0
4.60867 2879.0
4.65213 2803.0
4.6956 2805.0
4.73906 2831.0
4.78253 2920.0
4.826 2760.0
4.86946 2742.0
4.91293 2754.0
4.95639 2856.0
4.99986 2877.0
5.04332 2919.0
5.08679 2974.0
5.13026 2986.0
5.17372 2962.0
5.21719 3050.0
5.26065 3131.0
5.30412 3048.0
5.34758 3116.0
5.39105 3096.0
5.43452 3243.0
5.47798 3317.0
5.52145 3277.0
5.56491 3347.0
5.60838 3415.0
5.65184 3513.0
5.69531 3506.0
5.73878 3575.0
5.78224 3698.0
5.82571 3852.0
5.86917 3804.0
5.91264 3859.0
5.9561 3878.0
5.99957 3896.0
6.04304 3963.0
6.0865 3920.0
6.12997 3979.0
6.17343 4016.0
6.2169 4018.0
6.26037 3970.0
6.30383 4061.0
6.3473 4171.0
6.39076 4281.0
6.43423 4254.0
6.47769 4292.0
6.52116 4326.0
6.56463 4447.0
6.60809 4587.0
6.65156 4576.0
6.69502 4598.0
6.73849 4670.0
6.78195 4639.0
6.82542 4569.0
6.86889 4728.0
6.91235 4797.0
6.95582 4829.0
6.99928 4926.0
7.04275 4968.0
7.08621 4920.0
7.12968 5146.0
7.17315 5098.0
7.21661 5060.0
7.26008 5085.0
7.30354 5261.0
7.34701 5234.0
7.39047 5181.0
7.43394 5154.0
7.47741 5284.0
7.52087 5285.0
7.56434 5340.0
7.6078 5239.0
7.65127 5196.0
7.69474 5204.0
7.7382 5143.0
7.78167 5362.0
7.82513 5357.0
7.8686 5384.0
7.91206 5388.0
7.95553 5433.0
7.999 5411.0
8.04246 5386.0
8.08593 5422.0
8.12939 5253.0
8.17286 5261.0
8.21632 5351.0
8.25979 5466.0
8.30326 5458.0
8.34672 5263.0
8.39019 5400.0
8.43365 5278.0
8.47712 5199.0
8.52058 5282.0
8.56405 5210.0
8.60752 5344.0
8.65098 5190.0
8.69445 5286.0
8.73791 5263.0
8.78138 5227.0
8.82485 5253.0
8.86831 5307.0
8.91178 5137.0
8.95524 5207.0
8.99871 5122.0
9.04217 5146.0
9.08564 5192.0
9.12911 5147.0
9.17257 5013.0
9.21604 5098.0
9.2595 5009.0
9.30297 5069.0
9.34643 4913.0
9.3899 4936.0
9.43337 4906.0
9.47683 4890.0
9.5203 4997.0
9.56376 4835.0
9.60723 4877.0
9.65069 4922.0
9.69416 4884.0
9.73763 4817.0
9.78109 4864.0
9.82456 4914.0
9.86802 4760.0
9.91149 4802.0
9.95495 4724.0
9.99842 4779.0
10.0419 4628.0
10.0854 4862.0
10.1288 4755.0
10.1723 4693.0
10.2157 4815.0
10.2592 4703.0
10.3027 4759.0
10.3461 4768.0
10.3896 4739.0
10.4331 4751.0
10.4765 4661.0
10.52 4850.0
10.5635 4881.0
10.6069 4797.0
10.6504 4730.0
10.6939 4807.0
10.7373 4623.0
10.7808 4823.0
10.8243 4810.0
10.8677 4708.0
10.9112 4940.0
10.9547 4811.0
10.9981 4953.0
11.0416 4829.0
11.0851 4880.0
11.1285 4810.0
11.172 4765.0
11.2155 4886.0
11.2589 4974.0
11.3024 4943.0
11.3459 4885.0
11.3893 4954.0
11.4328 5078.0
11.4763 5017.0
11.5197 5140.0
11.5632 5021.0
11.6067 5108.0
11.6501 5107.0
11.6936 5139.0
11.7371 5194.0
11.7805 5150.0
11.824 5248.0
11.8674 5234.0
11.9109 5407.0
11.9544 5254.0
11.9978 5385.0
12.0413 5436.0
12.0848 5543.0
12.1282 5448.0
12.1717 5437.0
12.2152 5534.0
12.2586 5518.0
12.3021 5485.0
12.3456 5617.0
12.389 5599.0
12.4325 5703.0
12.476 5769.0
12.5194 5807.0
12.5629 5839.0
12.6064 5984.0
12.6498 6000.0
12.6933 5953.0
12.7368 6016.0
12.7802 6327.0
12.8237 6151.0
12.8672 6075.0
12.9106 6231.0
12.9541 6273.0
12.9976 6349.0
13.041 6427.0
13.0845 6336.0
13.128 6367.0
13.1714 6369.0
13.2149 6440.0
13.2584 6495.0
13.3018 6652.0
13.3453 6614.0
13.3887 6582.0
13.4322 6686.0
13.4757 6660.0
13.5191 6839.0
13.5626 6771.0
13.6061 6952.0
13.6495 6796.0
13.693 6904.0
13.7365 6896.0
13.7799 7125.0
13.8234 7036.0
13.8669 7042.0
13.9103 7274.0
13.9538 7118.0
13.9973 7065.0
14.0407 7310.0
14.0842 7163.0
14.1277 7323.0
14.1711 7209.0
14.2146 7307.0
14.2581 7273.0
14.3015 7339.0
14.345 7414.0
14.3885 7297.0
14.4319 7451.0
14.4754 7529.0
14.5189 7459.0
14.5623 7470.0
14.6058 7581.0
14.6493 7459.0
14.6927 7585.0
14.7362 7660.0
14.7797 7644.0
14.8231 7561.0
14.8666 7654.0
14.9101 7603.0
14.9535 7644.0
14.997 7579.0
15.0404 7726.0
15.0839 7653.0
15.1274 7509.0
15.1708 7763.0
15.2143 7705.0
15.2578 7696.0
15.3012 7747.0
15.3447 7674.0
15.3882 7635.0
15.4316 7527.0
15.4751 7602.0
15.5186 7726.0
15.562 7716.0
15.6055 7796.0
15.649 7823.0
15.6924 7688.0
15.7359 7762.0
15.7794 7819.0
15.8228 7935.0
15.8663 7739.0
15.9098 7759.0
15.9532 7819.0
15.9967 7816.0
16.0402 7684.0
16.0836 7710.0
16.1271 7888.0
16.1706 7920.0
16.214 7942.0
16.2575 7912.0
16.301 7753.0
16.3444 7912.0
16.3879 7928.0
16.4314 8021.0
16.4748 7956.0
16.5183 7960.0
16.5618 7968.0
16.6052 7837.0
16.6487 8158.0
16.6921 7968.0
16.7356 8033.0
16.7791 7928.0
16.8225 7940.0
16.866 8007.0
16.9095 8094.0
16.9529 8070.0
16.9964 8014.0
17.0399 8161.0
17.0833 8189.0
17.1268 8073.0
17.1703 8192.0
17.2137 8128.0
17.2572 8235.0
17.3007 8177.0
17.3441 8172.0
17.3876 8074.0
17.4311 8383.0
17.4745 8310.0
17.518 8289.0
17.5615 8308.0
17.6049 8410.0
17.6484 8157.0
17.6919 8290.0
17.7353 8508.0
17.7788 8491.0
17.8223 8415.0
17.8657 8480.0
17.9092 8596.0
17.9527 8718.0
17.9961 8455.0
18.0396 8623.0
18.0831 8589.0
18.1265 8581.0
18.17 8650.0
18.2134 8751.0
18.2569 8641.0
18.3004 8679.0
18.3438 8713.0
18.3873 8739.0
18.4308 8881.0
18.4742 8711.0
18.5177 8903.0
18.5612 8876.0
18.6046 8838.0
18.6481 8863.0
18.6916 8888.0
18.735 9078.0
18.7785 9081.0
18.822 8951.0
18.8654 8933.0
18.9089 9026.0
18.9524 8975.0
18.9958 9059.0
19.0393 9215.0
19.0828 9166.0
19.1262 8951.0
19.1697 9085.0
19.2132 9000.0
19.2566 9010.0
19.3001 9112.0
19.3436 9135.0
19.387 9139.0
19.4305 9188.0
19.474 9088.0
19.5174 9163.0
19.5609 9107.0
19.6044 9220.0
19.6478 8988.0
19.6913 9358.0
19.7348 9142.0
19.7782 9112.0
19.8217 9108.0
19.8651 9178.0
19.9086 9261.0
19.9521 9170.0
19.9955 9319.0
20.039 9233.0
20.0825 9244.0
20.1259 9221.0
20.1694 9131.0
20.2129 9313.0
20.2563 9061.0
20.2998 9201.0
20.3433 9265.0
20.3867 9044.0
20.4302 9225.0
20.4737 9150.0
20.5171 9043.0
20.5606 8974.0
20.6041 8926.0
20.6475 9088.0
20.691 9002.0
20.7345 8965.0
20.7779 8907.0
20.8214 9040.0
20.8649 8941.0
20.9083 8957.0
20.9518 9023.0
20.9953 8872.0
21.0387 8817.0
21.0822 9000.0
21.1257 9032.0
21.1691 8854.0
21.2126 8911.0
21.2561 8742.0
21.2995 8994.0
21.343 8799.0
21.3864 8783.0
21.4299 8746.0
21.4734 8967.0
21.5168 8841.0
21.5603 8845.0
21.6038 8603.0
21.6472 8731.0
21.6907 8657.0
21.7342 8647.0
21.7776 8640.0
21.8211 8442.0
21.8646 8475.0
21.908 8398.0
21.9515 8289.0
21.995 8334.0
22.0384 8318.0
22.0819 8311.0
22.1254 8329.0
22.1688 8361.0
22.2123 8199.0
22.2558 8313.0
22.2992 8278.0
22.3427 8184.0
22.3862 8234.0
22.4296 8071.0
22.4731 7928.0
22.5166 8039.0
22.56 7876.0
22.6035 7829.0
22.647 8078.0
22.6904 7943.0
22.7339 7741.0
22.7774 7804.0
22.8208 7784.0
22.8643 7720.0
22.9078 7719.0
22.9512 7497.0
22.9947 7621.0
23.0381 7478.0
23.0816 7546.0
23.1251 7552.0
23.1685 7455.0
23.212 7580.0
23.2555 7464.0
23.2989 7521.0
23.3424 7329.0
23.3859 7251.0
23.4293 7095.0
23.4728 7325.0
23.5163 7119.0
23.5597 7162.0
23.6032 7119.0
23.6467 7135.0
23.6901 7159.0
23.7336 6828.0
23.7771 7031.0
23.8205 7129.0
23.864 6889.0
23.9075 6994.0
23.9509 6890.0
23.9944 6958.0
24.0379 6876.0
24.0813 6892.0
24.1248 6718.0
24.1683 6802.0
24.2117 6693.0
24.2552 6613.0
24.2987 6657.0
24.3421 6567.0
24.3856 6300.0
24.4291 6418.0
24.4725 6492.0
24.516 6313.0
24.5595 6390.0
24.6029 6399.0
24.6464 6377.0
24.6898 6276.0
24.7333 6298.0
24.7768 6161.0
24.8202 6283.0
24.8637 6255.0
24.9072 6164.0
24.9506 6165.0
24.9941 6205.0
25.0376 5983.0
25.081 5984.0
25.1245 5958.0
25.168 5855.0
25.2114 6083.0
25.2549 5864.0
25.2984 5966.0
25.3418 5764.0
25.3853 5790.0
25.4288 5896.0
25.4722 5895.0
25.5157 5677.0
25.5592 5632.0
25.6026 5792.0
25.6461 5564.0
25.6896 5714.0
25.733 5654.0
25.7765 5511.0
25.82 5730.0
25.8634 5659.0
25.9069 5516.0
25.9504 5433.0
25.9938 5479.0
26.0373 5649.0
26.0808 5348.0
26.1242 5432.0
26.1677 5393.0
26.2111 5409.0
26.2546 5432.0
26.2981 5280.0
26.3415 5293.0
26.385 5446.0
26.4285 5272.0
26.4719 5126.0
26.5154 5248.0
26.5589 5188.0
26.6023 5161.0
26.6458 5243.0
26.6893 5255.0
26.7327 4997.0
26.7762 5095.0
26.8197 5008.0
26.8631 4927.0
26.9066 4958.0
26.9501 5021.0
26.9935 5033.0
27.037 4913.0
27.0805 5049.0
27.1239 4868.0
27.1674 4989.0
27.2109 4826.0
27.2543 4929.0
27.2978 4982.0
27.3413 4744.0
27.3847 4768.0
27.4282 4820.0
27.4717 4693.0
27.5151 4746.0
27.5586 4735.0
27.6021 4755.0
27.6455 4813.0
27.689 4609.0
27.7325 4748.0
27.7759 4754.0
27.8194 4648.0
27.8628 4778.0
27.9063 4621.0
27.9498 4602.0
27.9932 4566.0
28.0367 4648.0
28.0802 4577.0
28.1236 4393.0
28.1671 4522.0
28.2106 4503.0
28.254 4545.0
28.2975 4587.0
28.341 4470.0
28.3844 4449.0
28.4279 4421.0
28.4714 4396.0
28.5148 4344.0
28.5583 4348.0
28.6018 4355.0
28.6452 4215.0
28.6887 4365.0
28.7322 4257.0
28.7756 4245.0
28.8191 4213.0
28.8626 4215.0
28.906 4269.0
28.9495 4323.0
28.993 4245.0
29.0364 4214.0
29.0799 4193.0
29.1234 4203.0
29.1668 4113.0
29.2103 4268.0
29.2538 4052.0
29.2972 4034.0
29.3407 4024.0
29.3841 4051.0
29.4276 4039.0
29.4711 4068.0
29.5145 4000.0
29.558 4041.0
29.6015 4018.0
29.6449 4007.0
29.6884 4087.0
29.7319 3988.0
29.7753 3932.0
29.8188 3919.0
29.8623 3973.0
29.9057 3958.0
29.9492 3927.0
29.9927 3949.0
30.0361 3939.0
30.0796 3966.0
30.1231 3836.0
30.1665 3828.0
30.21 3942.0
30.2535 3778.0
30.2969 3740.0
30.3404 3816.0
30.3839 3879.0
30.4273 3736.0
30.4708 3774.0
30.5143 3797.0
30.5577 3736.0
30.6012 3730.0
30.6447 3860.0
30.6881 3703.0
30.7316 3598.0
30.7751 3681.0
30.8185 3735.0
30.862 3622.0
30.9055 3737.0
30.9489 3557.0
30.9924 3653.0
31.0358 3538.0
31.0793 3562.0
31.1228 3542.0
31.1662 3607.0
31.2097 3595.0
31.2532 3740.0
31.2966 3512.0
31.3401 3520.0
31.3836 3475.0
31.427 3503.0
31.4705 3387.0
31.514 3442.0
31.5574 3614.0
31.6009 3598.0
31.6444 3474.0
31.6878 3512.0
31.7313 3529.0
31.7748 3513.0
31.8182 3398.0
31.8617 3416.0
31.9052 3461.0
31.9486 3458.0
31.9921 3334.0
32.0356 3382.0
32.079 3359.0
32.1225 3471.0
32.166 3308.0
32.2094 3415.0
32.2529 3348.0
32.2964 3405.0
32.3398 3404.0
32.3833 3247.0
32.4268 3399.0
32.4702 3325.0
32.5137 3368.0
32.5572 3219.0
32.6006 3205.0
32.6441 3285.0
32.6875 3281.0
32.731 3305.0
32.7745 3178.0
32.8179 3234.0
32.8614 3281.0
32.9049 3243.0
32.9483 3219.0
32.9918 3213.0
33.0353 3312.0
33.0787 3252.0
33.1222 3270.0
33.1657 3318.0
33.2091 3173.0
33.2526 3158.0
33.2961 3205.0
33.3395 3141.0
33.383 3127.0
33.4265 3278.0
33.4699 3103.0
33.5134 3108.0
33.5569 3133.0
33.6003 3191.0
33.6438 3106.0
33.6873 3121.0
33.7307 3205.0
33.7742 3176.0
33.8177 3123.0
33.8611 3180.0
33.9046 3113.0
33.9481 3136.0
33.9915 3132.0
34.035 3047.0
34.0785 3101.0
34.1219 3104.0
34.1654 2975.0
34.2088 3076.0
34.2523 3079.0
34.2958 3091.0
34.3392 3160.0
34.3827 2989.0
34.4262 3039.0
34.4696 3003.0
34.5131 3036.0
34.5566 3076.0
34.6 3020.0
34.6435 3120.0
34.687 3054.0
34.7304 3114.0
34.7739 3016.0
34.8174 3162.0
34.8608 3033.0
34.9043 2845.0
34.9478 3004.0
34.9912 3016.0
35.0347 3012.0
35.0782 2944.0
35.1216 3072.0
35.1651 3017.0
35.2086 3063.0
35.252 3017.0
35.2955 3031.0
35.339 3004.0
35.3824 2974.0
35.4259 3067.0
35.4694 2998.0
35.5128 3068.0
35.5563 3025.0
35.5998 2997.0
35.6432 2916.0
35.6867 3033.0
35.7302 2979.0
35.7736 2954.0
35.8171 2917.0
35.8605 2995.0
35.904 3029.0
35.9475 3000.0
35.9909 3032.0
36.0344 2956.0
36.0779 2966.0
36.1213 2868.0
36.1648 2981.0
36.2083 2934.0
36.2517 3018.0
36.2952 2977.0
36.3387 2867.0
36.3821 2946.0
36.4256 2997.0
36.4691 2906.0
36.5125 2973.0
36.556 2856.0
36.5995 2901.0
36.6429 2891.0
36.6864 2975.0
36.7299 2961.0
36.7733 3020.0
36.8168 2922.0
36.8603 2933.0
36.9037 2880.0
36.9472 2936.0
36.9907 2878.0
37.0341 2969.0
37.0776 2916.0
37.1211 2883.0
37.1645 2936.0
37.208 2871.0
37.2515 2933.0
37.2949 2861.0
37.3384 2983.0
37.3818 2987.0
37.4253 2911.0
37.4688 2878.0
37.5122 2899.0
37.5557 2892.0
37.5992 2981.0
37.6426 2903.0
37.6861 2943.0
37.7296 2870.0
37.773 2941.0
37.8165 2908.0
37.86 2911.0
37.9034 2805.0
37.9469 2926.0
37.9904 2914.0
38.0338 2889.0
38.0773 2918.0
38.1208 2949.0
38.1642 2875.0
38.2077 2840.0
38.2512 2888.0
38.2946 2904.0
38.3381 2891.0
38.3816 2835.0
38.425 2893.0
38.4685 2956.0
38.512 2927.0
38.5554 2940.0
38.5989 2862.0
38.6424 2934.0
38.6858 2924.0
38.7293 2899.0
38.7728 2882.0
38.8162 2893.0
38.8597 2917.0
38.9032 2920.0
38.9466 2964.0
38.9901 2894.0
39.0335 2827.0
39.077 2785.0
39.1205 2784.0
39.1639 2842.0
39.2074 2852.0
39.2509 2873.0
39.2943 2843.0
39.3378 2940.0
39.3813 2882.0
39.4247 2982.0
39.4682 2832.0
39.5117 2895.0
39.5551 2917.0
39.5986 2815.0
39.6421 2943.0
39.6855 2945.0
39.729 2937.0
39.7725 2906.0
39.8159 2877.0
39.8594 2880.0
39.9029 2809.0
39.9463 2885.0
39.9898 2937.0
40.0333 2865.0
40.0767 2913.0
40.1202 2880.0
40.1637 2903.0
40.2071 2912.0
40.2506 2871.0
40.2941 2867.0
40.3375 2924.0
40.381 2919.0
40.4245 2924.0
40.4679 2791.0
40.5114 2940.0
40.5548 2864.0
40.5983 2815.0
40.6418 2917.0
40.6852 2803.0
40.7287 2889.0
40.7722 2849.0
40.8156 2958.0
40.8591 2816.0
40.9026 2856.0
40.946 2772.0
40.9895 2793.0
41.033 2760.0
41.0764 2774.0
41.1199 2786.0
41.1634 2847.0
41.2068 2784.0
41.2503 2754.0
41.2938 2867.0
41.3372 2888.0
41.3807 2720.0
41.4242 2717.0
41.4676 2871.0
41.5111 2852.0
41.5546 2792.0
41.598 2872.0
41.6415 2848.0
41.685 2838.0
41.7284 2848.0
41.7719 2818.0
41.8154 2797.0
41.8588 2795.0
41.9023 2878.0
41.9458 2752.0
41.9892 2787.0
42.0327 2805.0
42.0762 2818.0
42.1196 2885.0
42.1631 2888.0
42.2065 2804.0
42.25 2772.0
42.2935 2781.0
42.3369 2753.0
42.3804 2813.0
42.4239 2781.0
42.4673 2660.0
42.5108 2730.0
42.5543 2733.0
42.5977 2677.0
42.6412 2836.0
42.6847 2844.0
42.7281 2847.0
42.7716 2743.0
42.8151 2681.0
42.8585 2859.0
42.902 2706.0
42.9455 2657.0
42.9889 2833.0
43.0324 2865.0
43.0759 2668.0
43.1193 2716.0
43.1628 2757.0
43.2063 2762.0
43.2497 2672.0
43.2932 2746.0
43.3367 2771.0
43.3801 2701.0
43.4236 2581.0
43.4671 2750.0
43.5105 2675.0
43.554 2610.0
43.5975 2777.0
43.6409 2694.0
43.6844 2601.0
43.7279 2617.0
43.7713 2570.0
43.8148 2724.0
43.8582 2569.0
43.9017 2717.0
43.9452 2722.0
43.9886 2733.0
44.0321 2541.0
44.0756 2618.0
44.119 2653.0
44.1625 2670.0
44.206 2653.0
44.2494 2617.0
44.2929 2649.0
44.3364 2607.0
44.3798 2672.0
44.4233 2568.0
44.4668 2647.0
44.5102 2681.0
44.5537 2574.0
44.5972 2596.0
44.6406 2667.0
44.6841 2584.0
44.7276 2570.0
44.771 2533.0
44.8145 2455.0
44.858 2558.0
44.9014 2462.0
44.9449 2527.0
44.9884 2568.0
45.0318 2556.0
45.0753 2500.0
45.1188 2537.0
45.1622 2447.0
45.2057 2513.0
45.2492 2459.0
45.2926 2396.0
45.3361 2502.0
45.3795 2401.0
45.423 2517.0
45.4665 2527.0
45.5099 2515.0
45.5534 2467.0
45.5969 2454.0
45.6403 2428.0
45.6838 2517.0
45.7273 2443.0
45.7707 2521.0
45.8142 2446.0
45.8577 2415.0
45.9011 2303.0
45.9446 2457.0
45.9881 2435.0
46.0315 2448.0
46.075 2369.0
46.1185 2384.0
46.1619 2363.0
46.2054 2322.0
46.2489 2324.0
46.2923 2339.0
46.3358 2273.0
46.3793 2362.0
46.4227 2385.0
46.4662 2339.0
46.5097 2282.0
46.5531 2304.0
46.5966 2369.0
46.6401 2231.0
46.6835 2328.0
46.727 2319.0
46.7705 2306.0
46.8139 2296.0
46.8574 2253.0
46.9009 2296.0
46.9443 2345.0
46.9878 2286.0
47.0312 2338.0
47.0747 2317.0
47.1182 2295.0
47.1616 2268.0
47.2051 2228.0
47.2486 2214.0
47.292 2216.0
47.3355 2242.0
47.379 2292.0
47.4224 2173.0
47.4659 2268.0
47.5094 2184.0
47.5528 2265.0
47.5963 2143.0
47.6398 2200.0
47.6832 2150.0
47.7267 2255.0
47.7702 2183.0
47.8136 2245.0
47.8571 2036.0
47.9006 2206.0
47.944 2094.0
47.9875 2134.0
48.031 2101.0
48.0744 2066.0
48.1179 2112.0
48.1614 2122.0
48.2048 2102.0
48.2483 2058.0
48.2918 2078.0
48.3352 2131.0
48.3787 1996.0
48.4222 2051.0
48.4656 2035.0
48.5091 2098.0
48.5525 2185.0
48.596 2086.0
48.6395 2079.0
48.6829 1995.0
48.7264 2063.0
48.7699 2082.0
48.8133 1976.0
48.8568 2016.0
48.9003 2083.0
48.9437 2136.0
48.9872 1999.0
49.0307 2050.0
49.0741 2063.0
49.1176 2046.0
49.1611 2013.0
49.2045 1991.0
49.248 2081.0
49.2915 2048.0
49.3349 2085.0
49.3784 1963.0
49.4219 2002.0
49.4653 1984.0
49.5088 1971.0
49.5523 2042.0
49.5957 1946.0
49.6392 1881.0
49.6827 1961.0
49.7261 1959.0
49.7696 1974.0
49.8131 1972.0
49.8565 1954.0
49.9 1827.0
49.9435 1902.0
49.9869 1936.0
50.0304 1878.0
50.0739 1862.0
50.1173 1998.0
50.1608 1962.0
50.2042 1950.0
50.2477 1935.0
50.2912 1893.0
50.3346 1937.0
50.3781 1854.0
50.4216 1911.0
50.465 1820.0
50.5085 1932.0
50.552 1944.0
50.5954 1878.0
50.6389 1905.0
50.6824 1868.0
50.7258 1879.0
50.7693 1895.0
50.8128 1865.0
50.8562 1834.0
50.8997 1831.0
50.9432 1952.0
50.9866 1854.0
51.0301 1858.0
51.0736 1786.0
51.117 1748.0
51.1605 1783.0
51.204 1731.0
51.2474 1846.0
51.2909 1885.0
51.3344 1873.0
51.3778 1831.0
51.4213 1823.0
51.4648 1824.0
51.5082 1773.0
51.5517 1869.0
51.5952 1794.0
51.6386 1756.0
51.6821 1736.0
51.7256 1804.0
51.769 1728.0
51.8125 1777.0
51.8559 1804.0
51.8994 1774.0
51.9429 1717.0
51.9863 1751.0
52.0298 1705.0
52.0733 1763.0
52.1167 1828.0
52.1602 1695.0
52.2037 1689.0
52.2471 1774.0
52.2906 1760.0
52.3341 1654.0
52.3775 1729.0
52.421 1664.0
52.4645 1731.0
52.5079 1696.0
52.5514 1541.0
52.5949 1628.0
52.6383 1764.0
52.6818 1753.0
52.7253 1699.0
52.7687 1691.0
52.8122 1678.0
52.8557 1690.0
52.8991 1670.0
52.9426 1673.0
52.9861 1597.0
53.0295 1601.0
53.073 1653.0
53.1165 1734.0
53.1599 1667.0
53.2034 1656.0
53.2469 1663.0
53.2903 1593.0
53.3338 1707.0
53.3772 1637.0
53.4207 1686.0
53.4642 1686.0
53.5076 1685.0
53.5511 1610.0
53.5946 1616.0
53.638 1623.0
53.6815 1660.0
53.725 1610.0
53.7684 1574.0
53.8119 1623.0
53.8554 1549.0
53.8988 1594.0
53.9423 1672.0
53.9858 1638.0
54.0292 1606.0
54.0727 1554.0
54.1162 1641.0
54.1596 1626.0
54.2031 1561.0
54.2466 1649.0
54.29 1562.0
54.3335 1549.0
54.377 1569.0
54.4204 1548.0
54.4639 1563.0
54.5074 1501.0
54.5508 1562.0
54.5943 1479.0
54.6378 1621.0
54.6812 1603.0
54.7247 1605.0
54.7682 1615.0
54.8116 1623.0
54.8551 1573.0
54.8986 1476.0
54.942 1569.0
54.9855 1563.0
55.0289 1482.0
55.0724 1553.0
55.1159 1512.0
55.1593 1480.0
55.2028 1560.0
55.2463 1495.0
55.2897 1535.0
55.3332 1586.0
55.3767 1551.0
55.4201 1457.0
55.4636 1539.0
55.5071 1511.0
55.5505 1558.0
55.594 1527.0
55.6375 1532.0
55.6809 1482.0
55.7244 1468.0
55.7679 1548.0
55.8113 1457.0
55.8548 1463.0
55.8983 1529.0
55.9417 1496.0
55.9852 1586.0
56.0287 1503.0
56.0721 1576.0
56.1156 1419.0
56.1591 1423.0
56.2025 1484.0
56.246 1480.0
56.2895 1508.0
56.3329 1502.0
56.3764 1420.0
56.4199 1502.0
56.4633 1504.0
56.5068 1425.0
56.5502 1476.0
56.5937 1478.0
56.6372 1404.0
56.6806 1420.0
56.7241 1446.0
56.7676 1464.0
56.811 1533.0
56.8545 1443.0
56.898 1464.0
56.9414 1392.0
56.9849 1426.0
57.0284 1419.0
57.0718 1426.0
57.1153 1477.0
57.1588 1385.0
57.2022 1421.0
57.2457 1359.0
57.2892 1368.0
57.3326 1402.0
57.3761 1370.0
57.4196 1444.0
57.463 1416.0
57.5065 1426.0
57.55 1465.0
57.5934 1428.0
57.6369 1442.0
57.6804 1367.0
57.7238 1370.0
57.7673 1414.0
57.8108 1457.0
57.8542 1429.0
57.8977 1375.0
57.9412 1466.0
57.9846 1403.0
58.0281 1365.0
58.0716 1421.0
58.115 1403.0
58.1585 1425.0
58.2019 1311.0
58.2454 1436.0
58.2889 1390.0
58.3323 1310.0
58.3758 1421.0
58.4193 1376.0
58.4627 1429.0
58.5062 1307.0
58.5497 1351.0
58.5931 1379.0
58.6366 1320.0
58.6801 1340.0
58.7235 1336.0
58.767 1363.0
58.8105 1377.0
58.8539 1347.0
58.8974 1355.0
58.9409 1377.0
58.9843 1283.0
59.0278 1374.0
59.0713 1333.0
59.1147 1366.0
59.1582 1337.0
59.2017 1361.0
59.2451 1261.0
59.2886 1332.0
59.3321 1335.0
59.3755 1348.0
59.419 1345.0
59.4625 1368.0
59.5059 1382.0
59.5494 1378.0
59.5929 1426.0
59.6363 1350.0
59.6798 1345.0
59.7233 1366.0
59.7667 1400.0
59.8102 1349.0
59.8536 1303.0
59.8971 1354.0
59.9406 1327.0
59.984 1303.0
59.9949 1392.0