File: XRD/2023_07_24_pXRD_CBD_Xtal_RT_3_60_8.xy
3.00043 7792.0
3.0439 7404.0
3.08736 6943.0
3.13083 6777.0
3.1743 6356.0
3.21776 5994.0
3.26123 5640.0
3.30469 5230.0
3.34816 4884.0
3.39163 4561.0
3.43509 4341.0
3.47856 3962.0
3.52202 3896.0
3.56549 3504.0
3.60895 3283.0
3.65242 3081.0
3.69589 2898.0
3.73935 2622.0
3.78282 2484.0
3.82628 2317.0
3.86975 2110.0
3.91321 1979.0
3.95668 1860.0
4.00015 1686.0
4.04361 1553.0
4.08708 1406.0
4.13054 1324.0
4.17401 1168.0
4.21747 1123.0
4.26094 1036.0
4.30441 903.0
4.34787 862.0
4.39134 796.0
4.4348 701.0
4.47827 682.0
4.52173 647.0
4.5652 603.0
4.60867 564.0
4.65213 517.0
4.6956 514.0
4.73906 498.0
4.78253 495.0
4.826 487.0
4.86946 507.0
4.91293 484.0
4.95639 488.0
4.99986 518.0
5.04332 566.0
5.08679 635.0
5.13026 540.0
5.17372 432.0
5.21719 409.0
5.26065 469.0
5.30412 464.0
5.34758 419.0
5.39105 367.0
5.43452 398.0
5.47798 399.0
5.52145 412.0
5.56491 421.0
5.60838 359.0
5.65184 387.0
5.69531 392.0
5.73878 398.0
5.78224 398.0
5.82571 411.0
5.86917 425.0
5.91264 443.0
5.9561 432.0
5.99957 370.0
6.04304 394.0
6.0865 355.0
6.12997 344.0
6.17343 332.0
6.2169 325.0
6.26037 332.0
6.30383 303.0
6.3473 308.0
6.39076 344.0
6.43423 317.0
6.47769 312.0
6.52116 315.0
6.56463 302.0
6.60809 310.0
6.65156 278.0
6.69502 298.0
6.73849 307.0
6.78195 345.0
6.82542 300.0
6.86889 272.0
6.91235 325.0
6.95582 319.0
6.99928 289.0
7.04275 291.0
7.08621 262.0
7.12968 334.0
7.17315 311.0
7.21661 303.0
7.26008 280.0
7.30354 281.0
7.34701 324.0
7.39047 297.0
7.43394 263.0
7.47741 287.0
7.52087 286.0
7.56434 296.0
7.6078 318.0
7.65127 313.0
7.69474 336.0
7.7382 291.0
7.78167 337.0
7.82513 300.0
7.8686 300.0
7.91206 311.0
7.95553 319.0
7.999 363.0
8.04246 381.0
8.08593 380.0
8.12939 406.0
8.17286 474.0
8.21632 539.0
8.25979 596.0
8.30326 628.0
8.34672 525.0
8.39019 454.0
8.43365 332.0
8.47712 309.0
8.52058 290.0
8.56405 332.0
8.60752 319.0
8.65098 327.0
8.69445 362.0
8.73791 308.0
8.78138 362.0
8.82485 330.0
8.86831 372.0
8.91178 466.0
8.95524 487.0
8.99871 581.0
9.04217 675.0
9.08564 789.0
9.12911 1091.0
9.17257 1443.0
9.21604 1871.0
9.2595 2129.0
9.30297 2217.0
9.34643 2516.0
9.3899 2459.0
9.43337 2172.0
9.47683 2204.0
9.5203 2869.0
9.56376 3972.0
9.60723 5444.0
9.65069 6801.0
9.69416 7565.0
9.73763 7433.0
9.78109 5128.0
9.82456 2241.0
9.86802 1159.0
9.91149 1209.0
9.95495 1362.0
9.99842 1899.0
10.0419 2668.0
10.0854 4000.0
10.1288 5397.0
10.1723 5179.0
10.2157 4284.0
10.2592 3229.0
10.3027 1395.0
10.3461 613.0
10.3896 450.0
10.4331 454.0
10.4765 406.0
10.52 413.0
10.5635 391.0
10.6069 395.0
10.6504 364.0
10.6939 374.0
10.7373 352.0
10.7808 331.0
10.8243 366.0
10.8677 353.0
10.9112 363.0
10.9547 351.0
10.9981 367.0
11.0416 387.0
11.0851 377.0
11.1285 392.0
11.172 407.0
11.2155 378.0
11.2589 395.0
11.3024 418.0
11.3459 477.0
11.3893 561.0
11.4328 681.0
11.4763 817.0
11.5197 1041.0
11.5632 1406.0
11.6067 1838.0
11.6501 2134.0
11.6936 2420.0
11.7371 2756.0
11.7805 2567.0
11.824 1408.0
11.8674 537.0
11.9109 426.0
11.9544 384.0
11.9978 373.0
12.0413 436.0
12.0848 404.0
12.1282 473.0
12.1717 515.0
12.2152 551.0
12.2586 711.0
12.3021 1006.0
12.3456 1323.0
12.389 1641.0
12.4325 1842.0
12.476 1880.0
12.5194 1859.0
12.5629 1385.0
12.6064 836.0
12.6498 554.0
12.6933 569.0
12.7368 602.0
12.7802 678.0
12.8237 738.0
12.8672 937.0
12.9106 1233.0
12.9541 1791.0
12.9976 2712.0
13.041 3863.0
13.0845 4757.0
13.128 4800.0
13.1714 3557.0
13.2149 2272.0
13.2584 985.0
13.3018 615.0
13.3453 542.0
13.3887 535.0
13.4322 633.0
13.4757 748.0
13.5191 924.0
13.5626 1164.0
13.6061 1916.0
13.6495 2513.0
13.693 2781.0
13.7365 2481.0
13.7799 2105.0
13.8234 1578.0
13.8669 911.0
13.9103 503.0
13.9538 382.0
13.9973 393.0
14.0407 335.0
14.0842 382.0
14.1277 334.0
14.1711 367.0
14.2146 332.0
14.2581 398.0
14.3015 323.0
14.345 345.0
14.3885 363.0
14.4319 317.0
14.4754 374.0
14.5189 415.0
14.5623 351.0
14.6058 428.0
14.6493 445.0
14.6927 469.0
14.7362 566.0
14.7797 697.0
14.8231 906.0
14.8666 1088.0
14.9101 1626.0
14.9535 2301.0
14.997 2710.0
15.0404 2835.0
15.0839 2457.0
15.1274 2140.0
15.1708 1349.0
15.2143 935.0
15.2578 1019.0
15.3012 1031.0
15.3447 765.0
15.3882 689.0
15.4316 572.0
15.4751 395.0
15.5186 385.0
15.562 361.0
15.6055 328.0
15.649 321.0
15.6924 370.0
15.7359 390.0
15.7794 372.0
15.8228 380.0
15.8663 393.0
15.9098 497.0
15.9532 500.0
15.9967 580.0
16.0402 535.0
16.0836 569.0
16.1271 527.0
16.1706 412.0
16.214 385.0
16.2575 392.0
16.301 379.0
16.3444 432.0
16.3879 494.0
16.4314 572.0
16.4748 670.0
16.5183 742.0
16.5618 817.0
16.6052 782.0
16.6487 708.0
16.6921 654.0
16.7356 551.0
16.7791 639.0
16.8225 692.0
16.866 914.0
16.9095 1075.0
16.9529 1126.0
16.9964 1190.0
17.0399 1158.0
17.0833 1076.0
17.1268 1199.0
17.1703 1692.0
17.2137 2542.0
17.2572 4302.0
17.3007 6144.0
17.3441 7253.0
17.3876 6878.0
17.4311 4901.0
17.4745 2455.0
17.518 1163.0
17.5615 699.0
17.6049 572.0
17.6484 632.0
17.6919 688.0
17.7353 794.0
17.7788 1032.0
17.8223 1177.0
17.8657 1166.0
17.9092 1125.0
17.9527 941.0
17.9961 658.0
18.0396 549.0
18.0831 534.0
18.1265 562.0
18.17 538.0
18.2134 528.0
18.2569 529.0
18.3004 526.0
18.3438 612.0
18.3873 691.0
18.4308 845.0
18.4742 1081.0
18.5177 1488.0
18.5612 2348.0
18.6046 3485.0
18.6481 4629.0
18.6916 5084.0
18.735 4989.0
18.7785 4803.0
18.822 4392.0
18.8654 3464.0
18.9089 3094.0
18.9524 3083.0
18.9958 3239.0
19.0393 2303.0
19.0828 1631.0
19.1262 1204.0
19.1697 1011.0
19.2132 726.0
19.2566 759.0
19.3001 849.0
19.3436 1084.0
19.387 1357.0
19.4305 1665.0
19.474 1780.0
19.5174 1997.0
19.5609 1623.0
19.6044 1227.0
19.6478 957.0
19.6913 888.0
19.7348 912.0
19.7782 942.0
19.8217 826.0
19.8651 702.0
19.9086 621.0
19.9521 571.0
19.9955 589.0
20.039 614.0
20.0825 598.0
20.1259 617.0
20.1694 633.0
20.2129 705.0
20.2563 917.0
20.2998 1282.0
20.3433 1804.0
20.3867 2877.0
20.4302 4414.0
20.4737 4579.0
20.5171 4130.0
20.5606 3630.0
20.6041 2688.0
20.6475 1674.0
20.691 1143.0
20.7345 1217.0
20.7779 1465.0
20.8214 1506.0
20.8649 1593.0
20.9083 1441.0
20.9518 1150.0
20.9953 762.0
21.0387 625.0
21.0822 536.0
21.1257 587.0
21.1691 587.0
21.2126 595.0
21.2561 648.0
21.2995 673.0
21.343 708.0
21.3864 828.0
21.4299 1204.0
21.4734 1714.0
21.5168 2469.0
21.5603 2968.0
21.6038 3342.0
21.6472 3496.0
21.6907 3210.0
21.7342 2281.0
21.7776 1579.0
21.8211 1316.0
21.8646 1756.0
21.908 2630.0
21.9515 3706.0
21.995 5087.0
22.0384 6098.0
22.0819 6944.0
22.1254 6465.0
22.1688 5500.0
22.2123 4715.0
22.2558 3074.0
22.2992 1701.0
22.3427 897.0
22.3862 754.0
22.4296 848.0
22.4731 983.0
22.5166 1319.0
22.56 1751.0
22.6035 2115.0
22.647 2305.0
22.6904 2354.0
22.7339 2157.0
22.7774 1639.0
22.8208 1340.0
22.8643 1213.0
22.9078 1223.0
22.9512 1352.0
22.9947 1180.0
23.0381 1109.0
23.0816 972.0
23.1251 827.0
23.1685 770.0
23.212 678.0
23.2555 704.0
23.2989 664.0
23.3424 627.0
23.3859 582.0
23.4293 706.0
23.4728 842.0
23.5163 1003.0
23.5597 1511.0
23.6032 2097.0
23.6467 3082.0
23.6901 3866.0
23.7336 4097.0
23.7771 3034.0
23.8205 1929.0
23.864 1278.0
23.9075 933.0
23.9509 677.0
23.9944 660.0
24.0379 585.0
24.0813 591.0
24.1248 570.0
24.1683 706.0
24.2117 956.0
24.2552 1238.0
24.2987 1354.0
24.3421 1625.0
24.3856 1826.0
24.4291 1825.0
24.4725 1335.0
24.516 966.0
24.5595 857.0
24.6029 879.0
24.6464 816.0
24.6898 924.0
24.7333 925.0
24.7768 828.0
24.8202 660.0
24.8637 512.0
24.9072 530.0
24.9506 559.0
24.9941 643.0
25.0376 775.0
25.081 852.0
25.1245 954.0
25.168 1124.0
25.2114 1257.0
25.2549 1334.0
25.2984 1198.0
25.3418 1112.0
25.3853 947.0
25.4288 846.0
25.4722 752.0
25.5157 721.0
25.5592 645.0
25.6026 664.0
25.6461 615.0
25.6896 527.0
25.733 455.0
25.7765 419.0
25.82 427.0
25.8634 413.0
25.9069 471.0
25.9504 483.0
25.9938 496.0
26.0373 551.0
26.0808 620.0
26.1242 595.0
26.1677 695.0
26.2111 713.0
26.2546 710.0
26.2981 808.0
26.3415 988.0
26.385 1061.0
26.4285 1151.0
26.4719 1211.0
26.5154 1041.0
26.5589 1015.0
26.6023 986.0
26.6458 910.0
26.6893 853.0
26.7327 815.0
26.7762 709.0
26.8197 566.0
26.8631 561.0
26.9066 641.0
26.9501 736.0
26.9935 821.0
27.037 845.0
27.0805 849.0
27.1239 849.0
27.1674 794.0
27.2109 706.0
27.2543 670.0
27.2978 752.0
27.3413 878.0
27.3847 1178.0
27.4282 1253.0
27.4717 1434.0
27.5151 1333.0
27.5586 1359.0
27.6021 1371.0
27.6455 1513.0
27.689 1374.0
27.7325 1124.0
27.7759 823.0
27.8194 688.0
27.8628 597.0
27.9063 586.0
27.9498 520.0
27.9932 524.0
28.0367 514.0
28.0802 543.0
28.1236 587.0
28.1671 591.0
28.2106 578.0
28.254 535.0
28.2975 535.0
28.341 619.0
28.3844 648.0
28.4279 669.0
28.4714 653.0
28.5148 702.0
28.5583 712.0
28.6018 773.0
28.6452 922.0
28.6887 1063.0
28.7322 910.0
28.7756 792.0
28.8191 678.0
28.8626 811.0
28.906 1115.0
28.9495 1442.0
28.993 1689.0
29.0364 1677.0
29.0799 1578.0
29.1234 1273.0
29.1668 918.0
29.2103 692.0
29.2538 590.0
29.2972 530.0
29.3407 558.0
29.3841 588.0
29.4276 495.0
29.4711 594.0
29.5145 526.0
29.558 520.0
29.6015 489.0
29.6449 411.0
29.6884 400.0
29.7319 349.0
29.7753 364.0
29.8188 359.0
29.8623 367.0
29.9057 379.0
29.9492 343.0
29.9927 347.0
30.0361 356.0
30.0796 384.0
30.1231 393.0
30.1665 390.0
30.21 436.0
30.2535 487.0
30.2969 511.0
30.3404 503.0
30.3839 565.0
30.4273 533.0
30.4708 520.0
30.5143 529.0
30.5577 500.0
30.6012 477.0
30.6447 540.0
30.6881 490.0
30.7316 473.0
30.7751 443.0
30.8185 462.0
30.862 436.0
30.9055 482.0
30.9489 517.0
30.9924 593.0
31.0358 683.0
31.0793 699.0
31.1228 857.0
31.1662 829.0
31.2097 741.0
31.2532 687.0
31.2966 570.0
31.3401 471.0
31.3836 469.0
31.427 428.0
31.4705 371.0
31.514 349.0
31.5574 356.0
31.6009 332.0
31.6444 295.0
31.6878 320.0
31.7313 345.0
31.7748 331.0
31.8182 344.0
31.8617 393.0
31.9052 424.0
31.9486 398.0
31.9921 464.0
32.0356 424.0
32.079 459.0
32.1225 431.0
32.166 408.0
32.2094 407.0
32.2529 393.0
32.2964 377.0
32.3398 393.0
32.3833 444.0
32.4268 502.0
32.4702 532.0
32.5137 553.0
32.5572 632.0
32.6006 578.0
32.6441 467.0
32.6875 503.0
32.731 446.0
32.7745 445.0
32.8179 440.0
32.8614 442.0
32.9049 445.0
32.9483 450.0
32.9918 431.0
33.0353 428.0
33.0787 441.0
33.1222 431.0
33.1657 479.0
33.2091 527.0
33.2526 514.0
33.2961 519.0
33.3395 500.0
33.383 410.0
33.4265 380.0
33.4699 396.0
33.5134 392.0
33.5569 405.0
33.6003 431.0
33.6438 405.0
33.6873 390.0
33.7307 402.0
33.7742 404.0
33.8177 411.0
33.8611 535.0
33.9046 614.0
33.9481 703.0
33.9915 673.0
34.035 720.0
34.0785 636.0
34.1219 569.0
34.1654 463.0
34.2088 504.0
34.2523 461.0
34.2958 414.0
34.3392 474.0
34.3827 486.0
34.4262 512.0
34.4696 543.0
34.5131 522.0
34.5566 542.0
34.6 544.0
34.6435 616.0
34.687 625.0
34.7304 603.0
34.7739 578.0
34.8174 543.0
34.8608 534.0
34.9043 527.0
34.9478 510.0
34.9912 457.0
35.0347 470.0
35.0782 461.0
35.1216 587.0
35.1651 580.0
35.2086 616.0
35.252 599.0
35.2955 547.0
35.339 441.0
35.3824 419.0
35.4259 377.0
35.4694 326.0
35.5128 410.0
35.5563 335.0
35.5998 352.0
35.6432 379.0
35.6867 335.0
35.7302 385.0
35.7736 375.0
35.8171 408.0
35.8605 381.0
35.904 363.0
35.9475 366.0
35.9909 338.0
36.0344 305.0
36.0779 308.0
36.1213 367.0
36.1648 345.0
36.2083 367.0
36.2517 365.0
36.2952 372.0
36.3387 395.0
36.3821 399.0
36.4256 486.0
36.4691 494.0
36.5125 508.0
36.556 561.0
36.5995 497.0
36.6429 509.0
36.6864 464.0
36.7299 464.0
36.7733 427.0
36.8168 468.0
36.8603 488.0
36.9037 460.0
36.9472 495.0
36.9907 479.0
37.0341 453.0
37.0776 497.0
37.1211 489.0
37.1645 455.0
37.208 425.0
37.2515 402.0
37.2949 405.0
37.3384 469.0
37.3818 420.0
37.4253 415.0
37.4688 347.0
37.5122 385.0
37.5557 319.0
37.5992 393.0
37.6426 383.0
37.6861 390.0
37.7296 423.0
37.773 454.0
37.8165 467.0
37.86 419.0
37.9034 430.0
37.9469 420.0
37.9904 431.0
38.0338 439.0
38.0773 430.0
38.1208 427.0
38.1642 400.0
38.2077 428.0
38.2512 389.0
38.2946 364.0
38.3381 342.0
38.3816 329.0
38.425 348.0
38.4685 342.0
38.512 391.0
38.5554 335.0
38.5989 338.0
38.6424 322.0
38.6858 312.0
38.7293 348.0
38.7728 362.0
38.8162 339.0
38.8597 315.0
38.9032 333.0
38.9466 350.0
38.9901 381.0
39.0335 372.0
39.077 359.0
39.1205 386.0
39.1639 351.0
39.2074 365.0
39.2509 368.0
39.2943 317.0
39.3378 374.0
39.3813 398.0
39.4247 317.0
39.4682 341.0
39.5117 302.0
39.5551 299.0
39.5986 345.0
39.6421 329.0
39.6855 322.0
39.729 316.0
39.7725 338.0
39.8159 303.0
39.8594 300.0
39.9029 260.0
39.9463 295.0
39.9898 320.0
40.0333 333.0
40.0767 355.0
40.1202 386.0
40.1637 424.0
40.2071 409.0
40.2506 483.0
40.2941 505.0
40.3375 550.0
40.381 554.0
40.4245 596.0
40.4679 607.0
40.5114 492.0
40.5548 419.0
40.5983 432.0
40.6418 430.0
40.6852 368.0
40.7287 341.0
40.7722 353.0
40.8156 289.0
40.8591 338.0
40.9026 329.0
40.946 357.0
40.9895 321.0
41.033 305.0
41.0764 302.0
41.1199 290.0
41.1634 297.0
41.2068 300.0
41.2503 309.0
41.2938 264.0
41.3372 267.0
41.3807 282.0
41.4242 312.0
41.4676 309.0
41.5111 335.0
41.5546 351.0
41.598 364.0
41.6415 356.0
41.685 444.0
41.7284 430.0
41.7719 491.0
41.8154 531.0
41.8588 500.0
41.9023 433.0
41.9458 401.0
41.9892 363.0
42.0327 286.0
42.0762 327.0
42.1196 318.0
42.1631 310.0
42.2065 346.0
42.25 354.0
42.2935 366.0
42.3369 446.0
42.3804 471.0
42.4239 512.0
42.4673 513.0
42.5108 449.0
42.5543 442.0
42.5977 443.0
42.6412 397.0
42.6847 409.0
42.7281 357.0
42.7716 361.0
42.8151 346.0
42.8585 362.0
42.902 325.0
42.9455 341.0
42.9889 319.0
43.0324 271.0
43.0759 320.0
43.1193 329.0
43.1628 362.0
43.2063 421.0
43.2497 399.0
43.2932 368.0
43.3367 382.0
43.3801 356.0
43.4236 355.0
43.4671 359.0
43.5105 344.0
43.554 313.0
43.5975 327.0
43.6409 300.0
43.6844 302.0
43.7279 259.0
43.7713 295.0
43.8148 270.0
43.8582 302.0
43.9017 274.0
43.9452 274.0
43.9886 241.0
44.0321 258.0
44.0756 264.0
44.119 226.0
44.1625 304.0
44.206 273.0
44.2494 320.0
44.2929 290.0
44.3364 303.0
44.3798 325.0
44.4233 307.0
44.4668 305.0
44.5102 318.0
44.5537 300.0
44.5972 268.0
44.6406 291.0
44.6841 293.0
44.7276 277.0
44.771 297.0
44.8145 333.0
44.858 287.0
44.9014 303.0
44.9449 367.0
44.9884 354.0
45.0318 400.0
45.0753 398.0
45.1188 389.0
45.1622 357.0
45.2057 381.0
45.2492 332.0
45.2926 376.0
45.3361 396.0
45.3795 383.0
45.423 368.0
45.4665 336.0
45.5099 318.0
45.5534 302.0
45.5969 264.0
45.6403 284.0
45.6838 286.0
45.7273 236.0
45.7707 333.0
45.8142 329.0
45.8577 295.0
45.9011 314.0
45.9446 317.0
45.9881 319.0
46.0315 306.0
46.075 338.0
46.1185 352.0
46.1619 353.0
46.2054 326.0
46.2489 318.0
46.2923 344.0
46.3358 376.0
46.3793 349.0
46.4227 322.0
46.4662 348.0
46.5097 325.0
46.5531 310.0
46.5966 307.0
46.6401 285.0
46.6835 336.0
46.727 360.0
46.7705 330.0
46.8139 354.0
46.8574 327.0
46.9009 325.0
46.9443 298.0
46.9878 311.0
47.0312 250.0
47.0747 285.0
47.1182 273.0
47.1616 277.0
47.2051 272.0
47.2486 238.0
47.292 278.0
47.3355 262.0
47.379 249.0
47.4224 302.0
47.4659 273.0
47.5094 262.0
47.5528 274.0
47.5963 300.0
47.6398 326.0
47.6832 294.0
47.7267 266.0
47.7702 301.0
47.8136 234.0
47.8571 276.0
47.9006 225.0
47.944 290.0
47.9875 258.0
48.031 258.0
48.0744 292.0
48.1179 305.0
48.1614 247.0
48.2048 275.0
48.2483 292.0
48.2918 260.0
48.3352 266.0
48.3787 220.0
48.4222 242.0
48.4656 283.0
48.5091 270.0
48.5525 312.0
48.596 270.0
48.6395 319.0
48.6829 262.0
48.7264 270.0
48.7699 306.0
48.8133 277.0
48.8568 287.0
48.9003 318.0
48.9437 366.0
48.9872 397.0
49.0307 379.0
49.0741 333.0
49.1176 342.0
49.1611 332.0
49.2045 297.0
49.248 300.0
49.2915 322.0
49.3349 347.0
49.3784 298.0
49.4219 285.0
49.4653 311.0
49.5088 318.0
49.5523 265.0
49.5957 241.0
49.6392 256.0
49.6827 247.0
49.7261 249.0
49.7696 257.0
49.8131 225.0
49.8565 242.0
49.9 275.0
49.9435 304.0
49.9869 248.0
50.0304 307.0
50.0739 308.0
50.1173 283.0
50.1608 312.0
50.2042 302.0
50.2477 281.0
50.2912 259.0
50.3346 279.0
50.3781 289.0
50.4216 283.0
50.465 303.0
50.5085 289.0
50.552 260.0
50.5954 278.0
50.6389 234.0
50.6824 263.0
50.7258 216.0
50.7693 243.0
50.8128 235.0
50.8562 249.0
50.8997 237.0
50.9432 239.0
50.9866 268.0
51.0301 228.0
51.0736 212.0
51.117 250.0
51.1605 250.0
51.204 223.0
51.2474 222.0
51.2909 226.0
51.3344 191.0
51.3778 226.0
51.4213 250.0
51.4648 235.0
51.5082 239.0
51.5517 243.0
51.5952 274.0
51.6386 278.0
51.6821 287.0
51.7256 260.0
51.769 278.0
51.8125 241.0
51.8559 270.0
51.8994 295.0
51.9429 239.0
51.9863 321.0
52.0298 261.0
52.0733 296.0
52.1167 323.0
52.1602 287.0
52.2037 272.0
52.2471 266.0
52.2906 237.0
52.3341 237.0
52.3775 215.0
52.421 236.0
52.4645 250.0
52.5079 225.0
52.5514 244.0
52.5949 239.0
52.6383 233.0
52.6818 239.0
52.7253 232.0
52.7687 226.0
52.8122 263.0
52.8557 279.0
52.8991 271.0
52.9426 263.0
52.9861 259.0
53.0295 258.0
53.073 239.0
53.1165 197.0
53.1599 203.0
53.2034 227.0
53.2469 196.0
53.2903 213.0
53.3338 233.0
53.3772 209.0
53.4207 202.0
53.4642 230.0
53.5076 220.0
53.5511 220.0
53.5946 218.0
53.638 235.0
53.6815 259.0
53.725 213.0
53.7684 221.0
53.8119 230.0
53.8554 217.0
53.8988 216.0
53.9423 198.0
53.9858 208.0
54.0292 187.0
54.0727 212.0
54.1162 219.0
54.1596 221.0
54.2031 265.0
54.2466 233.0
54.29 245.0
54.3335 209.0
54.377 193.0
54.4204 211.0
54.4639 182.0
54.5074 200.0
54.5508 199.0
54.5943 210.0
54.6378 176.0
54.6812 199.0
54.7247 195.0
54.7682 205.0
54.8116 205.0
54.8551 196.0
54.8986 207.0
54.942 186.0
54.9855 202.0
55.0289 212.0
55.0724 236.0
55.1159 225.0
55.1593 201.0
55.2028 194.0
55.2463 197.0
55.2897 219.0
55.3332 194.0
55.3767 203.0
55.4201 183.0
55.4636 206.0
55.5071 201.0
55.5505 197.0
55.594 203.0
55.6375 233.0
55.6809 233.0
55.7244 221.0
55.7679 210.0
55.8113 201.0
55.8548 208.0
55.8983 202.0
55.9417 225.0
55.9852 180.0
56.0287 181.0
56.0721 184.0
56.1156 213.0
56.1591 205.0
56.2025 172.0
56.246 166.0
56.2895 176.0
56.3329 202.0
56.3764 207.0
56.4199 166.0
56.4633 174.0
56.5068 226.0
56.5502 174.0
56.5937 196.0
56.6372 198.0
56.6806 190.0
56.7241 169.0
56.7676 172.0
56.811 193.0
56.8545 204.0
56.898 174.0
56.9414 178.0
56.9849 172.0
57.0284 194.0
57.0718 184.0
57.1153 175.0
57.1588 193.0
57.2022 183.0
57.2457 164.0
57.2892 177.0
57.3326 168.0
57.3761 193.0
57.4196 177.0
57.463 180.0
57.5065 169.0
57.55 186.0
57.5934 163.0
57.6369 171.0
57.6804 173.0
57.7238 201.0
57.7673 160.0
57.8108 182.0
57.8542 192.0
57.8977 166.0
57.9412 168.0
57.9846 181.0
58.0281 166.0
58.0716 182.0
58.115 169.0
58.1585 171.0
58.2019 196.0
58.2454 174.0
58.2889 180.0
58.3323 150.0
58.3758 176.0
58.4193 172.0
58.4627 154.0
58.5062 164.0
58.5497 150.0
58.5931 161.0
58.6366 177.0
58.6801 179.0
58.7235 171.0
58.767 197.0
58.8105 187.0
58.8539 136.0
58.8974 165.0
58.9409 196.0
58.9843 181.0
59.0278 172.0
59.0713 182.0
59.1147 177.0
59.1582 163.0
59.2017 154.0
59.2451 170.0
59.2886 181.0
59.3321 190.0
59.3755 184.0
59.419 169.0
59.4625 160.0
59.5059 153.0
59.5494 177.0
59.5929 161.0
59.6363 159.0
59.6798 142.0
59.7233 167.0
59.7667 174.0
59.8102 169.0
59.8536 140.0
59.8971 190.0
59.9406 163.0
59.984 157.0
59.9949 154.0