File: XRD/2023_07_24_CBD_Liq_3_60_22min_pXRD.xy
3.00043 24135.0
3.0439 23152.0
3.08736 22262.0
3.13083 20843.0
3.1743 19803.0
3.21776 18806.0
3.26123 17438.0
3.30469 16528.0
3.34816 15603.0
3.39163 14728.0
3.43509 13817.0
3.47856 12726.0
3.52202 12106.0
3.56549 11313.0
3.60895 10689.0
3.65242 10028.0
3.69589 9322.0
3.73935 8610.0
3.78282 8160.0
3.82628 7578.0
3.86975 7058.0
3.91321 6574.0
3.95668 6095.0
4.00015 5689.0
4.04361 5311.0
4.08708 4896.0
4.13054 4649.0
4.17401 4326.0
4.21747 3925.0
4.26094 3734.0
4.30441 3573.0
4.34787 3386.0
4.39134 3065.0
4.4348 2858.0
4.47827 2762.0
4.52173 2696.0
4.5652 2548.0
4.60867 2425.0
4.65213 2346.0
4.6956 2553.0
4.73906 2376.0
4.78253 2434.0
4.826 2349.0
4.86946 2424.0
4.91293 2406.0
4.95639 2467.0
4.99986 2475.0
5.04332 2457.0
5.08679 2646.0
5.13026 2620.0
5.17372 2695.0
5.21719 2727.0
5.26065 2777.0
5.30412 2861.0
5.34758 2915.0
5.39105 2916.0
5.43452 2941.0
5.47798 3059.0
5.52145 3100.0
5.56491 3226.0
5.60838 3294.0
5.65184 3218.0
5.69531 3339.0
5.73878 3524.0
5.78224 3543.0
5.82571 3539.0
5.86917 3723.0
5.91264 3757.0
5.9561 3955.0
5.99957 3928.0
6.04304 3831.0
6.0865 3755.0
6.12997 3913.0
6.17343 3934.0
6.2169 3979.0
6.26037 3966.0
6.30383 4121.0
6.3473 4091.0
6.39076 4115.0
6.43423 4339.0
6.47769 4390.0
6.52116 4565.0
6.56463 4453.0
6.60809 4608.0
6.65156 4620.0
6.69502 4575.0
6.73849 4774.0
6.78195 4905.0
6.82542 4788.0
6.86889 4812.0
6.91235 5004.0
6.95582 5006.0
6.99928 5072.0
7.04275 5120.0
7.08621 5046.0
7.12968 5010.0
7.17315 5212.0
7.21661 5226.0
7.26008 5134.0
7.30354 5307.0
7.34701 5218.0
7.39047 5304.0
7.43394 5350.0
7.47741 5356.0
7.52087 5494.0
7.56434 5407.0
7.6078 5389.0
7.65127 5445.0
7.69474 5557.0
7.7382 5455.0
7.78167 5586.0
7.82513 5474.0
7.8686 5491.0
7.91206 5445.0
7.95553 5432.0
7.999 5496.0
8.04246 5562.0
8.08593 5346.0
8.12939 5365.0
8.17286 5370.0
8.21632 5398.0
8.25979 5521.0
8.30326 5556.0
8.34672 5422.0
8.39019 5433.0
8.43365 5225.0
8.47712 5296.0
8.52058 5348.0
8.56405 5407.0
8.60752 5328.0
8.65098 5236.0
8.69445 5287.0
8.73791 5331.0
8.78138 5316.0
8.82485 5144.0
8.86831 5250.0
8.91178 5093.0
8.95524 5251.0
8.99871 5318.0
9.04217 5074.0
9.08564 5079.0
9.12911 5035.0
9.17257 5207.0
9.21604 5142.0
9.2595 5079.0
9.30297 5046.0
9.34643 5075.0
9.3899 5039.0
9.43337 5027.0
9.47683 5104.0
9.5203 5124.0
9.56376 4904.0
9.60723 5044.0
9.65069 5123.0
9.69416 4915.0
9.73763 5007.0
9.78109 5027.0
9.82456 5082.0
9.86802 5068.0
9.91149 5082.0
9.95495 5000.0
9.99842 4916.0
10.0419 5002.0
10.0854 4936.0
10.1288 4871.0
10.1723 4932.0
10.2157 5015.0
10.2592 5000.0
10.3027 5090.0
10.3461 5132.0
10.3896 4927.0
10.4331 4937.0
10.4765 5019.0
10.52 4990.0
10.5635 4917.0
10.6069 4918.0
10.6504 4923.0
10.6939 5047.0
10.7373 4973.0
10.7808 5167.0
10.8243 5037.0
10.8677 4985.0
10.9112 5194.0
10.9547 5081.0
10.9981 5161.0
11.0416 5236.0
11.0851 5195.0
11.1285 5181.0
11.172 5215.0
11.2155 5335.0
11.2589 5276.0
11.3024 5268.0
11.3459 5221.0
11.3893 5270.0
11.4328 5375.0
11.4763 5395.0
11.5197 5377.0
11.5632 5372.0
11.6067 5418.0
11.6501 5375.0
11.6936 5482.0
11.7371 5507.0
11.7805 5667.0
11.824 5746.0
11.8674 5694.0
11.9109 5727.0
11.9544 5657.0
11.9978 5916.0
12.0413 5707.0
12.0848 5857.0
12.1282 5937.0
12.1717 5952.0
12.2152 5875.0
12.2586 5989.0
12.3021 6144.0
12.3456 6150.0
12.389 6283.0
12.4325 6268.0
12.476 6400.0
12.5194 6370.0
12.5629 6502.0
12.6064 6410.0
12.6498 6540.0
12.6933 6602.0
12.7368 6610.0
12.7802 6834.0
12.8237 6418.0
12.8672 6740.0
12.9106 6914.0
12.9541 6774.0
12.9976 6914.0
13.041 6834.0
13.0845 7130.0
13.128 6944.0
13.1714 7018.0
13.2149 7152.0
13.2584 7171.0
13.3018 7246.0
13.3453 7346.0
13.3887 7328.0
13.4322 7374.0
13.4757 7301.0
13.5191 7611.0
13.5626 7511.0
13.6061 7534.0
13.6495 7643.0
13.693 7559.0
13.7365 7866.0
13.7799 7757.0
13.8234 7663.0
13.8669 7697.0
13.9103 7582.0
13.9538 7819.0
13.9973 8034.0
14.0407 7805.0
14.0842 7916.0
14.1277 7958.0
14.1711 8051.0
14.2146 7983.0
14.2581 8099.0
14.3015 8094.0
14.345 8061.0
14.3885 8173.0
14.4319 8185.0
14.4754 8111.0
14.5189 8069.0
14.5623 8291.0
14.6058 8118.0
14.6493 8381.0
14.6927 8248.0
14.7362 8171.0
14.7797 8346.0
14.8231 8292.0
14.8666 8389.0
14.9101 8329.0
14.9535 8312.0
14.997 8455.0
15.0404 8256.0
15.0839 8271.0
15.1274 8194.0
15.1708 8386.0
15.2143 8127.0
15.2578 8245.0
15.3012 8303.0
15.3447 8419.0
15.3882 8355.0
15.4316 8472.0
15.4751 8298.0
15.5186 8578.0
15.562 8416.0
15.6055 8394.0
15.649 8403.0
15.6924 8440.0
15.7359 8240.0
15.7794 8386.0
15.8228 8545.0
15.8663 8488.0
15.9098 8517.0
15.9532 8450.0
15.9967 8443.0
16.0402 8432.0
16.0836 8369.0
16.1271 8392.0
16.1706 8389.0
16.214 8330.0
16.2575 8434.0
16.301 8389.0
16.3444 8406.0
16.3879 8511.0
16.4314 8242.0
16.4748 8538.0
16.5183 8530.0
16.5618 8561.0
16.6052 8593.0
16.6487 8479.0
16.6921 8574.0
16.7356 8570.0
16.7791 8531.0
16.8225 8675.0
16.866 8514.0
16.9095 8645.0
16.9529 8445.0
16.9964 8595.0
17.0399 8469.0
17.0833 8624.0
17.1268 8426.0
17.1703 8695.0
17.2137 8560.0
17.2572 8605.0
17.3007 8765.0
17.3441 8768.0
17.3876 8691.0
17.4311 8626.0
17.4745 8778.0
17.518 8834.0
17.5615 8939.0
17.6049 8824.0
17.6484 8770.0
17.6919 8912.0
17.7353 8767.0
17.7788 8970.0
17.8223 9033.0
17.8657 8912.0
17.9092 9032.0
17.9527 9107.0
17.9961 9072.0
18.0396 8999.0
18.0831 8966.0
18.1265 9202.0
18.17 9087.0
18.2134 9110.0
18.2569 9260.0
18.3004 9166.0
18.3438 9027.0
18.3873 9149.0
18.4308 9219.0
18.4742 9195.0
18.5177 9284.0
18.5612 9239.0
18.6046 9200.0
18.6481 9148.0
18.6916 9341.0
18.735 9287.0
18.7785 9123.0
18.822 9311.0
18.8654 9387.0
18.9089 9514.0
18.9524 9242.0
18.9958 9392.0
19.0393 9301.0
19.0828 9318.0
19.1262 9394.0
19.1697 9605.0
19.2132 9507.0
19.2566 9270.0
19.3001 9358.0
19.3436 9326.0
19.387 9472.0
19.4305 9378.0
19.474 9440.0
19.5174 9335.0
19.5609 9391.0
19.6044 9227.0
19.6478 9411.0
19.6913 9288.0
19.7348 9300.0
19.7782 9411.0
19.8217 9278.0
19.8651 9145.0
19.9086 9223.0
19.9521 9270.0
19.9955 9316.0
20.039 9048.0
20.0825 9425.0
20.1259 9081.0
20.1694 9501.0
20.2129 9230.0
20.2563 9080.0
20.2998 9183.0
20.3433 8975.0
20.3867 9025.0
20.4302 8947.0
20.4737 9104.0
20.5171 9084.0
20.5606 9031.0
20.6041 8994.0
20.6475 8952.0
20.691 9079.0
20.7345 8810.0
20.7779 9026.0
20.8214 8940.0
20.8649 8922.0
20.9083 9014.0
20.9518 8940.0
20.9953 8769.0
21.0387 8696.0
21.0822 8842.0
21.1257 8511.0
21.1691 8537.0
21.2126 8630.0
21.2561 8672.0
21.2995 8280.0
21.343 8506.0
21.3864 8640.0
21.4299 8463.0
21.4734 8478.0
21.5168 8502.0
21.5603 8449.0
21.6038 8262.0
21.6472 8102.0
21.6907 8509.0
21.7342 8114.0
21.7776 8165.0
21.8211 8174.0
21.8646 8140.0
21.908 8005.0
21.9515 8056.0
21.995 8270.0
22.0384 8064.0
22.0819 7733.0
22.1254 8084.0
22.1688 7737.0
22.2123 7787.0
22.2558 8006.0
22.2992 7879.0
22.3427 7834.0
22.3862 7996.0
22.4296 7614.0
22.4731 7454.0
22.5166 7534.0
22.56 7716.0
22.6035 7457.0
22.647 7406.0
22.6904 7346.0
22.7339 7524.0
22.7774 7284.0
22.8208 7318.0
22.8643 7314.0
22.9078 7162.0
22.9512 7184.0
22.9947 7186.0
23.0381 7085.0
23.0816 7167.0
23.1251 7047.0
23.1685 6967.0
23.212 6924.0
23.2555 7014.0
23.2989 6876.0
23.3424 6748.0
23.3859 6708.0
23.4293 6688.0
23.4728 6780.0
23.5163 6603.0
23.5597 6532.0
23.6032 6603.0
23.6467 6629.0
23.6901 6422.0
23.7336 6483.0
23.7771 6314.0
23.8205 6338.0
23.864 6343.0
23.9075 6344.0
23.9509 6316.0
23.9944 6161.0
24.0379 6129.0
24.0813 6047.0
24.1248 6030.0
24.1683 6212.0
24.2117 5977.0
24.2552 5938.0
24.2987 6009.0
24.3421 5906.0
24.3856 6027.0
24.4291 5899.0
24.4725 5818.0
24.516 5805.0
24.5595 5798.0
24.6029 5743.0
24.6464 5734.0
24.6898 5822.0
24.7333 5632.0
24.7768 5556.0
24.8202 5577.0
24.8637 5512.0
24.9072 5359.0
24.9506 5440.0
24.9941 5371.0
25.0376 5580.0
25.081 5325.0
25.1245 5288.0
25.168 5344.0
25.2114 5411.0
25.2549 5188.0
25.2984 5361.0
25.3418 5238.0
25.3853 5086.0
25.4288 5135.0
25.4722 5159.0
25.5157 5170.0
25.5592 4992.0
25.6026 5027.0
25.6461 4958.0
25.6896 5026.0
25.733 4828.0
25.7765 4952.0
25.82 4909.0
25.8634 5021.0
25.9069 4792.0
25.9504 4875.0
25.9938 4702.0
26.0373 4777.0
26.0808 4644.0
26.1242 4761.0
26.1677 4696.0
26.2111 4672.0
26.2546 4676.0
26.2981 4556.0
26.3415 4587.0
26.385 4560.0
26.4285 4462.0
26.4719 4473.0
26.5154 4449.0
26.5589 4427.0
26.6023 4368.0
26.6458 4281.0
26.6893 4444.0
26.7327 4373.0
26.7762 4354.0
26.8197 4396.0
26.8631 4305.0
26.9066 4160.0
26.9501 4298.0
26.9935 4278.0
27.037 4266.0
27.0805 4257.0
27.1239 4172.0
27.1674 4233.0
27.2109 4152.0
27.2543 4202.0
27.2978 4080.0
27.3413 4131.0
27.3847 4011.0
27.4282 4056.0
27.4717 4038.0
27.5151 4048.0
27.5586 3930.0
27.6021 4011.0
27.6455 3973.0
27.689 3972.0
27.7325 4020.0
27.7759 3875.0
27.8194 3938.0
27.8628 3800.0
27.9063 3918.0
27.9498 3846.0
27.9932 3897.0
28.0367 3853.0
28.0802 3863.0
28.1236 3738.0
28.1671 3720.0
28.2106 3839.0
28.254 3742.0
28.2975 3772.0
28.341 3695.0
28.3844 3668.0
28.4279 3696.0
28.4714 3685.0
28.5148 3641.0
28.5583 3509.0
28.6018 3498.0
28.6452 3595.0
28.6887 3530.0
28.7322 3432.0
28.7756 3503.0
28.8191 3541.0
28.8626 3551.0
28.906 3451.0
28.9495 3607.0
28.993 3389.0
29.0364 3393.0
29.0799 3356.0
29.1234 3512.0
29.1668 3482.0
29.2103 3309.0
29.2538 3361.0
29.2972 3275.0
29.3407 3355.0
29.3841 3207.0
29.4276 3282.0
29.4711 3271.0
29.5145 3303.0
29.558 3181.0
29.6015 3206.0
29.6449 3217.0
29.6884 3176.0
29.7319 3202.0
29.7753 3249.0
29.8188 3224.0
29.8623 3122.0
29.9057 3164.0
29.9492 3058.0
29.9927 3142.0
30.0361 3043.0
30.0796 3079.0
30.1231 3124.0
30.1665 3106.0
30.21 3062.0
30.2535 3062.0
30.2969 3011.0
30.3404 3011.0
30.3839 2982.0
30.4273 2985.0
30.4708 2983.0
30.5143 2977.0
30.5577 3043.0
30.6012 2799.0
30.6447 2870.0
30.6881 2922.0
30.7316 2979.0
30.7751 2915.0
30.8185 2876.0
30.862 2791.0
30.9055 2814.0
30.9489 2786.0
30.9924 2847.0
31.0358 2806.0
31.0793 2720.0
31.1228 2916.0
31.1662 2823.0
31.2097 2821.0
31.2532 2837.0
31.2966 2795.0
31.3401 2765.0
31.3836 2758.0
31.427 2753.0
31.4705 2696.0
31.514 2651.0
31.5574 2818.0
31.6009 2686.0
31.6444 2755.0
31.6878 2640.0
31.7313 2745.0
31.7748 2667.0
31.8182 2596.0
31.8617 2557.0
31.9052 2630.0
31.9486 2677.0
31.9921 2665.0
32.0356 2603.0
32.079 2607.0
32.1225 2578.0
32.166 2604.0
32.2094 2634.0
32.2529 2531.0
32.2964 2616.0
32.3398 2489.0
32.3833 2483.0
32.4268 2471.0
32.4702 2643.0
32.5137 2589.0
32.5572 2591.0
32.6006 2542.0
32.6441 2486.0
32.6875 2495.0
32.731 2440.0
32.7745 2502.0
32.8179 2462.0
32.8614 2477.0
32.9049 2530.0
32.9483 2501.0
32.9918 2508.0
33.0353 2450.0
33.0787 2412.0
33.1222 2454.0
33.1657 2438.0
33.2091 2427.0
33.2526 2410.0
33.2961 2413.0
33.3395 2555.0
33.383 2394.0
33.4265 2454.0
33.4699 2314.0
33.5134 2349.0
33.5569 2312.0
33.6003 2351.0
33.6438 2344.0
33.6873 2406.0
33.7307 2359.0
33.7742 2418.0
33.8177 2379.0
33.8611 2462.0
33.9046 2337.0
33.9481 2280.0
33.9915 2301.0
34.035 2318.0
34.0785 2250.0
34.1219 2341.0
34.1654 2309.0
34.2088 2290.0
34.2523 2313.0
34.2958 2292.0
34.3392 2377.0
34.3827 2346.0
34.4262 2333.0
34.4696 2263.0
34.5131 2333.0
34.5566 2300.0
34.6 2244.0
34.6435 2210.0
34.687 2325.0
34.7304 2260.0
34.7739 2310.0
34.8174 2244.0
34.8608 2234.0
34.9043 2167.0
34.9478 2165.0
34.9912 2188.0
35.0347 2265.0
35.0782 2331.0
35.1216 2283.0
35.1651 2178.0
35.2086 2152.0
35.252 2159.0
35.2955 2238.0
35.339 2159.0
35.3824 2250.0
35.4259 2179.0
35.4694 2216.0
35.5128 2170.0
35.5563 2165.0
35.5998 2196.0
35.6432 2145.0
35.6867 2227.0
35.7302 2317.0
35.7736 2194.0
35.8171 2173.0
35.8605 2178.0
35.904 2138.0
35.9475 2141.0
35.9909 2129.0
36.0344 2257.0
36.0779 2186.0
36.1213 2197.0
36.1648 2190.0
36.2083 2066.0
36.2517 2170.0
36.2952 2134.0
36.3387 2155.0
36.3821 2122.0
36.4256 2072.0
36.4691 2100.0
36.5125 2192.0
36.556 2189.0
36.5995 2162.0
36.6429 2150.0
36.6864 2197.0
36.7299 2149.0
36.7733 2201.0
36.8168 2140.0
36.8603 2161.0
36.9037 2063.0
36.9472 2051.0
36.9907 2138.0
37.0341 2095.0
37.0776 2151.0
37.1211 2216.0
37.1645 2136.0
37.208 2094.0
37.2515 2032.0
37.2949 2047.0
37.3384 2197.0
37.3818 2021.0
37.4253 2134.0
37.4688 2130.0
37.5122 2163.0
37.5557 2071.0
37.5992 2096.0
37.6426 2126.0
37.6861 2085.0
37.7296 2064.0
37.773 2137.0
37.8165 2069.0
37.86 2064.0
37.9034 2086.0
37.9469 2076.0
37.9904 2090.0
38.0338 2119.0
38.0773 2104.0
38.1208 2075.0
38.1642 2128.0
38.2077 1965.0
38.2512 2124.0
38.2946 2055.0
38.3381 2054.0
38.3816 1991.0
38.425 2078.0
38.4685 2056.0
38.512 2076.0
38.5554 2088.0
38.5989 2083.0
38.6424 1968.0
38.6858 2068.0
38.7293 2045.0
38.7728 2056.0
38.8162 2025.0
38.8597 2032.0
38.9032 2055.0
38.9466 2035.0
38.9901 2157.0
39.0335 2043.0
39.077 2076.0
39.1205 2033.0
39.1639 2103.0
39.2074 2073.0
39.2509 2040.0
39.2943 2055.0
39.3378 2109.0
39.3813 2125.0
39.4247 1984.0
39.4682 2091.0
39.5117 1982.0
39.5551 2129.0
39.5986 1985.0
39.6421 2078.0
39.6855 2023.0
39.729 1995.0
39.7725 2050.0
39.8159 1997.0
39.8594 2048.0
39.9029 2052.0
39.9463 2037.0
39.9898 1962.0
40.0333 2086.0
40.0767 2031.0
40.1202 2012.0
40.1637 1988.0
40.2071 2117.0
40.2506 1928.0
40.2941 1991.0
40.3375 2001.0
40.381 1986.0
40.4245 2008.0
40.4679 2000.0
40.5114 1949.0
40.5548 1972.0
40.5983 1948.0
40.6418 1946.0
40.6852 2058.0
40.7287 2005.0
40.7722 2054.0
40.8156 2062.0
40.8591 2075.0
40.9026 2049.0
40.946 2031.0
40.9895 2056.0
41.033 2038.0
41.0764 1948.0
41.1199 1955.0
41.1634 2014.0
41.2068 1942.0
41.2503 1928.0
41.2938 2018.0
41.3372 2064.0
41.3807 2014.0
41.4242 1969.0
41.4676 2018.0
41.5111 1920.0
41.5546 2029.0
41.598 1921.0
41.6415 1957.0
41.685 1933.0
41.7284 1962.0
41.7719 2020.0
41.8154 2002.0
41.8588 1936.0
41.9023 1914.0
41.9458 1853.0
41.9892 1993.0
42.0327 2002.0
42.0762 1974.0
42.1196 1986.0
42.1631 1856.0
42.2065 1980.0
42.25 1949.0
42.2935 1897.0
42.3369 1882.0
42.3804 1916.0
42.4239 1962.0
42.4673 1998.0
42.5108 1977.0
42.5543 1899.0
42.5977 1913.0
42.6412 1889.0
42.6847 1895.0
42.7281 1907.0
42.7716 1886.0
42.8151 1848.0
42.8585 1864.0
42.902 1936.0
42.9455 1952.0
42.9889 1841.0
43.0324 1930.0
43.0759 1936.0
43.1193 1893.0
43.1628 1855.0
43.2063 1859.0
43.2497 1907.0
43.2932 1845.0
43.3367 1876.0
43.3801 1854.0
43.4236 1834.0
43.4671 1863.0
43.5105 1805.0
43.554 1806.0
43.5975 1780.0
43.6409 1835.0
43.6844 1808.0
43.7279 1862.0
43.7713 1850.0
43.8148 1869.0
43.8582 1773.0
43.9017 1785.0
43.9452 1807.0
43.9886 1817.0
44.0321 1819.0
44.0756 1781.0
44.119 1777.0
44.1625 1768.0
44.206 1781.0
44.2494 1798.0
44.2929 1773.0
44.3364 1774.0
44.3798 1752.0
44.4233 1757.0
44.4668 1798.0
44.5102 1650.0
44.5537 1811.0
44.5972 1777.0
44.6406 1793.0
44.6841 1741.0
44.7276 1794.0
44.771 1791.0
44.8145 1805.0
44.858 1759.0
44.9014 1734.0
44.9449 1647.0
44.9884 1747.0
45.0318 1714.0
45.0753 1686.0
45.1188 1726.0
45.1622 1711.0
45.2057 1706.0
45.2492 1674.0
45.2926 1763.0
45.3361 1770.0
45.3795 1746.0
45.423 1758.0
45.4665 1680.0
45.5099 1647.0
45.5534 1648.0
45.5969 1718.0
45.6403 1657.0
45.6838 1676.0
45.7273 1619.0
45.7707 1687.0
45.8142 1628.0
45.8577 1644.0
45.9011 1667.0
45.9446 1687.0
45.9881 1664.0
46.0315 1605.0
46.075 1620.0
46.1185 1601.0
46.1619 1591.0
46.2054 1679.0
46.2489 1638.0
46.2923 1612.0
46.3358 1665.0
46.3793 1633.0
46.4227 1546.0
46.4662 1569.0
46.5097 1670.0
46.5531 1607.0
46.5966 1678.0
46.6401 1605.0
46.6835 1594.0
46.727 1587.0
46.7705 1609.0
46.8139 1609.0
46.8574 1614.0
46.9009 1557.0
46.9443 1538.0
46.9878 1510.0
47.0312 1556.0
47.0747 1569.0
47.1182 1572.0
47.1616 1534.0
47.2051 1479.0
47.2486 1519.0
47.292 1530.0
47.3355 1521.0
47.379 1522.0
47.4224 1539.0
47.4659 1549.0
47.5094 1453.0
47.5528 1485.0
47.5963 1471.0
47.6398 1457.0
47.6832 1484.0
47.7267 1474.0
47.7702 1528.0
47.8136 1476.0
47.8571 1459.0
47.9006 1485.0
47.944 1439.0
47.9875 1473.0
48.031 1439.0
48.0744 1414.0
48.1179 1442.0
48.1614 1451.0
48.2048 1436.0
48.2483 1414.0
48.2918 1457.0
48.3352 1481.0
48.3787 1431.0
48.4222 1452.0
48.4656 1462.0
48.5091 1416.0
48.5525 1463.0
48.596 1396.0
48.6395 1449.0
48.6829 1440.0
48.7264 1423.0
48.7699 1429.0
48.8133 1377.0
48.8568 1392.0
48.9003 1440.0
48.9437 1383.0
48.9872 1417.0
49.0307 1429.0
49.0741 1372.0
49.1176 1374.0
49.1611 1414.0
49.2045 1412.0
49.248 1384.0
49.2915 1359.0
49.3349 1348.0
49.3784 1365.0
49.4219 1403.0
49.4653 1350.0
49.5088 1340.0
49.5523 1260.0
49.5957 1296.0
49.6392 1398.0
49.6827 1317.0
49.7261 1321.0
49.7696 1346.0
49.8131 1340.0
49.8565 1304.0
49.9 1289.0
49.9435 1300.0
49.9869 1256.0
50.0304 1375.0
50.0739 1295.0
50.1173 1335.0
50.1608 1358.0
50.2042 1290.0
50.2477 1230.0
50.2912 1291.0
50.3346 1233.0
50.3781 1352.0
50.4216 1295.0
50.465 1313.0
50.5085 1304.0
50.552 1306.0
50.5954 1269.0
50.6389 1268.0
50.6824 1286.0
50.7258 1251.0
50.7693 1249.0
50.8128 1244.0
50.8562 1192.0
50.8997 1207.0
50.9432 1230.0
50.9866 1289.0
51.0301 1244.0
51.0736 1270.0
51.117 1224.0
51.1605 1224.0
51.204 1267.0
51.2474 1181.0
51.2909 1203.0
51.3344 1227.0
51.3778 1293.0
51.4213 1281.0
51.4648 1214.0
51.5082 1215.0
51.5517 1243.0
51.5952 1210.0
51.6386 1254.0
51.6821 1228.0
51.7256 1173.0
51.769 1231.0
51.8125 1263.0
51.8559 1191.0
51.8994 1126.0
51.9429 1149.0
51.9863 1127.0
52.0298 1211.0
52.0733 1135.0
52.1167 1200.0
52.1602 1150.0
52.2037 1192.0
52.2471 1184.0
52.2906 1106.0
52.3341 1199.0
52.3775 1137.0
52.421 1152.0
52.4645 1173.0
52.5079 1166.0
52.5514 1157.0
52.5949 1218.0
52.6383 1123.0
52.6818 1151.0
52.7253 1150.0
52.7687 1112.0
52.8122 1199.0
52.8557 1161.0
52.8991 1132.0
52.9426 1132.0
52.9861 1073.0
53.0295 1125.0
53.073 1071.0
53.1165 1123.0
53.1599 1167.0
53.2034 1111.0
53.2469 1074.0
53.2903 1111.0
53.3338 1124.0
53.3772 1055.0
53.4207 1048.0
53.4642 1089.0
53.5076 1131.0
53.5511 1089.0
53.5946 1077.0
53.638 1130.0
53.6815 1042.0
53.725 1057.0
53.7684 1102.0
53.8119 1110.0
53.8554 1127.0
53.8988 1036.0
53.9423 1039.0
53.9858 1152.0
54.0292 1102.0
54.0727 1099.0
54.1162 1054.0
54.1596 1033.0
54.2031 1079.0
54.2466 1091.0
54.29 1089.0
54.3335 1086.0
54.377 1040.0
54.4204 1057.0
54.4639 1084.0
54.5074 1052.0
54.5508 1078.0
54.5943 1004.0
54.6378 1087.0
54.6812 1071.0
54.7247 1001.0
54.7682 1037.0
54.8116 1044.0
54.8551 1039.0
54.8986 976.0
54.942 1081.0
54.9855 997.0
55.0289 1001.0
55.0724 1033.0
55.1159 1021.0
55.1593 999.0
55.2028 1039.0
55.2463 986.0
55.2897 1016.0
55.3332 941.0
55.3767 998.0
55.4201 1065.0
55.4636 977.0
55.5071 1002.0
55.5505 984.0
55.594 1052.0
55.6375 973.0
55.6809 973.0
55.7244 973.0
55.7679 986.0
55.8113 996.0
55.8548 1058.0
55.8983 952.0
55.9417 984.0
55.9852 986.0
56.0287 1003.0
56.0721 1022.0
56.1156 1008.0
56.1591 985.0
56.2025 954.0
56.246 1009.0
56.2895 974.0
56.3329 924.0
56.3764 1000.0
56.4199 955.0
56.4633 962.0
56.5068 989.0
56.5502 976.0
56.5937 940.0
56.6372 936.0
56.6806 933.0
56.7241 992.0
56.7676 958.0
56.811 882.0
56.8545 972.0
56.898 985.0
56.9414 1018.0
56.9849 973.0
57.0284 902.0
57.0718 893.0
57.1153 965.0
57.1588 939.0
57.2022 909.0
57.2457 908.0
57.2892 926.0
57.3326 954.0
57.3761 904.0
57.4196 915.0
57.463 905.0
57.5065 925.0
57.55 922.0
57.5934 945.0
57.6369 914.0
57.6804 892.0
57.7238 907.0
57.7673 918.0
57.8108 877.0
57.8542 865.0
57.8977 882.0
57.9412 895.0
57.9846 866.0
58.0281 900.0
58.0716 859.0
58.115 893.0
58.1585 909.0
58.2019 851.0
58.2454 913.0
58.2889 943.0
58.3323 913.0
58.3758 844.0
58.4193 920.0
58.4627 926.0
58.5062 848.0
58.5497 877.0
58.5931 879.0
58.6366 901.0
58.6801 856.0
58.7235 850.0
58.767 896.0
58.8105 911.0
58.8539 923.0
58.8974 911.0
58.9409 864.0
58.9843 855.0
59.0278 840.0
59.0713 923.0
59.1147 859.0
59.1582 896.0
59.2017 883.0
59.2451 870.0
59.2886 900.0
59.3321 873.0
59.3755 825.0
59.419 863.0
59.4625 908.0
59.5059 808.0
59.5494 813.0
59.5929 822.0
59.6363 830.0
59.6798 851.0
59.7233 847.0
59.7667 829.0
59.8102 826.0
59.8536 821.0
59.8971 914.0
59.9406 845.0
59.984 849.0
59.9949 826.0