File: XRD/2023_07_24_pXRD_CBD_Heat_Gun.xy
3.00043 7753.0
3.0439 7443.0
3.08736 7024.0
3.13083 6733.0
3.1743 6543.0
3.21776 5907.0
3.26123 5489.0
3.30469 5246.0
3.34816 4916.0
3.39163 4601.0
3.43509 4453.0
3.47856 4071.0
3.52202 3876.0
3.56549 3573.0
3.60895 3387.0
3.65242 2989.0
3.69589 2836.0
3.73935 2680.0
3.78282 2505.0
3.82628 2238.0
3.86975 2180.0
3.91321 2000.0
3.95668 1810.0
4.00015 1731.0
4.04361 1553.0
4.08708 1409.0
4.13054 1390.0
4.17401 1287.0
4.21747 1168.0
4.26094 1081.0
4.30441 899.0
4.34787 854.0
4.39134 786.0
4.4348 711.0
4.47827 693.0
4.52173 612.0
4.5652 560.0
4.60867 562.0
4.65213 545.0
4.6956 543.0
4.73906 470.0
4.78253 469.0
4.826 532.0
4.86946 489.0
4.91293 490.0
4.95639 526.0
4.99986 461.0
5.04332 537.0
5.08679 505.0
5.13026 514.0
5.17372 508.0
5.21719 476.0
5.26065 457.0
5.30412 429.0
5.34758 425.0
5.39105 442.0
5.43452 411.0
5.47798 427.0
5.52145 449.0
5.56491 421.0
5.60838 435.0
5.65184 439.0
5.69531 470.0
5.73878 421.0
5.78224 468.0
5.82571 473.0
5.86917 496.0
5.91264 462.0
5.9561 422.0
5.99957 404.0
6.04304 424.0
6.0865 417.0
6.12997 362.0
6.17343 367.0
6.2169 387.0
6.26037 336.0
6.30383 360.0
6.3473 382.0
6.39076 394.0
6.43423 391.0
6.47769 345.0
6.52116 330.0
6.56463 371.0
6.60809 380.0
6.65156 353.0
6.69502 377.0
6.73849 381.0
6.78195 353.0
6.82542 366.0
6.86889 350.0
6.91235 350.0
6.95582 355.0
6.99928 388.0
7.04275 345.0
7.08621 341.0
7.12968 353.0
7.17315 333.0
7.21661 358.0
7.26008 380.0
7.30354 344.0
7.34701 339.0
7.39047 343.0
7.43394 342.0
7.47741 390.0
7.52087 373.0
7.56434 321.0
7.6078 359.0
7.65127 348.0
7.69474 388.0
7.7382 388.0
7.78167 392.0
7.82513 338.0
7.8686 382.0
7.91206 394.0
7.95553 388.0
7.999 442.0
8.04246 444.0
8.08593 480.0
8.12939 487.0
8.17286 574.0
8.21632 608.0
8.25979 714.0
8.30326 718.0
8.34672 728.0
8.39019 711.0
8.43365 641.0
8.47712 498.0
8.52058 417.0
8.56405 336.0
8.60752 416.0
8.65098 350.0
8.69445 376.0
8.73791 436.0
8.78138 412.0
8.82485 469.0
8.86831 469.0
8.91178 527.0
8.95524 559.0
8.99871 657.0
9.04217 819.0
9.08564 936.0
9.12911 1132.0
9.17257 1436.0
9.21604 1956.0
9.2595 2430.0
9.30297 2926.0
9.34643 3056.0
9.3899 3105.0
9.43337 3625.0
9.47683 3941.0
9.5203 4673.0
9.56376 6756.0
9.60723 10020.0
9.65069 11707.0
9.69416 10943.0
9.73763 8455.0
9.78109 6789.0
9.82456 4996.0
9.86802 3164.0
9.91149 1712.0
9.95495 1495.0
9.99842 1824.0
10.0419 2562.0
10.0854 3975.0
10.1288 5031.0
10.1723 4593.0
10.2157 3125.0
10.2592 2211.0
10.3027 1648.0
10.3461 1095.0
10.3896 742.0
10.4331 564.0
10.4765 522.0
10.52 505.0
10.5635 492.0
10.6069 460.0
10.6504 463.0
10.6939 458.0
10.7373 424.0
10.7808 494.0
10.8243 460.0
10.8677 453.0
10.9112 416.0
10.9547 467.0
10.9981 420.0
11.0416 427.0
11.0851 421.0
11.1285 453.0
11.172 441.0
11.2155 515.0
11.2589 507.0
11.3024 543.0
11.3459 636.0
11.3893 640.0
11.4328 789.0
11.4763 909.0
11.5197 1165.0
11.5632 1549.0
11.6067 2274.0
11.6501 2924.0
11.6936 3183.0
11.7371 2752.0
11.7805 2372.0
11.824 2094.0
11.8674 1630.0
11.9109 1013.0
11.9544 649.0
11.9978 565.0
12.0413 483.0
12.0848 537.0
12.1282 584.0
12.1717 594.0
12.2152 711.0
12.2586 910.0
12.3021 1134.0
12.3456 1552.0
12.389 2154.0
12.4325 2380.0
12.476 2205.0
12.5194 2005.0
12.5629 1690.0
12.6064 1490.0
12.6498 1199.0
12.6933 1016.0
12.7368 823.0
12.7802 845.0
12.8237 890.0
12.8672 1110.0
12.9106 1420.0
12.9541 2027.0
12.9976 3024.0
13.041 4076.0
13.0845 4415.0
13.128 3797.0
13.1714 2881.0
13.2149 2235.0
13.2584 1617.0
13.3018 1019.0
13.3453 651.0
13.3887 613.0
13.4322 629.0
13.4757 723.0
13.5191 907.0
13.5626 1130.0
13.6061 1555.0
13.6495 2399.0
13.693 2617.0
13.7365 2469.0
13.7799 2030.0
13.8234 1483.0
13.8669 1124.0
13.9103 753.0
13.9538 566.0
13.9973 440.0
14.0407 418.0
14.0842 442.0
14.1277 374.0
14.1711 424.0
14.2146 404.0
14.2581 426.0
14.3015 369.0
14.345 380.0
14.3885 387.0
14.4319 419.0
14.4754 420.0
14.5189 438.0
14.5623 473.0
14.6058 486.0
14.6493 543.0
14.6927 588.0
14.7362 623.0
14.7797 743.0
14.8231 891.0
14.8666 1305.0
14.9101 1923.0
14.9535 2907.0
14.997 3403.0
15.0404 3330.0
15.0839 2777.0
15.1274 2134.0
15.1708 1705.0
15.2143 1501.0
15.2578 1326.0
15.3012 1054.0
15.3447 797.0
15.3882 611.0
15.4316 536.0
15.4751 495.0
15.5186 462.0
15.562 418.0
15.6055 438.0
15.649 383.0
15.6924 386.0
15.7359 420.0
15.7794 466.0
15.8228 466.0
15.8663 475.0
15.9098 534.0
15.9532 627.0
15.9967 617.0
16.0402 697.0
16.0836 596.0
16.1271 634.0
16.1706 596.0
16.214 622.0
16.2575 556.0
16.301 511.0
16.3444 591.0
16.3879 702.0
16.4314 948.0
16.4748 1312.0
16.5183 1508.0
16.5618 1443.0
16.6052 1156.0
16.6487 868.0
16.6921 782.0
16.7356 734.0
16.7791 797.0
16.8225 926.0
16.866 1238.0
16.9095 1450.0
16.9529 1600.0
16.9964 1619.0
17.0399 1624.0
17.0833 1935.0
17.1268 2287.0
17.1703 3039.0
17.2137 4884.0
17.2572 7486.0
17.3007 9627.0
17.3441 8579.0
17.3876 5969.0
17.4311 3613.0
17.4745 2257.0
17.518 1383.0
17.5615 1002.0
17.6049 785.0
17.6484 719.0
17.6919 807.0
17.7353 922.0
17.7788 1158.0
17.8223 1367.0
17.8657 1370.0
17.9092 1220.0
17.9527 1061.0
17.9961 940.0
18.0396 804.0
18.0831 705.0
18.1265 634.0
18.17 640.0
18.2134 643.0
18.2569 630.0
18.3004 646.0
18.3438 716.0
18.3873 779.0
18.4308 998.0
18.4742 1273.0
18.5177 1819.0
18.5612 2586.0
18.6046 3602.0
18.6481 4867.0
18.6916 5608.0
18.735 5455.0
18.7785 5262.0
18.822 5419.0
18.8654 5398.0
18.9089 4595.0
18.9524 3747.0
18.9958 3176.0
19.0393 2720.0
19.0828 2191.0
19.1262 1699.0
19.1697 1283.0
19.2132 1017.0
19.2566 1029.0
19.3001 1178.0
19.3436 1456.0
19.387 2002.0
19.4305 2449.0
19.474 2439.0
19.5174 1999.0
19.5609 1415.0
19.6044 1290.0
19.6478 1225.0
19.6913 1177.0
19.7348 1097.0
19.7782 924.0
19.8217 924.0
19.8651 821.0
19.9086 790.0
19.9521 744.0
19.9955 679.0
20.039 667.0
20.0825 674.0
20.1259 703.0
20.1694 756.0
20.2129 815.0
20.2563 1023.0
20.2998 1453.0
20.3433 2131.0
20.3867 3220.0
20.4302 4633.0
20.4737 5007.0
20.5171 4230.0
20.5606 3135.0
20.6041 2321.0
20.6475 2034.0
20.691 1888.0
20.7345 1908.0
20.7779 2064.0
20.8214 2229.0
20.8649 1932.0
20.9083 1561.0
20.9518 1155.0
20.9953 1023.0
21.0387 831.0
21.0822 749.0
21.1257 696.0
21.1691 695.0
21.2126 725.0
21.2561 764.0
21.2995 796.0
21.343 904.0
21.3864 1096.0
21.4299 1542.0
21.4734 2323.0
21.5168 3867.0
21.5603 5268.0
21.6038 5313.0
21.6472 4046.0
21.6907 2919.0
21.7342 2225.0
21.7776 1786.0
21.8211 1723.0
21.8646 2147.0
21.908 3212.0
21.9515 4879.0
21.995 6554.0
22.0384 8306.0
22.0819 9063.0
22.1254 8025.0
22.1688 5694.0
22.2123 3402.0
22.2558 2292.0
22.2992 1645.0
22.3427 1162.0
22.3862 1031.0
22.4296 1139.0
22.4731 1333.0
22.5166 2019.0
22.56 3273.0
22.6035 4304.0
22.647 4439.0
22.6904 3488.0
22.7339 2263.0
22.7774 1527.0
22.8208 1395.0
22.8643 1308.0
22.9078 1230.0
22.9512 1157.0
22.9947 1027.0
23.0381 930.0
23.0816 862.0
23.1251 832.0
23.1685 827.0
23.212 818.0
23.2555 813.0
23.2989 754.0
23.3424 695.0
23.3859 726.0
23.4293 766.0
23.4728 931.0
23.5163 1190.0
23.5597 1652.0
23.6032 2162.0
23.6467 2371.0
23.6901 2442.0
23.7336 2189.0
23.7771 1767.0
23.8205 1490.0
23.864 1167.0
23.9075 968.0
23.9509 760.0
23.9944 719.0
24.0379 658.0
24.0813 664.0
24.1248 710.0
24.1683 846.0
24.2117 977.0
24.2552 1469.0
24.2987 1786.0
24.3421 1862.0
24.3856 1549.0
24.4291 1203.0
24.4725 1059.0
24.516 931.0
24.5595 960.0
24.6029 1065.0
24.6464 1102.0
24.6898 962.0
24.7333 832.0
24.7768 750.0
24.8202 617.0
24.8637 577.0
24.9072 590.0
24.9506 598.0
24.9941 706.0
25.0376 842.0
25.081 1093.0
25.1245 1351.0
25.168 1484.0
25.2114 1615.0
25.2549 1535.0
25.2984 1384.0
25.3418 1227.0
25.3853 1117.0
25.4288 1188.0
25.4722 1220.0
25.5157 1233.0
25.5592 947.0
25.6026 799.0
25.6461 618.0
25.6896 574.0
25.733 535.0
25.7765 478.0
25.82 525.0
25.8634 541.0
25.9069 501.0
25.9504 529.0
25.9938 576.0
26.0373 675.0
26.0808 748.0
26.1242 772.0
26.1677 803.0
26.2111 790.0
26.2546 927.0
26.2981 1065.0
26.3415 1175.0
26.385 1219.0
26.4285 1326.0
26.4719 1323.0
26.5154 1139.0
26.5589 1196.0
26.6023 1078.0
26.6458 1070.0
26.6893 909.0
26.7327 764.0
26.7762 653.0
26.8197 619.0
26.8631 673.0
26.9066 728.0
26.9501 943.0
26.9935 1109.0
27.037 1145.0
27.0805 1066.0
27.1239 941.0
27.1674 831.0
27.2109 778.0
27.2543 753.0
27.2978 828.0
27.3413 927.0
27.3847 1158.0
27.4282 1177.0
27.4717 1280.0
27.5151 1432.0
27.5586 1587.0
27.6021 1510.0
27.6455 1361.0
27.689 1230.0
27.7325 1175.0
27.7759 978.0
27.8194 805.0
27.8628 638.0
27.9063 644.0
27.9498 564.0
27.9932 639.0
28.0367 645.0
28.0802 641.0
28.1236 598.0
28.1671 594.0
28.2106 605.0
28.254 661.0
28.2975 766.0
28.341 855.0
28.3844 886.0
28.4279 814.0
28.4714 773.0
28.5148 819.0
28.5583 979.0
28.6018 1148.0
28.6452 1141.0
28.6887 954.0
28.7322 796.0
28.7756 666.0
28.8191 713.0
28.8626 923.0
28.906 1195.0
28.9495 1654.0
28.993 1943.0
29.0364 1863.0
29.0799 1512.0
29.1234 1173.0
29.1668 918.0
29.2103 749.0
29.2538 690.0
29.2972 670.0
29.3407 678.0
29.3841 580.0
29.4276 661.0
29.4711 605.0
29.5145 572.0
29.558 544.0
29.6015 507.0
29.6449 502.0
29.6884 449.0
29.7319 456.0
29.7753 439.0
29.8188 416.0
29.8623 401.0
29.9057 406.0
29.9492 471.0
29.9927 413.0
30.0361 400.0
30.0796 406.0
30.1231 449.0
30.1665 473.0
30.21 497.0
30.2535 544.0
30.2969 561.0
30.3404 630.0
30.3839 565.0
30.4273 584.0
30.4708 560.0
30.5143 497.0
30.5577 527.0
30.6012 540.0
30.6447 571.0
30.6881 545.0
30.7316 538.0
30.7751 508.0
30.8185 525.0
30.862 543.0
30.9055 538.0
30.9489 650.0
30.9924 734.0
31.0358 857.0
31.0793 973.0
31.1228 950.0
31.1662 850.0
31.2097 838.0
31.2532 750.0
31.2966 641.0
31.3401 586.0
31.3836 492.0
31.427 457.0
31.4705 419.0
31.514 420.0
31.5574 393.0
31.6009 419.0
31.6444 390.0
31.6878 417.0
31.7313 390.0
31.7748 413.0
31.8182 450.0
31.8617 455.0
31.9052 441.0
31.9486 465.0
31.9921 491.0
32.0356 501.0
32.079 483.0
32.1225 447.0
32.166 438.0
32.2094 468.0
32.2529 442.0
32.2964 414.0
32.3398 474.0
32.3833 489.0
32.4268 555.0
32.4702 669.0
32.5137 793.0
32.5572 715.0
32.6006 643.0
32.6441 608.0
32.6875 562.0
32.731 564.0
32.7745 555.0
32.8179 519.0
32.8614 541.0
32.9049 478.0
32.9483 476.0
32.9918 444.0
33.0353 471.0
33.0787 431.0
33.1222 553.0
33.1657 547.0
33.2091 633.0
33.2526 594.0
33.2961 558.0
33.3395 497.0
33.383 508.0
33.4265 467.0
33.4699 548.0
33.5134 598.0
33.5569 583.0
33.6003 583.0
33.6438 516.0
33.6873 440.0
33.7307 477.0
33.7742 463.0
33.8177 482.0
33.8611 644.0
33.9046 845.0
33.9481 928.0
33.9915 861.0
34.035 800.0
34.0785 686.0
34.1219 624.0
34.1654 608.0
34.2088 577.0
34.2523 569.0
34.2958 625.0
34.3392 610.0
34.3827 704.0
34.4262 700.0
34.4696 709.0
34.5131 826.0
34.5566 907.0
34.6 996.0
34.6435 980.0
34.687 903.0
34.7304 816.0
34.7739 724.0
34.8174 671.0
34.8608 688.0
34.9043 683.0
34.9478 649.0
34.9912 537.0
35.0347 582.0
35.0782 619.0
35.1216 669.0
35.1651 710.0
35.2086 774.0
35.252 664.0
35.2955 566.0
35.339 527.0
35.3824 515.0
35.4259 465.0
35.4694 438.0
35.5128 415.0
35.5563 415.0
35.5998 380.0
35.6432 446.0
35.6867 451.0
35.7302 444.0
35.7736 468.0
35.8171 445.0
35.8605 440.0
35.904 406.0
35.9475 373.0
35.9909 363.0
36.0344 385.0
36.0779 410.0
36.1213 423.0
36.1648 417.0
36.2083 450.0
36.2517 405.0
36.2952 418.0
36.3387 480.0
36.3821 522.0
36.4256 572.0
36.4691 569.0
36.5125 621.0
36.556 625.0
36.5995 554.0
36.6429 526.0
36.6864 504.0
36.7299 477.0
36.7733 513.0
36.8168 482.0
36.8603 542.0
36.9037 523.0
36.9472 519.0
36.9907 590.0
37.0341 555.0
37.0776 512.0
37.1211 488.0
37.1645 469.0
37.208 451.0
37.2515 445.0
37.2949 425.0
37.3384 408.0
37.3818 433.0
37.4253 419.0
37.4688 457.0
37.5122 424.0
37.5557 445.0
37.5992 440.0
37.6426 439.0
37.6861 478.0
37.7296 602.0
37.773 520.0
37.8165 506.0
37.86 488.0
37.9034 457.0
37.9469 470.0
37.9904 452.0
38.0338 471.0
38.0773 474.0
38.1208 475.0
38.1642 464.0
38.2077 455.0
38.2512 431.0
38.2946 381.0
38.3381 430.0
38.3816 373.0
38.425 387.0
38.4685 347.0
38.512 384.0
38.5554 395.0
38.5989 372.0
38.6424 382.0
38.6858 362.0
38.7293 375.0
38.7728 431.0
38.8162 391.0
38.8597 372.0
38.9032 348.0
38.9466 373.0
38.9901 404.0
39.0335 434.0
39.077 376.0
39.1205 407.0
39.1639 395.0
39.2074 375.0
39.2509 467.0
39.2943 431.0
39.3378 405.0
39.3813 384.0
39.4247 413.0
39.4682 402.0
39.5117 415.0
39.5551 413.0
39.5986 418.0
39.6421 407.0
39.6855 414.0
39.729 382.0
39.7725 396.0
39.8159 341.0
39.8594 322.0
39.9029 333.0
39.9463 340.0
39.9898 368.0
40.0333 424.0
40.0767 443.0
40.1202 484.0
40.1637 486.0
40.2071 470.0
40.2506 496.0
40.2941 537.0
40.3375 549.0
40.381 538.0
40.4245 538.0
40.4679 573.0
40.5114 649.0
40.5548 536.0
40.5983 476.0
40.6418 457.0
40.6852 390.0
40.7287 377.0
40.7722 364.0
40.8156 353.0
40.8591 398.0
40.9026 371.0
40.946 354.0
40.9895 338.0
41.033 384.0
41.0764 357.0
41.1199 363.0
41.1634 337.0
41.2068 345.0
41.2503 321.0
41.2938 342.0
41.3372 346.0
41.3807 359.0
41.4242 349.0
41.4676 364.0
41.5111 348.0
41.5546 356.0
41.598 387.0
41.6415 401.0
41.685 447.0
41.7284 410.0
41.7719 561.0
41.8154 495.0
41.8588 464.0
41.9023 405.0
41.9458 373.0
41.9892 363.0
42.0327 360.0
42.0762 359.0
42.1196 312.0
42.1631 328.0
42.2065 362.0
42.25 360.0
42.2935 369.0
42.3369 422.0
42.3804 476.0
42.4239 495.0
42.4673 516.0
42.5108 477.0
42.5543 489.0
42.5977 464.0
42.6412 467.0
42.6847 482.0
42.7281 480.0
42.7716 483.0
42.8151 399.0
42.8585 362.0
42.902 385.0
42.9455 416.0
42.9889 342.0
43.0324 395.0
43.0759 420.0
43.1193 483.0
43.1628 546.0
43.2063 508.0
43.2497 494.0
43.2932 496.0
43.3367 452.0
43.3801 431.0
43.4236 430.0
43.4671 432.0
43.5105 408.0
43.554 407.0
43.5975 388.0
43.6409 310.0
43.6844 345.0
43.7279 348.0
43.7713 377.0
43.8148 314.0
43.8582 343.0
43.9017 325.0
43.9452 296.0
43.9886 323.0
44.0321 331.0
44.0756 320.0
44.119 329.0
44.1625 345.0
44.206 388.0
44.2494 374.0
44.2929 397.0
44.3364 374.0
44.3798 376.0
44.4233 337.0
44.4668 319.0
44.5102 335.0
44.5537 303.0
44.5972 341.0
44.6406 312.0
44.6841 339.0
44.7276 335.0
44.771 313.0
44.8145 337.0
44.858 388.0
44.9014 395.0
44.9449 413.0
44.9884 383.0
45.0318 412.0
45.0753 422.0
45.1188 405.0
45.1622 399.0
45.2057 409.0
45.2492 477.0
45.2926 393.0
45.3361 382.0
45.3795 398.0
45.423 336.0
45.4665 308.0
45.5099 328.0
45.5534 311.0
45.5969 359.0
45.6403 302.0
45.6838 314.0
45.7273 344.0
45.7707 369.0
45.8142 371.0
45.8577 362.0
45.9011 402.0
45.9446 382.0
45.9881 391.0
46.0315 374.0
46.075 387.0
46.1185 358.0
46.1619 394.0
46.2054 390.0
46.2489 359.0
46.2923 365.0
46.3358 443.0
46.3793 416.0
46.4227 375.0
46.4662 337.0
46.5097 374.0
46.5531 361.0
46.5966 408.0
46.6401 420.0
46.6835 397.0
46.727 436.0
46.7705 382.0
46.8139 420.0
46.8574 353.0
46.9009 345.0
46.9443 336.0
46.9878 342.0
47.0312 294.0
47.0747 323.0
47.1182 314.0
47.1616 289.0
47.2051 299.0
47.2486 335.0
47.292 302.0
47.3355 296.0
47.379 291.0
47.4224 332.0
47.4659 311.0
47.5094 317.0
47.5528 350.0
47.5963 296.0
47.6398 298.0
47.6832 295.0
47.7267 328.0
47.7702 283.0
47.8136 304.0
47.8571 295.0
47.9006 312.0
47.944 326.0
47.9875 331.0
48.031 340.0
48.0744 319.0
48.1179 303.0
48.1614 290.0
48.2048 292.0
48.2483 309.0
48.2918 326.0
48.3352 324.0
48.3787 287.0
48.4222 294.0
48.4656 305.0
48.5091 331.0
48.5525 286.0
48.596 286.0
48.6395 284.0
48.6829 279.0
48.7264 301.0
48.7699 245.0
48.8133 285.0
48.8568 272.0
48.9003 316.0
48.9437 303.0
48.9872 327.0
49.0307 323.0
49.0741 306.0
49.1176 356.0
49.1611 306.0
49.2045 332.0
49.248 307.0
49.2915 320.0
49.3349 330.0
49.3784 302.0
49.4219 323.0
49.4653 321.0
49.5088 310.0
49.5523 354.0
49.5957 280.0
49.6392 305.0
49.6827 293.0
49.7261 272.0
49.7696 294.0
49.8131 314.0
49.8565 317.0
49.9 296.0
49.9435 334.0
49.9869 342.0
50.0304 344.0
50.0739 334.0
50.1173 317.0
50.1608 326.0
50.2042 348.0
50.2477 328.0
50.2912 312.0
50.3346 298.0
50.3781 288.0
50.4216 333.0
50.465 326.0
50.5085 320.0
50.552 330.0
50.5954 325.0
50.6389 296.0
50.6824 322.0
50.7258 315.0
50.7693 288.0
50.8128 276.0
50.8562 288.0
50.8997 271.0
50.9432 227.0
50.9866 283.0
51.0301 262.0
51.0736 285.0
51.117 237.0
51.1605 246.0
51.204 297.0
51.2474 283.0
51.2909 262.0
51.3344 244.0
51.3778 241.0
51.4213 264.0
51.4648 226.0
51.5082 296.0
51.5517 260.0
51.5952 279.0
51.6386 304.0
51.6821 277.0
51.7256 286.0
51.769 287.0
51.8125 310.0
51.8559 282.0
51.8994 275.0
51.9429 299.0
51.9863 311.0
52.0298 337.0
52.0733 329.0
52.1167 327.0
52.1602 327.0
52.2037 323.0
52.2471 323.0
52.2906 299.0
52.3341 295.0
52.3775 281.0
52.421 313.0
52.4645 274.0
52.5079 273.0
52.5514 258.0
52.5949 270.0
52.6383 279.0
52.6818 248.0
52.7253 236.0
52.7687 276.0
52.8122 258.0
52.8557 276.0
52.8991 265.0
52.9426 240.0
52.9861 246.0
53.0295 257.0
53.073 239.0
53.1165 235.0
53.1599 244.0
53.2034 218.0
53.2469 250.0
53.2903 266.0
53.3338 243.0
53.3772 248.0
53.4207 288.0
53.4642 241.0
53.5076 246.0
53.5511 257.0
53.5946 233.0
53.638 279.0
53.6815 228.0
53.725 249.0
53.7684 207.0
53.8119 230.0
53.8554 237.0
53.8988 228.0
53.9423 222.0
53.9858 259.0
54.0292 218.0
54.0727 247.0
54.1162 273.0
54.1596 260.0
54.2031 245.0
54.2466 231.0
54.29 229.0
54.3335 244.0
54.377 250.0
54.4204 235.0
54.4639 250.0
54.5074 224.0
54.5508 205.0
54.5943 199.0
54.6378 245.0
54.6812 237.0
54.7247 281.0
54.7682 227.0
54.8116 236.0
54.8551 248.0
54.8986 234.0
54.942 236.0
54.9855 248.0
55.0289 238.0
55.0724 257.0
55.1159 232.0
55.1593 268.0
55.2028 213.0
55.2463 248.0
55.2897 265.0
55.3332 248.0
55.3767 238.0
55.4201 236.0
55.4636 208.0
55.5071 235.0
55.5505 238.0
55.594 216.0
55.6375 237.0
55.6809 270.0
55.7244 249.0
55.7679 246.0
55.8113 242.0
55.8548 249.0
55.8983 223.0
55.9417 215.0
55.9852 227.0
56.0287 222.0
56.0721 231.0
56.1156 261.0
56.1591 225.0
56.2025 214.0
56.246 245.0
56.2895 214.0
56.3329 216.0
56.3764 206.0
56.4199 226.0
56.4633 217.0
56.5068 230.0
56.5502 208.0
56.5937 184.0
56.6372 205.0
56.6806 201.0
56.7241 206.0
56.7676 192.0
56.811 216.0
56.8545 189.0
56.898 228.0
56.9414 210.0
56.9849 206.0
57.0284 211.0
57.0718 196.0
57.1153 221.0
57.1588 208.0
57.2022 172.0
57.2457 177.0
57.2892 199.0
57.3326 220.0
57.3761 234.0
57.4196 219.0
57.463 200.0
57.5065 192.0
57.55 213.0
57.5934 200.0
57.6369 177.0
57.6804 202.0
57.7238 198.0
57.7673 169.0
57.8108 202.0
57.8542 171.0
57.8977 204.0
57.9412 181.0
57.9846 204.0
58.0281 189.0
58.0716 190.0
58.115 189.0
58.1585 176.0
58.2019 189.0
58.2454 173.0
58.2889 181.0
58.3323 218.0
58.3758 189.0
58.4193 187.0
58.4627 191.0
58.5062 204.0
58.5497 212.0
58.5931 193.0
58.6366 202.0
58.6801 215.0
58.7235 182.0
58.767 205.0
58.8105 197.0
58.8539 184.0
58.8974 208.0
58.9409 196.0
58.9843 195.0
59.0278 184.0
59.0713 207.0
59.1147 192.0
59.1582 162.0
59.2017 180.0
59.2451 214.0
59.2886 187.0
59.3321 180.0
59.3755 202.0
59.419 201.0
59.4625 176.0
59.5059 171.0
59.5494 189.0
59.5929 197.0
59.6363 176.0
59.6798 168.0
59.7233 173.0
59.7667 217.0
59.8102 206.0
59.8536 188.0
59.8971 179.0
59.9406 157.0
59.984 159.0
59.9949 162.0