File: XRD/2025_06_03_CBD_3_60_8min.xy
3.00043 43855.0
3.0439 41588.0
3.08736 39528.0
3.13083 37677.0
3.1743 35630.0
3.21776 33357.0
3.26123 31845.0
3.30469 30003.0
3.34816 28187.0
3.39163 26776.0
3.43509 24965.0
3.47856 23674.0
3.52202 22418.0
3.56549 20620.0
3.60895 19615.0
3.65242 18232.0
3.69589 17309.0
3.73935 16173.0
3.78282 15082.0
3.82628 13979.0
3.86975 13078.0
3.91321 12219.0
3.95668 11413.0
4.00015 10608.0
4.04361 9826.0
4.08708 8989.0
4.13054 8447.0
4.17401 7784.0
4.21747 7086.0
4.26094 6696.0
4.30441 6200.0
4.34787 5699.0
4.39134 5206.0
4.4348 4789.0
4.47827 4487.0
4.52173 4080.0
4.5652 3771.0
4.60867 3439.0
4.65213 3198.0
4.6956 3047.0
4.73906 2921.0
4.78253 2692.0
4.826 2597.0
4.86946 2534.0
4.91293 2421.0
4.95639 2533.0
4.99986 2633.0
5.04332 2919.0
5.08679 3068.0
5.13026 2948.0
5.17372 2871.0
5.21719 2660.0
5.26065 2438.0
5.30412 2231.0
5.34758 2134.0
5.39105 2173.0
5.43452 2003.0
5.47798 1941.0
5.52145 1868.0
5.56491 1719.0
5.60838 1637.0
5.65184 1552.0
5.69531 1425.0
5.73878 1369.0
5.78224 1339.0
5.82571 1373.0
5.86917 1304.0
5.91264 1304.0
5.9561 1317.0
5.99957 1274.0
6.04304 1214.0
6.0865 1161.0
6.12997 1206.0
6.17343 1210.0
6.2169 1184.0
6.26037 1221.0
6.30383 1096.0
6.3473 1153.0
6.39076 1126.0
6.43423 1121.0
6.47769 1112.0
6.52116 1083.0
6.56463 1032.0
6.60809 1053.0
6.65156 1071.0
6.69502 992.0
6.73849 985.0
6.78195 983.0
6.82542 937.0
6.86889 939.0
6.91235 984.0
6.95582 934.0
6.99928 956.0
7.04275 932.0
7.08621 933.0
7.12968 943.0
7.17315 925.0
7.21661 871.0
7.26008 897.0
7.30354 927.0
7.34701 837.0
7.39047 855.0
7.43394 833.0
7.47741 859.0
7.52087 844.0
7.56434 870.0
7.6078 887.0
7.65127 873.0
7.69474 834.0
7.7382 851.0
7.78167 802.0
7.82513 832.0
7.8686 894.0
7.91206 885.0
7.95553 890.0
7.999 922.0
8.04246 1000.0
8.08593 1070.0
8.12939 1138.0
8.17286 1246.0
8.21632 1363.0
8.25979 1442.0
8.30326 1539.0
8.34672 1432.0
8.39019 1228.0
8.43365 1038.0
8.47712 950.0
8.52058 917.0
8.56405 889.0
8.60752 894.0
8.65098 953.0
8.69445 940.0
8.73791 929.0
8.78138 1041.0
8.82485 1097.0
8.86831 1133.0
8.91178 1273.0
8.95524 1336.0
8.99871 1540.0
9.04217 1725.0
9.08564 1972.0
9.12911 2462.0
9.17257 3322.0
9.21604 4739.0
9.2595 6867.0
9.30297 7849.0
9.34643 8501.0
9.3899 8817.0
9.43337 7508.0
9.47683 7431.0
9.5203 10885.0
9.56376 17073.0
9.60723 22641.0
9.65069 27026.0
9.69416 30114.0
9.73763 27154.0
9.78109 15654.0
9.82456 7667.0
9.86802 4769.0
9.91149 4252.0
9.95495 4944.0
9.99842 6388.0
10.0419 9136.0
10.0854 14164.0
10.1288 19673.0
10.1723 23310.0
10.2157 24392.0
10.2592 19550.0
10.3027 13127.0
10.3461 8188.0
10.3896 4864.0
10.4331 2605.0
10.4765 1635.0
10.52 1526.0
10.5635 1449.0
10.6069 1341.0
10.6504 1264.0
10.6939 1202.0
10.7373 1246.0
10.7808 1207.0
10.8243 1232.0
10.8677 1201.0
10.9112 1110.0
10.9547 1214.0
10.9981 1124.0
11.0416 1222.0
11.0851 1134.0
11.1285 1169.0
11.172 1190.0
11.2155 1220.0
11.2589 1280.0
11.3024 1365.0
11.3459 1487.0
11.3893 1440.0
11.4328 1699.0
11.4763 1787.0
11.5197 2295.0
11.5632 3022.0
11.6067 4248.0
11.6501 5684.0
11.6936 6623.0
11.7371 6431.0
11.7805 5299.0
11.824 3521.0
11.8674 2077.0
11.9109 1492.0
11.9544 1244.0
11.9978 1270.0
12.0413 1318.0
12.0848 1247.0
12.1282 1358.0
12.1717 1437.0
12.2152 1499.0
12.2586 1895.0
12.3021 2235.0
12.3456 2853.0
12.389 3345.0
12.4325 3699.0
12.476 3864.0
12.5194 4011.0
12.5629 3979.0
12.6064 2953.0
12.6498 1819.0
12.6933 1659.0
12.7368 1621.0
12.7802 1779.0
12.8237 2047.0
12.8672 2463.0
12.9106 3199.0
12.9541 4410.0
12.9976 5976.0
13.041 7345.0
13.0845 7987.0
13.128 8106.0
13.1714 7586.0
13.2149 5745.0
13.2584 4063.0
13.3018 2695.0
13.3453 1851.0
13.3887 1624.0
13.4322 1686.0
13.4757 1899.0
13.5191 1961.0
13.5626 2542.0
13.6061 3338.0
13.6495 4333.0
13.693 5606.0
13.7365 6024.0
13.7799 5033.0
13.8234 4210.0
13.8669 3193.0
13.9103 1978.0
13.9538 1393.0
13.9973 1072.0
14.0407 1009.0
14.0842 1045.0
14.1277 953.0
14.1711 976.0
14.2146 854.0
14.2581 914.0
14.3015 877.0
14.345 945.0
14.3885 934.0
14.4319 930.0
14.4754 912.0
14.5189 985.0
14.5623 1094.0
14.6058 1120.0
14.6493 1209.0
14.6927 1332.0
14.7362 1378.0
14.7797 1598.0
14.8231 2005.0
14.8666 2876.0
14.9101 3831.0
14.9535 5017.0
14.997 6483.0
15.0404 8350.0
15.0839 10353.0
15.1274 10446.0
15.1708 7501.0
15.2143 4428.0
15.2578 3697.0
15.3012 3456.0
15.3447 3172.0
15.3882 2754.0
15.4316 2136.0
15.4751 1615.0
15.5186 1307.0
15.562 1078.0
15.6055 1012.0
15.649 1055.0
15.6924 994.0
15.7359 1013.0
15.7794 1035.0
15.8228 1052.0
15.8663 1126.0
15.9098 1160.0
15.9532 1248.0
15.9967 1405.0
16.0402 1418.0
16.0836 1435.0
16.1271 1343.0
16.1706 1170.0
16.214 1147.0
16.2575 1078.0
16.301 1076.0
16.3444 1117.0
16.3879 1252.0
16.4314 1395.0
16.4748 1476.0
16.5183 1664.0
16.5618 1734.0
16.6052 1731.0
16.6487 1703.0
16.6921 1680.0
16.7356 1569.0
16.7791 1642.0
16.8225 1828.0
16.866 2152.0
16.9095 2262.0
16.9529 2500.0
16.9964 2571.0
17.0399 2629.0
17.0833 2979.0
17.1268 3533.0
17.1703 4944.0
17.2137 7137.0
17.2572 11419.0
17.3007 17631.0
17.3441 25020.0
17.3876 26324.0
17.4311 19803.0
17.4745 10168.0
17.518 4602.0
17.5615 3055.0
17.6049 2332.0
17.6484 1956.0
17.6919 1879.0
17.7353 1969.0
17.7788 2024.0
17.8223 2195.0
17.8657 3684.0
17.9092 4002.0
17.9527 7747.0
17.9961 5394.0
18.0396 2537.0
18.0831 1532.0
18.1265 1434.0
18.17 1416.0
18.2134 1473.0
18.2569 1443.0
18.3004 1619.0
18.3438 1689.0
18.3873 1894.0
18.4308 2232.0
18.4742 2817.0
18.5177 3715.0
18.5612 4896.0
18.6046 7057.0
18.6481 10504.0
18.6916 15258.0
18.735 19886.0
18.7785 23147.0
18.822 22615.0
18.8654 17754.0
18.9089 11673.0
18.9524 8518.0
18.9958 7060.0
19.0393 5435.0
19.0828 3545.0
19.1262 2734.0
19.1697 2519.0
19.2132 2297.0
19.2566 2141.0
19.3001 2278.0
19.3436 2895.0
19.387 3661.0
19.4305 4542.0
19.474 4904.0
19.5174 4771.0
19.5609 4148.0
19.6044 3124.0
19.6478 2334.0
19.6913 1975.0
19.7348 1902.0
19.7782 1900.0
19.8217 1747.0
19.8651 1681.0
19.9086 1537.0
19.9521 1572.0
19.9955 1563.0
20.039 1529.0
20.0825 1638.0
20.1259 1703.0
20.1694 1747.0
20.2129 2085.0
20.2563 2515.0
20.2998 3676.0
20.3433 5619.0
20.3867 8301.0
20.4302 10722.0
20.4737 11735.0
20.5171 11679.0
20.5606 10727.0
20.6041 7965.0
20.6475 5301.0
20.691 3798.0
20.7345 3451.0
20.7779 3599.0
20.8214 3478.0
20.8649 3428.0
20.9083 3305.0
20.9518 2820.0
20.9953 2270.0
21.0387 1842.0
21.0822 1583.0
21.1257 1492.0
21.1691 1514.0
21.2126 1564.0
21.2561 1633.0
21.2995 1639.0
21.343 1868.0
21.3864 2383.0
21.4299 2967.0
21.4734 4025.0
21.5168 5075.0
21.5603 6806.0
21.6038 9098.0
21.6472 8810.0
21.6907 7709.0
21.7342 6434.0
21.7776 4601.0
21.8211 3584.0
21.8646 4077.0
21.908 5608.0
21.9515 7766.0
21.995 11440.0
22.0384 15202.0
22.0819 17966.0
22.1254 18904.0
22.1688 17737.0
22.2123 16533.0
22.2558 14331.0
22.2992 9005.0
22.3427 4644.0
22.3862 2646.0
22.4296 2831.0
22.4731 3741.0
22.5166 5117.0
22.56 6323.0
22.6035 7455.0
22.647 9153.0
22.6904 8852.0
22.7339 7208.0
22.7774 5417.0
22.8208 3671.0
22.8643 2833.0
22.9078 2444.0
22.9512 2363.0
22.9947 2280.0
23.0381 2197.0
23.0816 2111.0
23.1251 1956.0
23.1685 1772.0
23.212 1708.0
23.2555 1580.0
23.2989 1518.0
23.3424 1571.0
23.3859 1513.0
23.4293 1635.0
23.4728 1850.0
23.5163 2335.0
23.5597 3091.0
23.6032 3548.0
23.6467 4028.0
23.6901 3643.0
23.7336 3345.0
23.7771 3471.0
23.8205 3066.0
23.864 2550.0
23.9075 2157.0
23.9509 1901.0
23.9944 1578.0
24.0379 1555.0
24.0813 1430.0
24.1248 1503.0
24.1683 1733.0
24.2117 2146.0
24.2552 2409.0
24.2987 2906.0
24.3421 3035.0
24.3856 3111.0
24.4291 3425.0
24.4725 3197.0
24.516 2578.0
24.5595 2186.0
24.6029 1857.0
24.6464 1983.0
24.6898 1912.0
24.7333 1969.0
24.7768 1717.0
24.8202 1551.0
24.8637 1408.0
24.9072 1300.0
24.9506 1357.0
24.9941 1331.0
25.0376 1645.0
25.081 1948.0
25.1245 2206.0
25.168 2575.0
25.2114 2706.0
25.2549 2638.0
25.2984 2597.0
25.3418 2226.0
25.3853 2108.0
25.4288 2038.0
25.4722 2054.0
25.5157 2021.0
25.5592 1937.0
25.6026 1785.0
25.6461 1545.0
25.6896 1297.0
25.733 1158.0
25.7765 1118.0
25.82 1111.0
25.8634 1034.0
25.9069 1091.0
25.9504 1131.0
25.9938 1186.0
26.0373 1255.0
26.0808 1327.0
26.1242 1452.0
26.1677 1622.0
26.2111 1861.0
26.2546 2173.0
26.2981 2784.0
26.3415 3362.0
26.385 3428.0
26.4285 3024.0
26.4719 2547.0
26.5154 2306.0
26.5589 2256.0
26.6023 2069.0
26.6458 2026.0
26.6893 1919.0
26.7327 1753.0
26.7762 1600.0
26.8197 1434.0
26.8631 1364.0
26.9066 1409.0
26.9501 1433.0
26.9935 1561.0
27.037 1652.0
27.0805 1786.0
27.1239 1784.0
27.1674 1781.0
27.2109 1656.0
27.2543 1604.0
27.2978 1622.0
27.3413 1739.0
27.3847 1842.0
27.4282 2124.0
27.4717 2414.0
27.5151 2817.0
27.5586 3048.0
27.6021 3065.0
27.6455 2826.0
27.689 2658.0
27.7325 2120.0
27.7759 1967.0
27.8194 1531.0
27.8628 1430.0
27.9063 1311.0
27.9498 1244.0
27.9932 1249.0
28.0367 1289.0
28.0802 1280.0
28.1236 1274.0
28.1671 1285.0
28.2106 1296.0
28.254 1380.0
28.2975 1533.0
28.341 1465.0
28.3844 1434.0
28.4279 1414.0
28.4714 1448.0
28.5148 1549.0
28.5583 1625.0
28.6018 1908.0
28.6452 1810.0
28.6887 1718.0
28.7322 1506.0
28.7756 1511.0
28.8191 1572.0
28.8626 1773.0
28.906 2161.0
28.9495 2483.0
28.993 2783.0
29.0364 3053.0
29.0799 2824.0
29.1234 2842.0
29.1668 2070.0
29.2103 1726.0
29.2538 1411.0
29.2972 1225.0
29.3407 1220.0
29.3841 1368.0
29.4276 1336.0
29.4711 1317.0
29.5145 1266.0
29.558 1219.0
29.6015 1091.0
29.6449 954.0
29.6884 982.0
29.7319 887.0
29.7753 910.0
29.8188 772.0
29.8623 857.0
29.9057 831.0
29.9492 840.0
29.9927 857.0
30.0361 862.0
30.0796 887.0
30.1231 887.0
30.1665 935.0
30.21 1029.0
30.2535 1044.0
30.2969 1038.0
30.3404 1077.0
30.3839 1198.0
30.4273 1233.0
30.4708 1296.0
30.5143 1278.0
30.5577 1185.0
30.6012 1233.0
30.6447 1195.0
30.6881 1164.0
30.7316 1219.0
30.7751 1173.0
30.8185 1152.0
30.862 1182.0
30.9055 1158.0
30.9489 1316.0
30.9924 1405.0
31.0358 1577.0
31.0793 1670.0
31.1228 1631.0
31.1662 1685.0
31.2097 1445.0
31.2532 1304.0
31.2966 1160.0
31.3401 1101.0
31.3836 980.0
31.427 935.0
31.4705 837.0
31.514 877.0
31.5574 772.0
31.6009 792.0
31.6444 764.0
31.6878 768.0
31.7313 777.0
31.7748 807.0
31.8182 853.0
31.8617 870.0
31.9052 866.0
31.9486 871.0
31.9921 891.0
32.0356 908.0
32.079 953.0
32.1225 946.0
32.166 895.0
32.2094 904.0
32.2529 855.0
32.2964 851.0
32.3398 911.0
32.3833 1066.0
32.4268 1157.0
32.4702 1312.0
32.5137 1514.0
32.5572 1595.0
32.6006 1543.0
32.6441 1287.0
32.6875 1206.0
32.731 1000.0
32.7745 933.0
32.8179 932.0
32.8614 906.0
32.9049 1004.0
32.9483 961.0
32.9918 1001.0
33.0353 988.0
33.0787 963.0
33.1222 1005.0
33.1657 1036.0
33.2091 1046.0
33.2526 1045.0
33.2961 1051.0
33.3395 988.0
33.383 898.0
33.4265 869.0
33.4699 823.0
33.5134 888.0
33.5569 853.0
33.6003 864.0
33.6438 865.0
33.6873 938.0
33.7307 896.0
33.7742 882.0
33.8177 1116.0
33.8611 1360.0
33.9046 1557.0
33.9481 1632.0
33.9915 1589.0
34.035 1599.0
34.0785 1331.0
34.1219 1223.0
34.1654 1096.0
34.2088 974.0
34.2523 1014.0
34.2958 1026.0
34.3392 1028.0
34.3827 1113.0
34.4262 1059.0
34.4696 1110.0
34.5131 1186.0
34.5566 1217.0
34.6 1401.0
34.6435 1495.0
34.687 1565.0
34.7304 1640.0
34.7739 1654.0
34.8174 1906.0
34.8608 2100.0
34.9043 2049.0
34.9478 1674.0
34.9912 1428.0
35.0347 1251.0
35.0782 1254.0
35.1216 1389.0
35.1651 1389.0
35.2086 1420.0
35.252 1401.0
35.2955 1346.0
35.339 1073.0
35.3824 1056.0
35.4259 926.0
35.4694 919.0
35.5128 842.0
35.5563 838.0
35.5998 847.0
35.6432 829.0
35.6867 842.0
35.7302 851.0
35.7736 892.0
35.8171 936.0
35.8605 905.0
35.904 857.0
35.9475 796.0
35.9909 782.0
36.0344 770.0
36.0779 751.0
36.1213 765.0
36.1648 798.0
36.2083 808.0
36.2517 815.0
36.2952 865.0
36.3387 886.0
36.3821 924.0
36.4256 909.0
36.4691 1043.0
36.5125 1104.0
36.556 1104.0
36.5995 1182.0
36.6429 1132.0
36.6864 1176.0
36.7299 1170.0
36.7733 1018.0
36.8168 1034.0
36.8603 1056.0
36.9037 961.0
36.9472 932.0
36.9907 928.0
37.0341 922.0
37.0776 902.0
37.1211 900.0
37.1645 836.0
37.208 864.0
37.2515 826.0
37.2949 823.0
37.3384 844.0
37.3818 840.0
37.4253 844.0
37.4688 790.0
37.5122 893.0
37.5557 892.0
37.5992 896.0
37.6426 903.0
37.6861 933.0
37.7296 899.0
37.773 941.0
37.8165 955.0
37.86 875.0
37.9034 835.0
37.9469 951.0
37.9904 1049.0
38.0338 1176.0
38.0773 1254.0
38.1208 1251.0
38.1642 1178.0
38.2077 1038.0
38.2512 933.0
38.2946 863.0
38.3381 819.0
38.3816 762.0
38.425 719.0
38.4685 798.0
38.512 753.0
38.5554 753.0
38.5989 739.0
38.6424 806.0
38.6858 805.0
38.7293 796.0
38.7728 752.0
38.8162 702.0
38.8597 748.0
38.9032 768.0
38.9466 893.0
38.9901 874.0
39.0335 928.0
39.077 909.0
39.1205 890.0
39.1639 849.0
39.2074 863.0
39.2509 842.0
39.2943 884.0
39.3378 810.0
39.3813 794.0
39.4247 779.0
39.4682 747.0
39.5117 775.0
39.5551 735.0
39.5986 901.0
39.6421 823.0
39.6855 802.0
39.729 830.0
39.7725 802.0
39.8159 700.0
39.8594 748.0
39.9029 683.0
39.9463 715.0
39.9898 694.0
40.0333 744.0
40.0767 790.0
40.1202 862.0
40.1637 968.0
40.2071 1051.0
40.2506 1017.0
40.2941 1044.0
40.3375 1015.0
40.381 965.0
40.4245 1052.0
40.4679 1047.0
40.5114 1153.0
40.5548 1154.0
40.5983 1103.0
40.6418 1049.0
40.6852 922.0
40.7287 870.0
40.7722 784.0
40.8156 700.0
40.8591 770.0
40.9026 819.0
40.946 764.0
40.9895 719.0
41.033 766.0
41.0764 705.0
41.1199 684.0
41.1634 683.0
41.2068 680.0
41.2503 664.0
41.2938 652.0
41.3372 692.0
41.3807 691.0
41.4242 707.0
41.4676 707.0
41.5111 779.0
41.5546 796.0
41.598 779.0
41.6415 883.0
41.685 936.0
41.7284 974.0
41.7719 1020.0
41.8154 925.0
41.8588 973.0
41.9023 876.0
41.9458 772.0
41.9892 753.0
42.0327 734.0
42.0762 669.0
42.1196 686.0
42.1631 730.0
42.2065 780.0
42.25 763.0
42.2935 869.0
42.3369 873.0
42.3804 984.0
42.4239 1020.0
42.4673 995.0
42.5108 1020.0
42.5543 1037.0
42.5977 991.0
42.6412 933.0
42.6847 1023.0
42.7281 1053.0
42.7716 1152.0
42.8151 1099.0
42.8585 1046.0
42.902 920.0
42.9455 863.0
42.9889 816.0
43.0324 798.0
43.0759 860.0
43.1193 889.0
43.1628 919.0
43.2063 963.0
43.2497 1043.0
43.2932 1073.0
43.3367 992.0
43.3801 991.0
43.4236 922.0
43.4671 798.0
43.5105 781.0
43.554 758.0
43.5975 759.0
43.6409 741.0
43.6844 818.0
43.7279 753.0
43.7713 790.0
43.8148 768.0
43.8582 719.0
43.9017 732.0
43.9452 617.0
43.9886 648.0
44.0321 671.0
44.0756 622.0
44.119 719.0
44.1625 704.0
44.206 744.0
44.2494 778.0
44.2929 759.0
44.3364 784.0
44.3798 775.0
44.4233 710.0
44.4668 629.0
44.5102 674.0
44.5537 645.0
44.5972 654.0
44.6406 607.0
44.6841 632.0
44.7276 707.0
44.771 719.0
44.8145 747.0
44.858 721.0
44.9014 767.0
44.9449 824.0
44.9884 994.0
45.0318 896.0
45.0753 917.0
45.1188 903.0
45.1622 833.0
45.2057 808.0
45.2492 795.0
45.2926 831.0
45.3361 827.0
45.3795 756.0
45.423 715.0
45.4665 736.0
45.5099 680.0
45.5534 645.0
45.5969 649.0
45.6403 615.0
45.6838 648.0
45.7273 759.0
45.7707 724.0
45.8142 714.0
45.8577 777.0
45.9011 770.0
45.9446 688.0
45.9881 738.0
46.0315 729.0
46.075 748.0
46.1185 715.0
46.1619 787.0
46.2054 822.0
46.2489 759.0
46.2923 761.0
46.3358 786.0
46.3793 818.0
46.4227 823.0
46.4662 747.0
46.5097 832.0
46.5531 790.0
46.5966 762.0
46.6401 817.0
46.6835 813.0
46.727 815.0
46.7705 866.0
46.8139 741.0
46.8574 745.0
46.9009 740.0
46.9443 727.0
46.9878 670.0
47.0312 640.0
47.0747 691.0
47.1182 634.0
47.1616 636.0
47.2051 609.0
47.2486 644.0
47.292 630.0
47.3355 598.0
47.379 596.0
47.4224 626.0
47.4659 665.0
47.5094 646.0
47.5528 751.0
47.5963 764.0
47.6398 736.0
47.6832 708.0
47.7267 694.0
47.7702 635.0
47.8136 646.0
47.8571 646.0
47.9006 636.0
47.944 647.0
47.9875 675.0
48.031 662.0
48.0744 684.0
48.1179 663.0
48.1614 676.0
48.2048 651.0
48.2483 590.0
48.2918 632.0
48.3352 603.0
48.3787 605.0
48.4222 623.0
48.4656 608.0
48.5091 591.0
48.5525 599.0
48.596 614.0
48.6395 594.0
48.6829 582.0
48.7264 567.0
48.7699 678.0
48.8133 684.0
48.8568 725.0
48.9003 759.0
48.9437 789.0
48.9872 724.0
49.0307 732.0
49.0741 702.0
49.1176 639.0
49.1611 695.0
49.2045 732.0
49.248 839.0
49.2915 829.0
49.3349 812.0
49.3784 764.0
49.4219 765.0
49.4653 689.0
49.5088 666.0
49.5523 643.0
49.5957 626.0
49.6392 577.0
49.6827 631.0
49.7261 625.0
49.7696 555.0
49.8131 592.0
49.8565 658.0
49.9 673.0
49.9435 646.0
49.9869 693.0
50.0304 669.0
50.0739 735.0
50.1173 672.0
50.1608 708.0
50.2042 655.0
50.2477 636.0
50.2912 629.0
50.3346 612.0
50.3781 627.0
50.4216 598.0
50.465 605.0
50.5085 585.0
50.552 622.0
50.5954 634.0
50.6389 590.0
50.6824 588.0
50.7258 579.0
50.7693 540.0
50.8128 556.0
50.8562 579.0
50.8997 578.0
50.9432 561.0
50.9866 516.0
51.0301 558.0
51.0736 557.0
51.117 540.0
51.1605 497.0
51.204 535.0
51.2474 523.0
51.2909 510.0
51.3344 512.0
51.3778 527.0
51.4213 529.0
51.4648 473.0
51.5082 515.0
51.5517 512.0
51.5952 530.0
51.6386 560.0
51.6821 550.0
51.7256 622.0
51.769 546.0
51.8125 602.0
51.8559 588.0
51.8994 570.0
51.9429 611.0
51.9863 606.0
52.0298 626.0
52.0733 624.0
52.1167 638.0
52.1602 594.0
52.2037 612.0
52.2471 617.0
52.2906 594.0
52.3341 545.0
52.3775 528.0
52.421 513.0
52.4645 522.0
52.5079 515.0
52.5514 547.0
52.5949 521.0
52.6383 526.0
52.6818 540.0
52.7253 550.0
52.7687 587.0
52.8122 579.0
52.8557 579.0
52.8991 594.0
52.9426 566.0
52.9861 596.0
53.0295 528.0
53.073 528.0
53.1165 515.0
53.1599 537.0
53.2034 545.0
53.2469 526.0
53.2903 497.0
53.3338 480.0
53.3772 511.0
53.4207 495.0
53.4642 478.0
53.5076 513.0
53.5511 514.0
53.5946 493.0
53.638 519.0
53.6815 485.0
53.725 491.0
53.7684 471.0
53.8119 505.0
53.8554 468.0
53.8988 448.0
53.9423 470.0
53.9858 484.0
54.0292 473.0
54.0727 507.0
54.1162 545.0
54.1596 524.0
54.2031 466.0
54.2466 571.0
54.29 525.0
54.3335 537.0
54.377 502.0
54.4204 441.0
54.4639 480.0
54.5074 488.0
54.5508 510.0
54.5943 470.0
54.6378 449.0
54.6812 478.0
54.7247 460.0
54.7682 441.0
54.8116 488.0
54.8551 471.0
54.8986 461.0
54.942 420.0
54.9855 505.0
55.0289 511.0
55.0724 510.0
55.1159 499.0
55.1593 465.0
55.2028 463.0
55.2463 499.0
55.2897 484.0
55.3332 492.0
55.3767 437.0
55.4201 478.0
55.4636 481.0
55.5071 427.0
55.5505 464.0
55.594 434.0
55.6375 523.0
55.6809 436.0
55.7244 517.0
55.7679 469.0
55.8113 472.0
55.8548 466.0
55.8983 468.0
55.9417 477.0
55.9852 459.0
56.0287 465.0
56.0721 435.0
56.1156 448.0
56.1591 451.0
56.2025 443.0
56.246 474.0
56.2895 415.0
56.3329 404.0
56.3764 407.0
56.4199 436.0
56.4633 474.0
56.5068 444.0
56.5502 426.0
56.5937 403.0
56.6372 434.0
56.6806 434.0
56.7241 425.0
56.7676 397.0
56.811 470.0
56.8545 442.0
56.898 414.0
56.9414 442.0
56.9849 415.0
57.0284 410.0
57.0718 438.0
57.1153 469.0
57.1588 423.0
57.2022 422.0
57.2457 440.0
57.2892 421.0
57.3326 409.0
57.3761 406.0
57.4196 421.0
57.463 462.0
57.5065 424.0
57.55 349.0
57.5934 378.0
57.6369 439.0
57.6804 359.0
57.7238 384.0
57.7673 352.0
57.8108 372.0
57.8542 383.0
57.8977 399.0
57.9412 416.0
57.9846 374.0
58.0281 399.0
58.0716 383.0
58.115 402.0
58.1585 389.0
58.2019 381.0
58.2454 396.0
58.2889 375.0
58.3323 396.0
58.3758 406.0
58.4193 344.0
58.4627 409.0
58.5062 409.0
58.5497 456.0
58.5931 445.0
58.6366 436.0
58.6801 426.0
58.7235 457.0
58.767 388.0
58.8105 421.0
58.8539 363.0
58.8974 402.0
58.9409 426.0
58.9843 356.0
59.0278 421.0
59.0713 351.0
59.1147 373.0
59.1582 384.0
59.2017 411.0
59.2451 371.0
59.2886 389.0
59.3321 385.0
59.3755 424.0
59.419 408.0
59.4625 435.0
59.5059 423.0
59.5494 421.0
59.5929 404.0
59.6363 361.0
59.6798 365.0
59.7233 383.0
59.7667 382.0
59.8102 395.0
59.8536 363.0
59.8971 354.0
59.9406 366.0
59.984 338.0
59.9949 334.0