File: XRD/2025_06_03_CeO2_3_60_8min.xy
3.00043 43202.0
3.0439 41514.0
3.08736 39583.0
3.13083 37539.0
3.1743 35108.0
3.21776 33261.0
3.26123 31873.0
3.30469 29490.0
3.34816 27802.0
3.39163 26600.0
3.43509 24876.0
3.47856 23531.0
3.52202 22164.0
3.56549 20593.0
3.60895 19302.0
3.65242 18385.0
3.69589 17180.0
3.73935 16067.0
3.78282 15172.0
3.82628 14079.0
3.86975 13153.0
3.91321 12026.0
3.95668 11297.0
4.00015 10488.0
4.04361 9796.0
4.08708 8929.0
4.13054 8294.0
4.17401 7656.0
4.21747 7196.0
4.26094 6610.0
4.30441 5859.0
4.34787 5633.0
4.39134 5019.0
4.4348 4694.0
4.47827 4265.0
4.52173 3931.0
4.5652 3682.0
4.60867 3254.0
4.65213 3114.0
4.6956 2823.0
4.73906 2580.0
4.78253 2442.0
4.826 2279.0
4.86946 2214.0
4.91293 2164.0
4.95639 2131.0
4.99986 1927.0
5.04332 1976.0
5.08679 1927.0
5.13026 1956.0
5.17372 1896.0
5.21719 1909.0
5.26065 1876.0
5.30412 1917.0
5.34758 1877.0
5.39105 1793.0
5.43452 1742.0
5.47798 1566.0
5.52145 1458.0
5.56491 1442.0
5.60838 1296.0
5.65184 1118.0
5.69531 1137.0
5.73878 1026.0
5.78224 1031.0
5.82571 963.0
5.86917 964.0
5.91264 950.0
5.9561 955.0
5.99957 898.0
6.04304 899.0
6.0865 788.0
6.12997 827.0
6.17343 775.0
6.2169 822.0
6.26037 756.0
6.30383 707.0
6.3473 723.0
6.39076 686.0
6.43423 674.0
6.47769 639.0
6.52116 675.0
6.56463 624.0
6.60809 618.0
6.65156 663.0
6.69502 623.0
6.73849 564.0
6.78195 532.0
6.82542 499.0
6.86889 525.0
6.91235 515.0
6.95582 465.0
6.99928 429.0
7.04275 487.0
7.08621 459.0
7.12968 482.0
7.17315 463.0
7.21661 392.0
7.26008 466.0
7.30354 390.0
7.34701 412.0
7.39047 437.0
7.43394 390.0
7.47741 399.0
7.52087 407.0
7.56434 382.0
7.6078 372.0
7.65127 377.0
7.69474 373.0
7.7382 351.0
7.78167 345.0
7.82513 350.0
7.8686 311.0
7.91206 369.0
7.95553 362.0
7.999 377.0
8.04246 337.0
8.08593 342.0
8.12939 368.0
8.17286 334.0
8.21632 385.0
8.25979 318.0
8.30326 312.0
8.34672 383.0
8.39019 340.0
8.43365 303.0
8.47712 353.0
8.52058 295.0
8.56405 335.0
8.60752 301.0
8.65098 320.0
8.69445 319.0
8.73791 292.0
8.78138 329.0
8.82485 297.0
8.86831 314.0
8.91178 309.0
8.95524 326.0
8.99871 349.0
9.04217 327.0
9.08564 310.0
9.12911 333.0
9.17257 280.0
9.21604 313.0
9.2595 296.0
9.30297 307.0
9.34643 295.0
9.3899 296.0
9.43337 315.0
9.47683 342.0
9.5203 282.0
9.56376 371.0
9.60723 298.0
9.65069 301.0
9.69416 329.0
9.73763 335.0
9.78109 313.0
9.82456 309.0
9.86802 356.0
9.91149 285.0
9.95495 344.0
9.99842 343.0
10.0419 350.0
10.0854 326.0
10.1288 320.0
10.1723 346.0
10.2157 325.0
10.2592 316.0
10.3027 323.0
10.3461 298.0
10.3896 330.0
10.4331 338.0
10.4765 332.0
10.52 339.0
10.5635 301.0
10.6069 329.0
10.6504 339.0
10.6939 301.0
10.7373 319.0
10.7808 332.0
10.8243 297.0
10.8677 319.0
10.9112 307.0
10.9547 345.0
10.9981 323.0
11.0416 340.0
11.0851 328.0
11.1285 293.0
11.172 319.0
11.2155 301.0
11.2589 342.0
11.3024 315.0
11.3459 335.0
11.3893 320.0
11.4328 352.0
11.4763 343.0
11.5197 329.0
11.5632 340.0
11.6067 328.0
11.6501 344.0
11.6936 343.0
11.7371 333.0
11.7805 351.0
11.824 375.0
11.8674 383.0
11.9109 300.0
11.9544 329.0
11.9978 318.0
12.0413 341.0
12.0848 299.0
12.1282 363.0
12.1717 319.0
12.2152 376.0
12.2586 306.0
12.3021 379.0
12.3456 324.0
12.389 332.0
12.4325 332.0
12.476 334.0
12.5194 336.0
12.5629 333.0
12.6064 338.0
12.6498 324.0
12.6933 333.0
12.7368 326.0
12.7802 320.0
12.8237 338.0
12.8672 315.0
12.9106 355.0
12.9541 323.0
12.9976 335.0
13.041 318.0
13.0845 325.0
13.128 341.0
13.1714 307.0
13.2149 317.0
13.2584 350.0
13.3018 343.0
13.3453 329.0
13.3887 325.0
13.4322 376.0
13.4757 328.0
13.5191 327.0
13.5626 305.0
13.6061 352.0
13.6495 356.0
13.693 335.0
13.7365 384.0
13.7799 349.0
13.8234 304.0
13.8669 343.0
13.9103 336.0
13.9538 304.0
13.9973 344.0
14.0407 359.0
14.0842 347.0
14.1277 311.0
14.1711 307.0
14.2146 315.0
14.2581 358.0
14.3015 327.0
14.345 319.0
14.3885 315.0
14.4319 311.0
14.4754 342.0
14.5189 321.0
14.5623 320.0
14.6058 331.0
14.6493 321.0
14.6927 315.0
14.7362 324.0
14.7797 329.0
14.8231 336.0
14.8666 333.0
14.9101 342.0
14.9535 320.0
14.997 343.0
15.0404 320.0
15.0839 304.0
15.1274 324.0
15.1708 315.0
15.2143 315.0
15.2578 334.0
15.3012 310.0
15.3447 334.0
15.3882 292.0
15.4316 308.0
15.4751 304.0
15.5186 331.0
15.562 347.0
15.6055 299.0
15.649 304.0
15.6924 324.0
15.7359 301.0
15.7794 319.0
15.8228 334.0
15.8663 323.0
15.9098 312.0
15.9532 311.0
15.9967 299.0
16.0402 304.0
16.0836 323.0
16.1271 310.0
16.1706 301.0
16.214 310.0
16.2575 306.0
16.301 344.0
16.3444 321.0
16.3879 329.0
16.4314 353.0
16.4748 330.0
16.5183 322.0
16.5618 319.0
16.6052 322.0
16.6487 308.0
16.6921 345.0
16.7356 325.0
16.7791 313.0
16.8225 339.0
16.866 267.0
16.9095 319.0
16.9529 316.0
16.9964 338.0
17.0399 299.0
17.0833 312.0
17.1268 328.0
17.1703 297.0
17.2137 299.0
17.2572 326.0
17.3007 279.0
17.3441 330.0
17.3876 336.0
17.4311 317.0
17.4745 318.0
17.518 282.0
17.5615 318.0
17.6049 337.0
17.6484 293.0
17.6919 319.0
17.7353 293.0
17.7788 334.0
17.8223 314.0
17.8657 271.0
17.9092 318.0
17.9527 314.0
17.9961 318.0
18.0396 304.0
18.0831 279.0
18.1265 315.0
18.17 322.0
18.2134 331.0
18.2569 307.0
18.3004 301.0
18.3438 280.0
18.3873 285.0
18.4308 320.0
18.4742 322.0
18.5177 298.0
18.5612 318.0
18.6046 344.0
18.6481 302.0
18.6916 312.0
18.735 317.0
18.7785 305.0
18.822 301.0
18.8654 314.0
18.9089 294.0
18.9524 305.0
18.9958 284.0
19.0393 326.0
19.0828 317.0
19.1262 279.0
19.1697 298.0
19.2132 291.0
19.2566 305.0
19.3001 328.0
19.3436 292.0
19.387 297.0
19.4305 315.0
19.474 323.0
19.5174 274.0
19.5609 330.0
19.6044 271.0
19.6478 284.0
19.6913 324.0
19.7348 298.0
19.7782 310.0
19.8217 279.0
19.8651 276.0
19.9086 303.0
19.9521 306.0
19.9955 270.0
20.039 278.0
20.0825 291.0
20.1259 307.0
20.1694 277.0
20.2129 296.0
20.2563 307.0
20.2998 312.0
20.3433 333.0
20.3867 292.0
20.4302 288.0
20.4737 319.0
20.5171 303.0
20.5606 305.0
20.6041 341.0
20.6475 286.0
20.691 302.0
20.7345 274.0
20.7779 282.0
20.8214 280.0
20.8649 282.0
20.9083 277.0
20.9518 271.0
20.9953 299.0
21.0387 294.0
21.0822 321.0
21.1257 269.0
21.1691 302.0
21.2126 288.0
21.2561 318.0
21.2995 279.0
21.343 250.0
21.3864 312.0
21.4299 303.0
21.4734 296.0
21.5168 268.0
21.5603 281.0
21.6038 265.0
21.6472 276.0
21.6907 295.0
21.7342 303.0
21.7776 283.0
21.8211 326.0
21.8646 278.0
21.908 270.0
21.9515 314.0
21.995 282.0
22.0384 273.0
22.0819 301.0
22.1254 274.0
22.1688 284.0
22.2123 304.0
22.2558 291.0
22.2992 313.0
22.3427 292.0
22.3862 282.0
22.4296 313.0
22.4731 279.0
22.5166 292.0
22.56 278.0
22.6035 324.0
22.647 280.0
22.6904 308.0
22.7339 306.0
22.7774 257.0
22.8208 279.0
22.8643 285.0
22.9078 293.0
22.9512 298.0
22.9947 286.0
23.0381 311.0
23.0816 281.0
23.1251 279.0
23.1685 273.0
23.212 280.0
23.2555 274.0
23.2989 317.0
23.3424 274.0
23.3859 361.0
23.4293 291.0
23.4728 303.0
23.5163 301.0
23.5597 274.0
23.6032 259.0
23.6467 289.0
23.6901 294.0
23.7336 285.0
23.7771 288.0
23.8205 286.0
23.864 313.0
23.9075 296.0
23.9509 282.0
23.9944 282.0
24.0379 274.0
24.0813 281.0
24.1248 247.0
24.1683 299.0
24.2117 269.0
24.2552 271.0
24.2987 267.0
24.3421 264.0
24.3856 271.0
24.4291 260.0
24.4725 277.0
24.516 287.0
24.5595 227.0
24.6029 291.0
24.6464 235.0
24.6898 290.0
24.7333 266.0
24.7768 261.0
24.8202 269.0
24.8637 265.0
24.9072 272.0
24.9506 264.0
24.9941 281.0
25.0376 303.0
25.081 232.0
25.1245 275.0
25.168 276.0
25.2114 272.0
25.2549 287.0
25.2984 261.0
25.3418 287.0
25.3853 282.0
25.4288 294.0
25.4722 262.0
25.5157 295.0
25.5592 285.0
25.6026 259.0
25.6461 290.0
25.6896 298.0
25.733 320.0
25.7765 304.0
25.82 330.0
25.8634 326.0
25.9069 306.0
25.9504 236.0
25.9938 314.0
26.0373 276.0
26.0808 248.0
26.1242 282.0
26.1677 259.0
26.2111 265.0
26.2546 277.0
26.2981 247.0
26.3415 304.0
26.385 296.0
26.4285 305.0
26.4719 308.0
26.5154 263.0
26.5589 261.0
26.6023 268.0
26.6458 303.0
26.6893 275.0
26.7327 270.0
26.7762 277.0
26.8197 261.0
26.8631 263.0
26.9066 269.0
26.9501 280.0
26.9935 268.0
27.037 259.0
27.0805 279.0
27.1239 278.0
27.1674 272.0
27.2109 299.0
27.2543 282.0
27.2978 284.0
27.3413 264.0
27.3847 284.0
27.4282 283.0
27.4717 267.0
27.5151 285.0
27.5586 263.0
27.6021 326.0
27.6455 338.0
27.689 349.0
27.7325 365.0
27.7759 367.0
27.8194 356.0
27.8628 359.0
27.9063 323.0
27.9498 385.0
27.9932 402.0
28.0367 387.0
28.0802 469.0
28.1236 503.0
28.1671 516.0
28.2106 565.0
28.254 630.0
28.2975 677.0
28.341 858.0
28.3844 1162.0
28.4279 1679.0
28.4714 3062.0
28.5148 5256.0
28.5583 10220.0
28.6018 16997.0
28.6452 17038.0
28.6887 11840.0
28.7322 6363.0
28.7756 2367.0
28.8191 1366.0
28.8626 934.0
28.906 817.0
28.9495 653.0
28.993 578.0
29.0364 515.0
29.0799 459.0
29.1234 416.0
29.1668 394.0
29.2103 424.0
29.2538 361.0
29.2972 339.0
29.3407 330.0
29.3841 315.0
29.4276 309.0
29.4711 314.0
29.5145 305.0
29.558 306.0
29.6015 339.0
29.6449 356.0
29.6884 281.0
29.7319 316.0
29.7753 315.0
29.8188 280.0
29.8623 311.0
29.9057 308.0
29.9492 320.0
29.9927 295.0
30.0361 311.0
30.0796 284.0
30.1231 280.0
30.1665 278.0
30.21 310.0
30.2535 297.0
30.2969 304.0
30.3404 296.0
30.3839 300.0
30.4273 298.0
30.4708 261.0
30.5143 307.0
30.5577 259.0
30.6012 271.0
30.6447 272.0
30.6881 267.0
30.7316 266.0
30.7751 258.0
30.8185 258.0
30.862 264.0
30.9055 295.0
30.9489 293.0
30.9924 240.0
31.0358 279.0
31.0793 265.0
31.1228 288.0
31.1662 279.0
31.2097 300.0
31.2532 282.0
31.2966 279.0
31.3401 274.0
31.3836 260.0
31.427 246.0
31.4705 251.0
31.514 267.0
31.5574 272.0
31.6009 257.0
31.6444 259.0
31.6878 269.0
31.7313 262.0
31.7748 266.0
31.8182 244.0
31.8617 259.0
31.9052 229.0
31.9486 267.0
31.9921 302.0
32.0356 303.0
32.079 293.0
32.1225 267.0
32.166 261.0
32.2094 275.0
32.2529 262.0
32.2964 273.0
32.3398 268.0
32.3833 248.0
32.4268 278.0
32.4702 284.0
32.5137 250.0
32.5572 279.0
32.6006 315.0
32.6441 274.0
32.6875 312.0
32.731 292.0
32.7745 339.0
32.8179 360.0
32.8614 387.0
32.9049 443.0
32.9483 573.0
32.9918 796.0
33.0353 1279.0
33.0787 2453.0
33.1222 4432.0
33.1657 5287.0
33.2091 4026.0
33.2526 2776.0
33.2961 1307.0
33.3395 695.0
33.383 440.0
33.4265 444.0
33.4699 365.0
33.5134 352.0
33.5569 295.0
33.6003 281.0
33.6438 278.0
33.6873 269.0
33.7307 268.0
33.7742 246.0
33.8177 257.0
33.8611 279.0
33.9046 261.0
33.9481 271.0
33.9915 239.0
34.035 232.0
34.0785 280.0
34.1219 236.0
34.1654 271.0
34.2088 221.0
34.2523 230.0
34.2958 262.0
34.3392 241.0
34.3827 243.0
34.4262 273.0
34.4696 219.0
34.5131 265.0
34.5566 278.0
34.6 217.0
34.6435 224.0
34.687 249.0
34.7304 236.0
34.7739 233.0
34.8174 276.0
34.8608 215.0
34.9043 234.0
34.9478 208.0
34.9912 244.0
35.0347 230.0
35.0782 230.0
35.1216 228.0
35.1651 228.0
35.2086 230.0
35.252 218.0
35.2955 242.0
35.339 218.0
35.3824 227.0
35.4259 216.0
35.4694 206.0
35.5128 217.0
35.5563 203.0
35.5998 229.0
35.6432 248.0
35.6867 249.0
35.7302 214.0
35.7736 219.0
35.8171 239.0
35.8605 233.0
35.904 208.0
35.9475 219.0
35.9909 228.0
36.0344 236.0
36.0779 229.0
36.1213 222.0
36.1648 233.0
36.2083 235.0
36.2517 206.0
36.2952 207.0
36.3387 221.0
36.3821 232.0
36.4256 193.0
36.4691 204.0
36.5125 221.0
36.556 244.0
36.5995 212.0
36.6429 222.0
36.6864 228.0
36.7299 235.0
36.7733 211.0
36.8168 235.0
36.8603 210.0
36.9037 221.0
36.9472 201.0
36.9907 198.0
37.0341 215.0
37.0776 211.0
37.1211 247.0
37.1645 197.0
37.208 216.0
37.2515 222.0
37.2949 204.0
37.3384 205.0
37.3818 220.0
37.4253 189.0
37.4688 207.0
37.5122 217.0
37.5557 208.0
37.5992 213.0
37.6426 199.0
37.6861 205.0
37.7296 220.0
37.773 202.0
37.8165 216.0
37.86 195.0
37.9034 206.0
37.9469 202.0
37.9904 188.0
38.0338 217.0
38.0773 180.0
38.1208 193.0
38.1642 214.0
38.2077 216.0
38.2512 231.0
38.2946 226.0
38.3381 193.0
38.3816 232.0
38.425 216.0
38.4685 218.0
38.512 192.0
38.5554 205.0
38.5989 225.0
38.6424 202.0
38.6858 218.0
38.7293 205.0
38.7728 188.0
38.8162 212.0
38.8597 229.0
38.9032 203.0
38.9466 217.0
38.9901 220.0
39.0335 199.0
39.077 179.0
39.1205 203.0
39.1639 205.0
39.2074 207.0
39.2509 210.0
39.2943 230.0
39.3378 243.0
39.3813 236.0
39.4247 225.0
39.4682 215.0
39.5117 224.0
39.5551 177.0
39.5986 194.0
39.6421 189.0
39.6855 225.0
39.729 200.0
39.7725 189.0
39.8159 187.0
39.8594 195.0
39.9029 200.0
39.9463 204.0
39.9898 165.0
40.0333 208.0
40.0767 197.0
40.1202 190.0
40.1637 190.0
40.2071 195.0
40.2506 215.0
40.2941 208.0
40.3375 199.0
40.381 202.0
40.4245 211.0
40.4679 186.0
40.5114 199.0
40.5548 217.0
40.5983 192.0
40.6418 193.0
40.6852 224.0
40.7287 210.0
40.7722 176.0
40.8156 172.0
40.8591 218.0
40.9026 186.0
40.946 202.0
40.9895 213.0
41.033 210.0
41.0764 211.0
41.1199 168.0
41.1634 187.0
41.2068 192.0
41.2503 210.0
41.2938 168.0
41.3372 174.0
41.3807 204.0
41.4242 198.0
41.4676 180.0
41.5111 197.0
41.5546 206.0
41.598 192.0
41.6415 191.0
41.685 194.0
41.7284 219.0
41.7719 170.0
41.8154 198.0
41.8588 197.0
41.9023 216.0
41.9458 198.0
41.9892 209.0
42.0327 172.0
42.0762 213.0
42.1196 198.0
42.1631 201.0
42.2065 212.0
42.25 182.0
42.2935 212.0
42.3369 183.0
42.3804 193.0
42.4239 179.0
42.4673 194.0
42.5108 194.0
42.5543 210.0
42.5977 177.0
42.6412 212.0
42.6847 213.0
42.7281 201.0
42.7716 216.0
42.8151 204.0
42.8585 204.0
42.902 177.0
42.9455 213.0
42.9889 178.0
43.0324 177.0
43.0759 211.0
43.1193 165.0
43.1628 175.0
43.2063 201.0
43.2497 200.0
43.2932 183.0
43.3367 183.0
43.3801 177.0
43.4236 189.0
43.4671 206.0
43.5105 193.0
43.554 182.0
43.5975 198.0
43.6409 203.0
43.6844 199.0
43.7279 178.0
43.7713 175.0
43.8148 176.0
43.8582 212.0
43.9017 167.0
43.9452 196.0
43.9886 206.0
44.0321 181.0
44.0756 200.0
44.119 184.0
44.1625 192.0
44.206 211.0
44.2494 204.0
44.2929 190.0
44.3364 201.0
44.3798 194.0
44.4233 183.0
44.4668 179.0
44.5102 176.0
44.5537 172.0
44.5972 192.0
44.6406 194.0
44.6841 187.0
44.7276 194.0
44.771 194.0
44.8145 171.0
44.858 179.0
44.9014 214.0
44.9449 189.0
44.9884 185.0
45.0318 190.0
45.0753 162.0
45.1188 208.0
45.1622 193.0
45.2057 216.0
45.2492 169.0
45.2926 146.0
45.3361 180.0
45.3795 174.0
45.423 203.0
45.4665 160.0
45.5099 173.0
45.5534 186.0
45.5969 208.0
45.6403 191.0
45.6838 200.0
45.7273 167.0
45.7707 207.0
45.8142 207.0
45.8577 222.0
45.9011 202.0
45.9446 212.0
45.9881 228.0
46.0315 219.0
46.075 220.0
46.1185 238.0
46.1619 201.0
46.2054 223.0
46.2489 202.0
46.2923 204.0
46.3358 185.0
46.3793 204.0
46.4227 218.0
46.4662 229.0
46.5097 200.0
46.5531 234.0
46.5966 223.0
46.6401 233.0
46.6835 209.0
46.727 223.0
46.7705 250.0
46.8139 227.0
46.8574 233.0
46.9009 240.0
46.9443 279.0
46.9878 274.0
47.0312 299.0
47.0747 315.0
47.1182 318.0
47.1616 385.0
47.2051 419.0
47.2486 485.0
47.292 617.0
47.3355 774.0
47.379 1045.0
47.4224 1687.0
47.4659 3627.0
47.5094 7434.0
47.5528 10056.0
47.5963 6564.0
47.6398 5528.0
47.6832 5246.0
47.7267 2754.0
47.7702 1335.0
47.8136 773.0
47.8571 599.0
47.9006 480.0
47.944 421.0
47.9875 371.0
48.031 331.0
48.0744 302.0
48.1179 273.0
48.1614 283.0
48.2048 248.0
48.2483 249.0
48.2918 233.0
48.3352 234.0
48.3787 227.0
48.4222 238.0
48.4656 220.0
48.5091 210.0
48.5525 224.0
48.596 201.0
48.6395 211.0
48.6829 216.0
48.7264 209.0
48.7699 228.0
48.8133 198.0
48.8568 218.0
48.9003 198.0
48.9437 210.0
48.9872 209.0
49.0307 222.0
49.0741 210.0
49.1176 206.0
49.1611 200.0
49.2045 169.0
49.248 217.0
49.2915 226.0
49.3349 204.0
49.3784 181.0
49.4219 225.0
49.4653 194.0
49.5088 195.0
49.5523 221.0
49.5957 192.0
49.6392 206.0
49.6827 232.0
49.7261 183.0
49.7696 205.0
49.8131 208.0
49.8565 183.0
49.9 222.0
49.9435 208.0
49.9869 208.0
50.0304 183.0
50.0739 218.0
50.1173 193.0
50.1608 211.0
50.2042 216.0
50.2477 190.0
50.2912 182.0
50.3346 209.0
50.3781 195.0
50.4216 196.0
50.465 193.0
50.5085 232.0
50.552 243.0
50.5954 211.0
50.6389 223.0
50.6824 213.0
50.7258 186.0
50.7693 192.0
50.8128 169.0
50.8562 204.0
50.8997 169.0
50.9432 212.0
50.9866 190.0
51.0301 197.0
51.0736 187.0
51.117 209.0
51.1605 179.0
51.204 166.0
51.2474 197.0
51.2909 177.0
51.3344 206.0
51.3778 173.0
51.4213 184.0
51.4648 183.0
51.5082 200.0
51.5517 178.0
51.5952 134.0
51.6386 204.0
51.6821 212.0
51.7256 166.0
51.769 184.0
51.8125 167.0
51.8559 198.0
51.8994 216.0
51.9429 185.0
51.9863 195.0
52.0298 174.0
52.0733 188.0
52.1167 190.0
52.1602 192.0
52.2037 187.0
52.2471 163.0
52.2906 186.0
52.3341 188.0
52.3775 213.0
52.421 203.0
52.4645 183.0
52.5079 194.0
52.5514 192.0
52.5949 188.0
52.6383 187.0
52.6818 165.0
52.7253 182.0
52.7687 220.0
52.8122 190.0
52.8557 188.0
52.8991 169.0
52.9426 170.0
52.9861 171.0
53.0295 160.0
53.073 187.0
53.1165 177.0
53.1599 183.0
53.2034 171.0
53.2469 166.0
53.2903 164.0
53.3338 173.0
53.3772 171.0
53.4207 178.0
53.4642 165.0
53.5076 175.0
53.5511 197.0
53.5946 181.0
53.638 184.0
53.6815 190.0
53.725 161.0
53.7684 186.0
53.8119 176.0
53.8554 190.0
53.8988 173.0
53.9423 176.0
53.9858 180.0
54.0292 182.0
54.0727 169.0
54.1162 183.0
54.1596 187.0
54.2031 159.0
54.2466 189.0
54.29 196.0
54.3335 205.0
54.377 177.0
54.4204 182.0
54.4639 177.0
54.5074 178.0
54.5508 203.0
54.5943 213.0
54.6378 202.0
54.6812 172.0
54.7247 186.0
54.7682 214.0
54.8116 190.0
54.8551 197.0
54.8986 211.0
54.942 178.0
54.9855 224.0
55.0289 220.0
55.0724 187.0
55.1159 211.0
55.1593 197.0
55.2028 205.0
55.2463 193.0
55.2897 227.0
55.3332 188.0
55.3767 209.0
55.4201 228.0
55.4636 215.0
55.5071 257.0
55.5505 191.0
55.594 223.0
55.6375 211.0
55.6809 215.0
55.7244 217.0
55.7679 250.0
55.8113 229.0
55.8548 232.0
55.8983 259.0
55.9417 301.0
55.9852 292.0
56.0287 341.0
56.0721 383.0
56.1156 468.0
56.1591 540.0
56.2025 680.0
56.246 934.0
56.2895 1589.0
56.3329 3473.0
56.3764 6812.0
56.4199 7241.0
56.4633 4112.0
56.5068 3430.0
56.5502 4312.0
56.5937 2925.0
56.6372 1288.0
56.6806 758.0
56.7241 588.0
56.7676 459.0
56.811 369.0
56.8545 295.0
56.898 302.0
56.9414 267.0
56.9849 210.0
57.0284 217.0
57.0718 228.0
57.1153 273.0
57.1588 212.0
57.2022 206.0
57.2457 217.0
57.2892 212.0
57.3326 208.0
57.3761 185.0
57.4196 193.0
57.463 191.0
57.5065 206.0
57.55 193.0
57.5934 185.0
57.6369 173.0
57.6804 185.0
57.7238 185.0
57.7673 188.0
57.8108 182.0
57.8542 175.0
57.8977 203.0
57.9412 171.0
57.9846 180.0
58.0281 179.0
58.0716 199.0
58.115 180.0
58.1585 210.0
58.2019 160.0
58.2454 193.0
58.2889 186.0
58.3323 194.0
58.3758 189.0
58.4193 196.0
58.4627 179.0
58.5062 180.0
58.5497 164.0
58.5931 185.0
58.6366 157.0
58.6801 194.0
58.7235 196.0
58.767 224.0
58.8105 222.0
58.8539 233.0
58.8974 259.0
58.9409 275.0
58.9843 313.0
59.0278 429.0
59.0713 734.0
59.1147 1261.0
59.1582 1544.0
59.2017 961.0
59.2451 733.0
59.2886 911.0
59.3321 803.0
59.3755 480.0
59.419 341.0
59.4625 259.0
59.5059 232.0
59.5494 219.0
59.5929 194.0
59.6363 210.0
59.6798 198.0
59.7233 202.0
59.7667 199.0
59.8102 174.0
59.8536 171.0
59.8971 163.0
59.9406 182.0
59.984 200.0
59.9949 172.0