File: XRD/2025_06_03_Sorbic_Acid_3_60_8min.xy
3.00043 43466.0
3.0439 41335.0
3.08736 39310.0
3.13083 37624.0
3.1743 35240.0
3.21776 33410.0
3.26123 31364.0
3.30469 30007.0
3.34816 28049.0
3.39163 26703.0
3.43509 24883.0
3.47856 23552.0
3.52202 22188.0
3.56549 21008.0
3.60895 19845.0
3.65242 18352.0
3.69589 17381.0
3.73935 16186.0
3.78282 15047.0
3.82628 14198.0
3.86975 13256.0
3.91321 12206.0
3.95668 11279.0
4.00015 10666.0
4.04361 9969.0
4.08708 8851.0
4.13054 8594.0
4.17401 7910.0
4.21747 7142.0
4.26094 6605.0
4.30441 6363.0
4.34787 5717.0
4.39134 5398.0
4.4348 4710.0
4.47827 4542.0
4.52173 4108.0
4.5652 3862.0
4.60867 3581.0
4.65213 3248.0
4.6956 3061.0
4.73906 2811.0
4.78253 2631.0
4.826 2583.0
4.86946 2513.0
4.91293 2307.0
4.95639 2289.0
4.99986 2297.0
5.04332 2248.0
5.08679 2242.0
5.13026 2236.0
5.17372 2279.0
5.21719 2264.0
5.26065 2269.0
5.30412 2292.0
5.34758 2250.0
5.39105 2174.0
5.43452 2036.0
5.47798 1955.0
5.52145 1795.0
5.56491 1817.0
5.60838 1682.0
5.65184 1575.0
5.69531 1491.0
5.73878 1510.0
5.78224 1455.0
5.82571 1431.0
5.86917 1425.0
5.91264 1346.0
5.9561 1372.0
5.99957 1313.0
6.04304 1280.0
6.0865 1271.0
6.12997 1277.0
6.17343 1296.0
6.2169 1270.0
6.26037 1244.0
6.30383 1179.0
6.3473 1178.0
6.39076 1183.0
6.43423 1185.0
6.47769 1164.0
6.52116 1142.0
6.56463 1103.0
6.60809 1128.0
6.65156 1101.0
6.69502 1131.0
6.73849 1072.0
6.78195 1041.0
6.82542 1017.0
6.86889 1063.0
6.91235 1015.0
6.95582 1019.0
6.99928 1031.0
7.04275 1018.0
7.08621 992.0
7.12968 957.0
7.17315 979.0
7.21661 1002.0
7.26008 1034.0
7.30354 984.0
7.34701 992.0
7.39047 989.0
7.43394 904.0
7.47741 985.0
7.52087 976.0
7.56434 954.0
7.6078 931.0
7.65127 935.0
7.69474 986.0
7.7382 981.0
7.78167 947.0
7.82513 925.0
7.8686 1010.0
7.91206 987.0
7.95553 985.0
7.999 982.0
8.04246 987.0
8.08593 945.0
8.12939 1035.0
8.17286 959.0
8.21632 963.0
8.25979 982.0
8.30326 921.0
8.34672 982.0
8.39019 902.0
8.43365 943.0
8.47712 973.0
8.52058 1001.0
8.56405 949.0
8.60752 983.0
8.65098 992.0
8.69445 949.0
8.73791 1017.0
8.78138 1046.0
8.82485 1062.0
8.86831 1030.0
8.91178 1073.0
8.95524 1110.0
8.99871 1069.0
9.04217 1093.0
9.08564 1172.0
9.12911 1186.0
9.17257 1073.0
9.21604 1099.0
9.2595 1090.0
9.30297 1093.0
9.34643 1046.0
9.3899 1008.0
9.43337 1012.0
9.47683 1071.0
9.5203 1016.0
9.56376 1055.0
9.60723 1111.0
9.65069 1073.0
9.69416 1114.0
9.73763 1060.0
9.78109 1067.0
9.82456 1049.0
9.86802 1039.0
9.91149 1065.0
9.95495 1068.0
9.99842 1104.0
10.0419 1067.0
10.0854 1122.0
10.1288 1086.0
10.1723 1141.0
10.2157 1124.0
10.2592 1126.0
10.3027 1132.0
10.3461 1149.0
10.3896 1121.0
10.4331 1181.0
10.4765 1212.0
10.52 1151.0
10.5635 1134.0
10.6069 1138.0
10.6504 1122.0
10.6939 1220.0
10.7373 1186.0
10.7808 1297.0
10.8243 1345.0
10.8677 1557.0
10.9112 1733.0
10.9547 2054.0
10.9981 2337.0
11.0416 2831.0
11.0851 3558.0
11.1285 4666.0
11.172 7117.0
11.2155 13192.0
11.2589 20696.0
11.3024 26287.0
11.3459 30810.0
11.3893 35594.0
11.4328 43693.0
11.4763 47450.0
11.5197 41483.0
11.5632 28282.0
11.6067 17685.0
11.6501 12078.0
11.6936 9970.0
11.7371 7788.0
11.7805 4039.0
11.824 2492.0
11.8674 2096.0
11.9109 1768.0
11.9544 1695.0
11.9978 1600.0
12.0413 1637.0
12.0848 1542.0
12.1282 1536.0
12.1717 1550.0
12.2152 1519.0
12.2586 1546.0
12.3021 1515.0
12.3456 1500.0
12.389 1437.0
12.4325 1541.0
12.476 1636.0
12.5194 1665.0
12.5629 1854.0
12.6064 1993.0
12.6498 2315.0
12.6933 2551.0
12.7368 3015.0
12.7802 3676.0
12.8237 4763.0
12.8672 5914.0
12.9106 6292.0
12.9541 6525.0
12.9976 7199.0
13.041 9457.0
13.0845 12536.0
13.128 13431.0
13.1714 10312.0
13.2149 4298.0
13.2584 1866.0
13.3018 1657.0
13.3453 1475.0
13.3887 1409.0
13.4322 1411.0
13.4757 1375.0
13.5191 1291.0
13.5626 1247.0
13.6061 1225.0
13.6495 1265.0
13.693 1164.0
13.7365 1240.0
13.7799 1187.0
13.8234 1188.0
13.8669 1246.0
13.9103 1133.0
13.9538 1188.0
13.9973 1177.0
14.0407 1179.0
14.0842 1126.0
14.1277 1118.0
14.1711 1138.0
14.2146 1128.0
14.2581 1113.0
14.3015 1137.0
14.345 1130.0
14.3885 1165.0
14.4319 1098.0
14.4754 1112.0
14.5189 1088.0
14.5623 1089.0
14.6058 1105.0
14.6493 1103.0
14.6927 1048.0
14.7362 1079.0
14.7797 1154.0
14.8231 1020.0
14.8666 1044.0
14.9101 1079.0
14.9535 1026.0
14.997 979.0
15.0404 1044.0
15.0839 1079.0
15.1274 1063.0
15.1708 1058.0
15.2143 1041.0
15.2578 1030.0
15.3012 1017.0
15.3447 949.0
15.3882 1019.0
15.4316 971.0
15.4751 1010.0
15.5186 1038.0
15.562 965.0
15.6055 1066.0
15.649 1110.0
15.6924 1037.0
15.7359 1073.0
15.7794 1161.0
15.8228 1141.0
15.8663 1287.0
15.9098 1525.0
15.9532 1614.0
15.9967 1752.0
16.0402 1929.0
16.0836 2183.0
16.1271 2509.0
16.1706 2515.0
16.214 1976.0
16.2575 1679.0
16.301 1484.0
16.3444 1298.0
16.3879 1110.0
16.4314 984.0
16.4748 909.0
16.5183 954.0
16.5618 926.0
16.6052 956.0
16.6487 962.0
16.6921 890.0
16.7356 938.0
16.7791 928.0
16.8225 940.0
16.866 899.0
16.9095 890.0
16.9529 943.0
16.9964 922.0
17.0399 909.0
17.0833 898.0
17.1268 913.0
17.1703 849.0
17.2137 938.0
17.2572 885.0
17.3007 817.0
17.3441 863.0
17.3876 922.0
17.4311 931.0
17.4745 848.0
17.518 842.0
17.5615 866.0
17.6049 904.0
17.6484 881.0
17.6919 929.0
17.7353 943.0
17.7788 946.0
17.8223 937.0
17.8657 963.0
17.9092 961.0
17.9527 1023.0
17.9961 1181.0
18.0396 1375.0
18.0831 1521.0
18.1265 1600.0
18.17 1537.0
18.2134 1405.0
18.2569 1302.0
18.3004 1509.0
18.3438 1724.0
18.3873 1767.0
18.4308 1729.0
18.4742 1467.0
18.5177 1134.0
18.5612 988.0
18.6046 966.0
18.6481 956.0
18.6916 985.0
18.735 962.0
18.7785 918.0
18.822 941.0
18.8654 901.0
18.9089 935.0
18.9524 1009.0
18.9958 989.0
19.0393 1032.0
19.0828 1018.0
19.1262 1159.0
19.1697 1103.0
19.2132 1235.0
19.2566 1266.0
19.3001 1366.0
19.3436 1403.0
19.387 1524.0
19.4305 1432.0
19.474 1350.0
19.5174 1498.0
19.5609 1323.0
19.6044 1131.0
19.6478 1029.0
19.6913 950.0
19.7348 918.0
19.7782 1013.0
19.8217 930.0
19.8651 1002.0
19.9086 996.0
19.9521 1008.0
19.9955 986.0
20.039 1014.0
20.0825 1004.0
20.1259 1029.0
20.1694 939.0
20.2129 1006.0
20.2563 1061.0
20.2998 999.0
20.3433 1099.0
20.3867 1092.0
20.4302 1090.0
20.4737 1234.0
20.5171 1236.0
20.5606 1240.0
20.6041 1281.0
20.6475 1232.0
20.691 1204.0
20.7345 1197.0
20.7779 1161.0
20.8214 1236.0
20.8649 1137.0
20.9083 1117.0
20.9518 1137.0
20.9953 1109.0
21.0387 1135.0
21.0822 1071.0
21.1257 1131.0
21.1691 1114.0
21.2126 1100.0
21.2561 1135.0
21.2995 1134.0
21.343 1094.0
21.3864 1196.0
21.4299 1150.0
21.4734 1188.0
21.5168 1203.0
21.5603 1254.0
21.6038 1190.0
21.6472 1310.0
21.6907 1229.0
21.7342 1204.0
21.7776 1415.0
21.8211 1371.0
21.8646 1328.0
21.908 1448.0
21.9515 1521.0
21.995 1704.0
22.0384 1764.0
22.0819 1988.0
22.1254 2212.0
22.1688 2302.0
22.2123 2579.0
22.2558 3065.0
22.2992 3468.0
22.3427 3893.0
22.3862 4296.0
22.4296 5343.0
22.4731 6702.0
22.5166 9635.0
22.56 14762.0
22.6035 21613.0
22.647 32091.0
22.6904 43770.0
22.7339 57008.0
22.7774 78831.0
22.8208 90876.0
22.8643 88312.0
22.9078 76698.0
22.9512 73856.0
22.9947 75649.0
23.0381 68094.0
23.0816 51466.0
23.1251 37398.0
23.1685 26366.0
23.212 17017.0
23.2555 9580.0
23.2989 6951.0
23.3424 6225.0
23.3859 6623.0
23.4293 8056.0
23.4728 9878.0
23.5163 9994.0
23.5597 8785.0
23.6032 7795.0
23.6467 7233.0
23.6901 6571.0
23.7336 6138.0
23.7771 5785.0
23.8205 5278.0
23.864 4452.0
23.9075 3476.0
23.9509 2881.0
23.9944 2412.0
24.0379 2303.0
24.0813 2262.0
24.1248 2142.0
24.1683 2291.0
24.2117 2192.0
24.2552 2203.0
24.2987 2377.0
24.3421 2362.0
24.3856 2578.0
24.4291 2722.0
24.4725 3426.0
24.516 4661.0
24.5595 7027.0
24.6029 10948.0
24.6464 15048.0
24.6898 20642.0
24.7333 25023.0
24.7768 26388.0
24.8202 24079.0
24.8637 19543.0
24.9072 13979.0
24.9506 11369.0
24.9941 9100.0
25.0376 7623.0
25.081 5358.0
25.1245 3606.0
25.168 2547.0
25.2114 2225.0
25.2549 2089.0
25.2984 1877.0
25.3418 1851.0
25.3853 1774.0
25.4288 1759.0
25.4722 1653.0
25.5157 1723.0
25.5592 1629.0
25.6026 1704.0
25.6461 1775.0
25.6896 1708.0
25.733 1786.0
25.7765 1697.0
25.82 1685.0
25.8634 1669.0
25.9069 1742.0
25.9504 1880.0
25.9938 1867.0
26.0373 1878.0
26.0808 1767.0
26.1242 1696.0
26.1677 1705.0
26.2111 1683.0
26.2546 1649.0
26.2981 1681.0
26.3415 1823.0
26.385 1897.0
26.4285 2127.0
26.4719 2247.0
26.5154 2563.0
26.5589 2725.0
26.6023 2714.0
26.6458 2535.0
26.6893 2183.0
26.7327 1700.0
26.7762 1625.0
26.8197 1517.0
26.8631 1598.0
26.9066 1648.0
26.9501 1612.0
26.9935 1642.0
27.037 1648.0
27.0805 1827.0
27.1239 1862.0
27.1674 1962.0
27.2109 2098.0
27.2543 2320.0
27.2978 2563.0
27.3413 2513.0
27.3847 2716.0
27.4282 2943.0
27.4717 3522.0
27.5151 4531.0
27.5586 7358.0
27.6021 10203.0
27.6455 14365.0
27.689 18693.0
27.7325 23935.0
27.7759 29945.0
27.8194 28503.0
27.8628 22404.0
27.9063 16241.0
27.9498 12748.0
27.9932 9570.0
28.0367 6914.0
28.0802 4558.0
28.1236 3098.0
28.1671 2181.0
28.2106 1926.0
28.254 1796.0
28.2975 1589.0
28.341 1585.0
28.3844 1463.0
28.4279 1564.0
28.4714 1425.0
28.5148 1358.0
28.5583 1375.0
28.6018 1423.0
28.6452 1424.0
28.6887 1367.0
28.7322 1339.0
28.7756 1310.0
28.8191 1300.0
28.8626 1256.0
28.906 1285.0
28.9495 1285.0
28.993 1248.0
29.0364 1311.0
29.0799 1270.0
29.1234 1206.0
29.1668 1271.0
29.2103 1215.0
29.2538 1160.0
29.2972 1259.0
29.3407 1189.0
29.3841 1249.0
29.4276 1196.0
29.4711 1316.0
29.5145 1252.0
29.558 1437.0
29.6015 1538.0
29.6449 1657.0
29.6884 1834.0
29.7319 1759.0
29.7753 1584.0
29.8188 1427.0
29.8623 1248.0
29.9057 1168.0
29.9492 1094.0
29.9927 1116.0
30.0361 1078.0
30.0796 1076.0
30.1231 1061.0
30.1665 1061.0
30.21 1060.0
30.2535 1062.0
30.2969 1016.0
30.3404 1068.0
30.3839 1010.0
30.4273 1019.0
30.4708 1067.0
30.5143 1058.0
30.5577 1007.0
30.6012 1037.0
30.6447 1018.0
30.6881 1068.0
30.7316 988.0
30.7751 988.0
30.8185 1048.0
30.862 975.0
30.9055 965.0
30.9489 960.0
30.9924 995.0
31.0358 1013.0
31.0793 1012.0
31.1228 1037.0
31.1662 998.0
31.2097 1076.0
31.2532 1053.0
31.2966 1124.0
31.3401 1262.0
31.3836 1550.0
31.427 1887.0
31.4705 2223.0
31.514 2442.0
31.5574 2765.0
31.6009 2848.0
31.6444 2460.0
31.6878 2262.0
31.7313 2156.0
31.7748 2053.0
31.8182 1970.0
31.8617 1836.0
31.9052 1684.0
31.9486 1654.0
31.9921 1733.0
32.0356 1871.0
32.079 2272.0
32.1225 2361.0
32.166 2742.0
32.2094 3188.0
32.2529 3717.0
32.2964 3679.0
32.3398 3245.0
32.3833 2981.0
32.4268 2400.0
32.4702 2304.0
32.5137 2144.0
32.5572 2213.0
32.6006 2174.0
32.6441 1964.0
32.6875 1915.0
32.731 1776.0
32.7745 1489.0
32.8179 1431.0
32.8614 1228.0
32.9049 1244.0
32.9483 1324.0
32.9918 1276.0
33.0353 1257.0
33.0787 1185.0
33.1222 1137.0
33.1657 1171.0
33.2091 1229.0
33.2526 1249.0
33.2961 1198.0
33.3395 1191.0
33.383 1100.0
33.4265 1037.0
33.4699 1071.0
33.5134 978.0
33.5569 996.0
33.6003 913.0
33.6438 1012.0
33.6873 1127.0
33.7307 1288.0
33.7742 1251.0
33.8177 1355.0
33.8611 1307.0
33.9046 1365.0
33.9481 1254.0
33.9915 1242.0
34.035 1208.0
34.0785 1185.0
34.1219 1071.0
34.1654 1054.0
34.2088 1002.0
34.2523 866.0
34.2958 863.0
34.3392 860.0
34.3827 798.0
34.4262 824.0
34.4696 841.0
34.5131 893.0
34.5566 863.0
34.6 928.0
34.6435 1039.0
34.687 913.0
34.7304 923.0
34.7739 923.0
34.8174 877.0
34.8608 867.0
34.9043 852.0
34.9478 826.0
34.9912 853.0
35.0347 810.0
35.0782 833.0
35.1216 844.0
35.1651 886.0
35.2086 857.0
35.252 863.0
35.2955 884.0
35.339 852.0
35.3824 960.0
35.4259 1126.0
35.4694 1307.0
35.5128 1541.0
35.5563 1791.0
35.5998 1982.0
35.6432 1970.0
35.6867 1914.0
35.7302 2056.0
35.7736 2618.0
35.8171 3146.0
35.8605 3587.0
35.904 4423.0
35.9475 5089.0
35.9909 4948.0
36.0344 4258.0
36.0779 3237.0
36.1213 2386.0
36.1648 1648.0
36.2083 1380.0
36.2517 1236.0
36.2952 1070.0
36.3387 1031.0
36.3821 959.0
36.4256 956.0
36.4691 922.0
36.5125 937.0
36.556 939.0
36.5995 954.0
36.6429 994.0
36.6864 1027.0
36.7299 1022.0
36.7733 1089.0
36.8168 1214.0
36.8603 1313.0
36.9037 1474.0
36.9472 1357.0
36.9907 1237.0
37.0341 1162.0
37.0776 1113.0
37.1211 1182.0
37.1645 1117.0
37.208 1015.0
37.2515 1057.0
37.2949 902.0
37.3384 864.0
37.3818 838.0
37.4253 805.0
37.4688 872.0
37.5122 826.0
37.5557 869.0
37.5992 880.0
37.6426 886.0
37.6861 833.0
37.7296 813.0
37.773 873.0
37.8165 891.0
37.86 832.0
37.9034 860.0
37.9469 832.0
37.9904 793.0
38.0338 816.0
38.0773 790.0
38.1208 842.0
38.1642 819.0
38.2077 819.0
38.2512 838.0
38.2946 877.0
38.3381 798.0
38.3816 835.0
38.425 841.0
38.4685 787.0
38.512 854.0
38.5554 856.0
38.5989 860.0
38.6424 853.0
38.6858 905.0
38.7293 894.0
38.7728 1004.0
38.8162 1018.0
38.8597 1014.0
38.9032 1019.0
38.9466 1044.0
38.9901 1110.0
39.0335 1196.0
39.077 1192.0
39.1205 1374.0
39.1639 1329.0
39.2074 1403.0
39.2509 1455.0
39.2943 1648.0
39.3378 2031.0
39.3813 2158.0
39.4247 2043.0
39.4682 1898.0
39.5117 1650.0
39.5551 1484.0
39.5986 1276.0
39.6421 1407.0
39.6855 1600.0
39.729 1924.0
39.7725 2135.0
39.8159 2197.0
39.8594 2309.0
39.9029 2613.0
39.9463 2827.0
39.9898 3606.0
40.0333 3890.0
40.0767 3448.0
40.1202 2711.0
40.1637 2137.0
40.2071 1562.0
40.2506 1124.0
40.2941 1126.0
40.3375 1064.0
40.381 1034.0
40.4245 970.0
40.4679 907.0
40.5114 873.0
40.5548 893.0
40.5983 847.0
40.6418 938.0
40.6852 1040.0
40.7287 1108.0
40.7722 1104.0
40.8156 1184.0
40.8591 1287.0
40.9026 1300.0
40.946 1231.0
40.9895 1190.0
41.033 1240.0
41.0764 1313.0
41.1199 1359.0
41.1634 1343.0
41.2068 1367.0
41.2503 1425.0
41.2938 1490.0
41.3372 1572.0
41.3807 1454.0
41.4242 1414.0
41.4676 1298.0
41.5111 1253.0
41.5546 1122.0
41.598 922.0
41.6415 923.0
41.685 878.0
41.7284 839.0
41.7719 789.0
41.8154 813.0
41.8588 765.0
41.9023 723.0
41.9458 763.0
41.9892 772.0
42.0327 741.0
42.0762 819.0
42.1196 777.0
42.1631 720.0
42.2065 733.0
42.25 731.0
42.2935 757.0
42.3369 728.0
42.3804 775.0
42.4239 764.0
42.4673 784.0
42.5108 845.0
42.5543 988.0
42.5977 989.0
42.6412 978.0
42.6847 1033.0
42.7281 926.0
42.7716 848.0
42.8151 865.0
42.8585 867.0
42.902 866.0
42.9455 875.0
42.9889 924.0
43.0324 1047.0
43.0759 1168.0
43.1193 1194.0
43.1628 1273.0
43.2063 1101.0
43.2497 1140.0
43.2932 946.0
43.3367 893.0
43.3801 816.0
43.4236 808.0
43.4671 758.0
43.5105 744.0
43.554 721.0
43.5975 753.0
43.6409 721.0
43.6844 723.0
43.7279 655.0
43.7713 724.0
43.8148 698.0
43.8582 757.0
43.9017 726.0
43.9452 716.0
43.9886 670.0
44.0321 744.0
44.0756 691.0
44.119 717.0
44.1625 759.0
44.206 721.0
44.2494 741.0
44.2929 719.0
44.3364 653.0
44.3798 668.0
44.4233 722.0
44.4668 697.0
44.5102 697.0
44.5537 767.0
44.5972 807.0
44.6406 778.0
44.6841 808.0
44.7276 787.0
44.771 813.0
44.8145 836.0
44.858 835.0
44.9014 854.0
44.9449 873.0
44.9884 940.0
45.0318 1038.0
45.0753 1031.0
45.1188 1147.0
45.1622 1348.0
45.2057 1178.0
45.2492 1216.0
45.2926 1322.0
45.3361 1267.0
45.3795 1146.0
45.423 1144.0
45.4665 1206.0
45.5099 1395.0
45.5534 1772.0
45.5969 1776.0
45.6403 1705.0
45.6838 1690.0
45.7273 1528.0
45.7707 1381.0
45.8142 1419.0
45.8577 1983.0
45.9011 2419.0
45.9446 2745.0
45.9881 2816.0
46.0315 2473.0
46.075 2490.0
46.1185 2178.0
46.1619 1650.0
46.2054 1560.0
46.2489 1610.0
46.2923 1474.0
46.3358 1224.0
46.3793 1111.0
46.4227 991.0
46.4662 936.0
46.5097 898.0
46.5531 826.0
46.5966 855.0
46.6401 951.0
46.6835 1180.0
46.727 1555.0
46.7705 1731.0
46.8139 1723.0
46.8574 1692.0
46.9009 1788.0
46.9443 1537.0
46.9878 1373.0
47.0312 1375.0
47.0747 1162.0
47.1182 1054.0
47.1616 936.0
47.2051 809.0
47.2486 868.0
47.292 759.0
47.3355 760.0
47.379 795.0
47.4224 866.0
47.4659 949.0
47.5094 936.0
47.5528 887.0
47.5963 930.0
47.6398 882.0
47.6832 887.0
47.7267 867.0
47.7702 912.0
47.8136 962.0
47.8571 900.0
47.9006 931.0
47.944 899.0
47.9875 924.0
48.031 988.0
48.0744 910.0
48.1179 865.0
48.1614 948.0
48.2048 864.0
48.2483 915.0
48.2918 1000.0
48.3352 1063.0
48.3787 1008.0
48.4222 928.0
48.4656 910.0
48.5091 927.0
48.5525 857.0
48.596 802.0
48.6395 780.0
48.6829 767.0
48.7264 727.0
48.7699 712.0
48.8133 722.0
48.8568 700.0
48.9003 729.0
48.9437 676.0
48.9872 680.0
49.0307 718.0
49.0741 761.0
49.1176 799.0
49.1611 739.0
49.2045 802.0
49.248 714.0
49.2915 699.0
49.3349 707.0
49.3784 662.0
49.4219 697.0
49.4653 671.0
49.5088 621.0
49.5523 626.0
49.5957 666.0
49.6392 658.0
49.6827 669.0
49.7261 609.0
49.7696 667.0
49.8131 638.0
49.8565 667.0
49.9 644.0
49.9435 645.0
49.9869 609.0
50.0304 648.0
50.0739 670.0
50.1173 664.0
50.1608 635.0
50.2042 669.0
50.2477 661.0
50.2912 646.0
50.3346 627.0
50.3781 621.0
50.4216 618.0
50.465 611.0
50.5085 564.0
50.552 626.0
50.5954 607.0
50.6389 667.0
50.6824 649.0
50.7258 662.0
50.7693 705.0
50.8128 746.0
50.8562 751.0
50.8997 751.0
50.9432 770.0
50.9866 678.0
51.0301 670.0
51.0736 688.0
51.117 669.0
51.1605 656.0
51.204 696.0
51.2474 704.0
51.2909 684.0
51.3344 671.0
51.3778 676.0
51.4213 670.0
51.4648 722.0
51.5082 757.0
51.5517 755.0
51.5952 832.0
51.6386 784.0
51.6821 754.0
51.7256 753.0
51.769 752.0
51.8125 760.0
51.8559 748.0
51.8994 667.0
51.9429 671.0
51.9863 639.0
52.0298 610.0
52.0733 595.0
52.1167 588.0
52.1602 585.0
52.2037 598.0
52.2471 632.0
52.2906 599.0
52.3341 567.0
52.3775 593.0
52.421 590.0
52.4645 603.0
52.5079 583.0
52.5514 608.0
52.5949 603.0
52.6383 616.0
52.6818 637.0
52.7253 656.0
52.7687 652.0
52.8122 615.0
52.8557 616.0
52.8991 607.0
52.9426 631.0
52.9861 613.0
53.0295 646.0
53.073 619.0
53.1165 627.0
53.1599 677.0
53.2034 646.0
53.2469 651.0
53.2903 660.0
53.3338 603.0
53.3772 664.0
53.4207 705.0
53.4642 740.0
53.5076 704.0
53.5511 765.0
53.5946 859.0
53.638 919.0
53.6815 896.0
53.725 1032.0
53.7684 1130.0
53.8119 929.0
53.8554 1005.0
53.8988 1077.0
53.9423 1098.0
53.9858 1139.0
54.0292 1016.0
54.0727 984.0
54.1162 896.0
54.1596 757.0
54.2031 752.0
54.2466 670.0
54.29 622.0
54.3335 677.0
54.377 645.0
54.4204 582.0
54.4639 614.0
54.5074 575.0
54.5508 602.0
54.5943 639.0
54.6378 626.0
54.6812 673.0
54.7247 586.0
54.7682 608.0
54.8116 617.0
54.8551 569.0
54.8986 586.0
54.942 590.0
54.9855 590.0
55.0289 547.0
55.0724 551.0
55.1159 541.0
55.1593 562.0
55.2028 515.0
55.2463 572.0
55.2897 569.0
55.3332 579.0
55.3767 584.0
55.4201 584.0
55.4636 591.0
55.5071 565.0
55.5505 582.0
55.594 552.0
55.6375 548.0
55.6809 574.0
55.7244 531.0
55.7679 588.0
55.8113 570.0
55.8548 590.0
55.8983 620.0
55.9417 587.0
55.9852 618.0
56.0287 605.0
56.0721 676.0
56.1156 654.0
56.1591 603.0
56.2025 703.0
56.246 602.0
56.2895 653.0
56.3329 594.0
56.3764 617.0
56.4199 617.0
56.4633 620.0
56.5068 560.0
56.5502 599.0
56.5937 648.0
56.6372 658.0
56.6806 625.0
56.7241 691.0
56.7676 694.0
56.811 667.0
56.8545 799.0
56.898 947.0
56.9414 958.0
56.9849 983.0
57.0284 1004.0
57.0718 962.0
57.1153 930.0
57.1588 868.0
57.2022 788.0
57.2457 869.0
57.2892 894.0
57.3326 953.0
57.3761 852.0
57.4196 784.0
57.463 808.0
57.5065 773.0
57.55 709.0
57.5934 653.0
57.6369 634.0
57.6804 621.0
57.7238 536.0
57.7673 597.0
57.8108 634.0
57.8542 585.0
57.8977 593.0
57.9412 592.0
57.9846 565.0
58.0281 580.0
58.0716 604.0
58.115 639.0
58.1585 676.0
58.2019 674.0
58.2454 650.0
58.2889 628.0
58.3323 657.0
58.3758 611.0
58.4193 668.0
58.4627 619.0
58.5062 617.0
58.5497 565.0
58.5931 586.0
58.6366 592.0
58.6801 566.0
58.7235 561.0
58.767 640.0
58.8105 610.0
58.8539 592.0
58.8974 676.0
58.9409 643.0
58.9843 567.0
59.0278 589.0
59.0713 591.0
59.1147 595.0
59.1582 568.0
59.2017 592.0
59.2451 581.0
59.2886 555.0
59.3321 640.0
59.3755 582.0
59.419 758.0
59.4625 946.0
59.5059 1152.0
59.5494 1176.0
59.5929 1136.0
59.6363 1205.0
59.6798 1170.0
59.7233 1083.0
59.7667 837.0
59.8102 764.0
59.8536 759.0
59.8971 647.0
59.9406 594.0
59.984 565.0
59.9949 535.0