File: XRD/2025_06_03_CBN_Sorbic_Acid_Slurry.xy
10.0054 5465.0
10.0598 6366.0
10.1141 7044.0
10.1684 7537.0
10.2228 7723.0
10.2771 7176.0
10.3314 6553.0
10.3858 5550.0
10.4401 5235.0
10.4944 5189.0
10.5488 5759.0
10.6031 5961.0
10.6574 6489.0
10.7118 6604.0
10.7661 6235.0
10.8204 5590.0
10.8747 5387.0
10.9291 5763.0
10.9834 6499.0
11.0377 7185.0
11.0921 8272.0
11.1464 9024.0
11.2007 9471.0
11.2551 10134.0
11.3094 10128.0
11.3637 10510.0
11.4181 10047.0
11.4724 9519.0
11.5267 8401.0
11.5811 6893.0
11.6354 5784.0
11.6897 5367.0
11.7441 5192.0
11.7984 5204.0
11.8527 5154.0
11.9071 4832.0
11.9614 4598.0
12.0157 4467.0
12.0701 4599.0
12.1244 4856.0
12.1787 5740.0
12.2331 6768.0
12.2874 8447.0
12.3417 10452.0
12.3961 12197.0
12.4504 13341.0
12.5047 13733.0
12.559 12778.0
12.6134 10819.0
12.6677 8206.0
12.722 6533.0
12.7764 5959.0
12.8307 5577.0
12.885 5632.0
12.9394 5663.0
12.9937 5136.0
13.048 4641.0
13.1024 4066.0
13.1567 3944.0
13.211 3887.0
13.2654 4122.0
13.3197 4369.0
13.374 4619.0
13.4284 4478.0
13.4827 4344.0
13.537 3968.0
13.5914 3715.0
13.6457 3824.0
13.7 3976.0
13.7544 4171.0
13.8087 4185.0
13.863 4018.0
13.9174 3987.0
13.9717 3882.0
14.026 3917.0
14.0803 4319.0
14.1347 4761.0
14.189 5645.0
14.2433 6471.0
14.2977 7686.0
14.352 8427.0
14.4063 9047.0
14.4607 9271.0
14.515 8820.0
14.5693 7686.0
14.6237 6538.0
14.678 5459.0
14.7323 4757.0
14.7867 4324.0
14.841 4235.0
14.8953 3948.0
14.9497 3906.0
15.004 4196.0
15.0583 4591.0
15.1127 5071.0
15.167 5712.0
15.2213 6084.0
15.2757 6321.0
15.33 6412.0
15.3843 6111.0
15.4387 5556.0
15.493 5141.0
15.5473 4739.0
15.6016 4636.0
15.656 4553.0
15.7103 4872.0
15.7646 5097.0
15.819 5827.0
15.8733 6798.0
15.9276 8377.0
15.982 10590.0
16.0363 12697.0
16.0906 14300.0
16.145 15077.0
16.1993 14604.0
16.2536 13215.0
16.308 10555.0
16.3623 8184.0
16.4166 6402.0
16.471 5297.0
16.5253 4970.0
16.5796 4654.0
16.634 4602.0
16.6883 5018.0
16.7426 5402.0
16.797 6024.0
16.8513 6386.0
16.9056 6573.0
16.96 6653.0
17.0143 6267.0
17.0686 5673.0
17.123 5096.0
17.1773 4829.0
17.2316 4635.0
17.2859 4576.0
17.3403 4401.0
17.3946 4766.0
17.4489 4730.0
17.5033 5320.0
17.5576 5770.0
17.6119 6646.0
17.6663 7336.0
17.7206 7845.0
17.7749 8183.0
17.8293 8704.0
17.8836 9372.0
17.9379 10064.0
17.9923 11257.0
18.0466 12026.0
18.1009 12618.0
18.1553 13432.0
18.2096 14208.0
18.2639 15526.0
18.3183 16690.0
18.3726 16962.0
18.4269 16691.0
18.4813 15395.0
18.5356 13782.0
18.5899 11281.0
18.6443 8879.0
18.6986 7164.0
18.7529 6398.0
18.8072 6159.0
18.8616 6585.0
18.9159 7210.0
18.9702 7884.0
19.0246 8422.0
19.0789 9226.0
19.1332 9261.0
19.1876 9105.0
19.2419 8847.0
19.2962 8235.0
19.3506 7752.0
19.4049 7543.0
19.4592 7393.0
19.5136 7565.0
19.5679 7312.0
19.6222 7103.0
19.6766 6917.0
19.7309 7226.0
19.7852 7703.0
19.8396 7900.0
19.8939 8067.0
19.9482 7846.0
20.0026 7318.0
20.0569 6938.0
20.1112 7111.0
20.1656 7360.0
20.2199 8211.0
20.2742 9622.0
20.3286 11584.0
20.3829 13485.0
20.4372 15011.0
20.4915 15384.0
20.5459 14785.0
20.6002 13165.0
20.6545 10968.0
20.7089 9136.0
20.7632 8011.0
20.8175 7301.0
20.8719 6805.0
20.9262 6532.0
20.9805 6256.0
21.0349 5885.0
21.0892 5791.0
21.1435 5973.0
21.1979 6433.0
21.2522 6946.0
21.3065 7459.0
21.3609 8199.0
21.4152 8810.0
21.4695 9095.0
21.5239 9814.0
21.5782 10157.0
21.6325 10734.0
21.6869 11060.0
21.7412 10720.0
21.7955 10140.0
21.8499 9178.0
21.9042 8409.0
21.9585 7732.0
22.0128 7155.0
22.0672 7136.0
22.1215 7007.0
22.1758 7129.0
22.2302 7458.0
22.2845 7794.0
22.3388 7984.0
22.3932 7793.0
22.4475 7149.0
22.5018 6445.0
22.5562 5571.0
22.6105 5176.0
22.6648 4929.0
22.7192 4998.0
22.7735 5120.0
22.8278 5082.0
22.8822 5151.0
22.9365 5174.0
22.9908 5096.0
23.0452 4893.0
23.0995 4727.0
23.1538 4427.0
23.2082 4310.0
23.2625 3956.0
23.3168 3862.0
23.3712 3731.0
23.4255 3765.0
23.4798 3661.0
23.5342 3686.0
23.5885 3727.0
23.6428 3897.0
23.6971 4249.0
23.7515 4253.0
23.8058 4622.0
23.8601 4784.0
23.9145 5137.0
23.9688 5575.0
24.0231 5779.0
24.0775 5938.0
24.1318 5851.0
24.1861 5238.0
24.2405 4759.0
24.2948 4236.0
24.3491 4112.0
24.4035 4038.0
24.4578 4216.0
24.5121 4553.0
24.5665 4856.0
24.6208 5221.0
24.6751 5575.0
24.7295 5543.0
24.7838 5324.0
24.8381 4963.0
24.8925 4743.0
24.9468 4377.0
25.0011 4370.0
25.0555 4618.0
25.1098 4766.0
25.1641 4903.0
25.2184 4807.0
25.2728 4630.0
25.3271 4336.0
25.3814 4154.0
25.4358 3972.0
25.4901 3984.0
25.5444 3977.0
25.5988 4083.0
25.6531 4052.0
25.7074 4088.0
25.7618 3979.0
25.8161 3743.0
25.8704 3549.0
25.9248 3401.0
25.9791 3062.0
26.0334 3149.0
26.0878 3247.0
26.1421 3320.0
26.1964 3317.0
26.2508 3410.0
26.3051 3298.0
26.3594 3143.0
26.4138 2889.0
26.4681 3000.0
26.5224 2814.0
26.5768 2910.0
26.6311 2898.0
26.6854 3061.0
26.7398 3059.0
26.7941 3146.0
26.8484 3135.0
26.9027 3224.0
26.9571 3225.0
27.0114 3407.0
27.0657 3726.0
27.1201 3857.0
27.1744 3869.0
27.2287 3744.0
27.2831 3692.0
27.3374 3388.0
27.3917 3286.0
27.4461 3220.0
27.5004 3087.0
27.5547 3163.0
27.6091 3303.0
27.6634 3176.0
27.7177 3138.0
27.7721 3059.0
27.8264 2893.0
27.8807 2775.0
27.9351 2647.0
27.9894 2693.0
28.0437 2675.0
28.0981 2702.0
28.1524 2771.0
28.2067 2803.0
28.2611 2853.0
28.3154 2774.0
28.3697 2739.0
28.424 2915.0
28.4784 2989.0
28.5327 3060.0
28.587 3284.0
28.6414 3318.0
28.6957 3419.0
28.75 3285.0
28.8044 3127.0
28.8587 2834.0
28.913 2700.0
28.9674 2635.0
29.0217 2590.0
29.076 2624.0
29.1304 2653.0
29.1847 2523.0
29.239 2444.0
29.2934 2322.0
29.3477 2275.0
29.402 2162.0
29.4564 2023.0
29.5107 2124.0
29.565 2116.0
29.6194 2077.0
29.6737 2249.0
29.728 2233.0
29.7824 2374.0
29.8367 2474.0
29.891 2400.0
29.9454 2552.0
29.9997 2621.0
30.054 2564.0
30.1083 2414.0
30.1627 2318.0
30.217 2257.0
30.2713 2045.0
30.3257 2143.0
30.38 2090.0
30.4343 2115.0
30.4887 2305.0
30.543 2450.0
30.5973 2390.0
30.6517 2367.0
30.706 2355.0
30.7603 2494.0
30.8147 2702.0
30.869 2865.0
30.9233 2815.0
30.9777 2710.0
31.032 2575.0
31.0863 2396.0
31.1407 2185.0
31.195 2043.0
31.2493 2027.0
31.3037 1979.0
31.358 2035.0
31.4123 2042.0
31.4667 2055.0
31.521 1985.0
31.5753 1982.0
31.6296 2004.0
31.684 2116.0
31.7383 2053.0
31.7926 2102.0
31.847 2160.0
31.9013 2248.0
31.9556 2226.0
32.01 2384.0
32.0643 2521.0
32.1186 2621.0
32.173 2493.0
32.2273 2320.0
32.2816 2206.0
32.336 2273.0
32.3903 2167.0
32.4446 2200.0
32.499 2241.0
32.5533 2361.0
32.6076 2535.0
32.662 2488.0
32.7163 2351.0
32.7706 2356.0
32.825 2178.0
32.8793 2056.0
32.9336 2022.0
32.988 2024.0
33.0423 1989.0
33.0966 1940.0
33.151 1934.0
33.2053 1877.0
33.2596 1851.0
33.3139 1825.0
33.3683 1758.0
33.4226 1819.0
33.4769 1774.0
33.5313 1760.0
33.5856 1734.0
33.6399 1779.0
33.6943 1877.0
33.7486 1936.0
33.8029 1820.0
33.8573 1874.0
33.9116 2040.0
33.9659 2024.0
34.0203 2054.0
34.0746 2096.0
34.1289 2052.0
34.1833 2019.0
34.2376 2060.0
34.2919 1956.0
34.3463 2113.0
34.4006 1923.0
34.4549 1944.0
34.5093 1993.0
34.5636 2055.0
34.6179 2102.0
34.6723 2221.0
34.7266 2017.0
34.7809 2227.0
34.8352 2076.0
34.8896 2131.0
34.9439 2089.0
34.9982 1958.0
35.0526 2086.0
35.1069 1974.0
35.1612 1958.0
35.2156 1906.0
35.2699 1753.0
35.3242 1796.0
35.3786 1796.0
35.4329 1730.0
35.4872 1763.0
35.5416 1767.0
35.5959 1811.0
35.6502 1720.0
35.7046 1790.0
35.7589 1874.0
35.8132 1812.0
35.8676 1826.0
35.9219 1727.0
35.9762 1854.0
36.0306 1748.0
36.0849 1793.0
36.1392 1785.0
36.1936 1815.0
36.2479 1731.0
36.3022 1875.0
36.3566 1901.0
36.4109 1980.0
36.4652 1921.0
36.5195 2011.0
36.5739 1918.0
36.6282 1976.0
36.6825 1910.0
36.7369 1914.0
36.7912 1898.0
36.8455 1786.0
36.8999 1903.0
36.9542 1841.0
37.0085 1827.0
37.0629 1893.0
37.1172 1969.0
37.1715 2101.0
37.2259 2159.0
37.2802 2415.0
37.3345 2585.0
37.3889 2648.0
37.4432 2678.0
37.4975 2606.0
37.5519 2389.0
37.6062 2339.0
37.6605 2196.0
37.7149 2036.0
37.7692 2128.0
37.8235 2102.0
37.8779 2052.0
37.9322 2062.0
37.9865 2078.0
38.0408 2252.0
38.0952 2292.0
38.1495 2341.0
38.2038 2260.0
38.2582 2199.0
38.3125 2151.0
38.3668 2051.0
38.4212 1938.0
38.4755 1931.0
38.5298 2002.0
38.5842 1857.0
38.6385 1783.0
38.6928 1834.0
38.7472 1819.0
38.8015 1764.0
38.8558 1720.0
38.9102 1709.0
38.9645 1729.0
39.0188 1737.0
39.0732 1691.0
39.1275 1728.0
39.1818 1661.0
39.2362 1682.0
39.2905 1615.0
39.3448 1651.0
39.3992 1672.0
39.4535 1629.0
39.5078 1586.0
39.5622 1766.0
39.6165 1730.0
39.6708 1860.0
39.7251 1803.0
39.7795 1709.0
39.8338 1747.0
39.8881 1662.0
39.9425 1800.0
39.9968 1765.0
40.0511 1664.0
40.1055 1791.0
40.1598 1818.0
40.2141 1767.0
40.2685 1835.0
40.3228 1842.0
40.3771 1784.0
40.4315 1707.0
40.4858 1814.0
40.5401 1802.0
40.5945 1836.0
40.6488 1832.0
40.7031 1783.0
40.7575 1787.0
40.8118 1745.0
40.8661 1729.0
40.9205 1790.0
40.9748 1796.0
41.0291 1777.0
41.0835 1841.0
41.1378 1706.0
41.1921 1716.0
41.2464 1774.0
41.3008 1664.0
41.3551 1725.0
41.4094 1692.0
41.4638 1816.0
41.5181 1825.0
41.5724 1820.0
41.6268 1866.0
41.6811 1925.0
41.7354 1900.0
41.7898 1835.0
41.8441 1866.0
41.8984 1795.0
41.9528 1774.0
42.0071 1732.0
42.0614 1816.0
42.1158 1801.0
42.1701 1853.0
42.2244 1955.0
42.2788 1909.0
42.3331 1942.0
42.3874 1928.0
42.4418 1942.0
42.4961 1943.0
42.5504 1903.0
42.6048 1833.0
42.6591 1819.0
42.7134 1862.0
42.7677 1821.0
42.8221 1803.0
42.8764 1787.0
42.9307 1758.0
42.9851 1758.0
43.0394 1803.0
43.0937 1684.0
43.1481 1670.0
43.2024 1626.0
43.2567 1556.0
43.3111 1537.0
43.3654 1568.0
43.4197 1508.0
43.4741 1569.0
43.5284 1502.0
43.5827 1539.0
43.6371 1533.0
43.6914 1538.0
43.7457 1452.0
43.8001 1521.0
43.8544 1610.0
43.9087 1564.0
43.9631 1525.0
44.0174 1496.0
44.0717 1568.0
44.1261 1579.0
44.1804 1603.0
44.2347 1509.0
44.2891 1527.0
44.3434 1689.0
44.3977 1600.0
44.452 1580.0
44.5064 1552.0
44.5607 1531.0
44.615 1582.0
44.6694 1584.0
44.7237 1581.0
44.778 1552.0
44.8324 1528.0
44.8867 1555.0
44.941 1577.0
44.9954 1569.0
45.0497 1507.0
45.104 1443.0
45.1584 1484.0
45.2127 1460.0
45.267 1442.0
45.3214 1475.0
45.3757 1502.0
45.43 1454.0
45.4844 1498.0
45.5387 1580.0
45.593 1578.0
45.6474 1504.0
45.7017 1462.0
45.756 1469.0
45.8104 1444.0
45.8647 1403.0
45.919 1509.0
45.9733 1388.0
46.0277 1398.0
46.082 1381.0
46.1363 1384.0
46.1907 1413.0
46.245 1339.0
46.2993 1428.0
46.3537 1406.0
46.408 1495.0
46.4623 1388.0
46.5167 1390.0
46.571 1441.0
46.6253 1436.0
46.6797 1386.0
46.734 1383.0
46.7883 1452.0
46.8427 1367.0
46.897 1397.0
46.9513 1384.0
47.0057 1411.0
47.06 1464.0
47.1143 1452.0
47.1687 1402.0
47.223 1401.0
47.2773 1430.0
47.3317 1411.0
47.386 1361.0
47.4403 1305.0
47.4947 1362.0
47.549 1482.0
47.6033 1343.0
47.6576 1333.0
47.712 1340.0
47.7663 1307.0
47.8206 1335.0
47.875 1277.0
47.9293 1290.0
47.9836 1312.0
48.038 1254.0
48.0923 1302.0
48.1466 1315.0
48.201 1239.0
48.2553 1352.0
48.3096 1310.0
48.364 1297.0
48.4183 1308.0
48.4726 1270.0
48.527 1255.0
48.5813 1321.0
48.6356 1244.0
48.69 1189.0
48.7443 1256.0
48.7986 1196.0
48.853 1243.0
48.9073 1333.0
48.9616 1231.0
49.016 1221.0
49.0703 1333.0
49.1246 1335.0
49.1789 1215.0
49.2333 1323.0
49.2876 1293.0
49.3419 1204.0
49.3963 1313.0
49.4506 1167.0
49.5049 1268.0
49.5593 1218.0
49.6136 1216.0
49.6679 1266.0
49.7223 1230.0
49.7766 1303.0
49.8309 1157.0
49.8853 1226.0
49.9396 1215.0
49.9939 1296.0
50.0483 1176.0
50.1026 1210.0
50.1569 1232.0
50.2113 1188.0
50.2656 1214.0
50.3199 1192.0
50.3743 1222.0
50.4286 1204.0
50.4829 1205.0
50.5373 1137.0
50.5916 1216.0
50.6459 1220.0
50.7003 1150.0
50.7546 1235.0
50.8089 1166.0
50.8632 1212.0
50.9176 1207.0
50.9719 1208.0
51.0262 1263.0
51.0806 1176.0
51.1349 1226.0
51.1892 1169.0
51.2436 1172.0
51.2979 1158.0
51.3522 1165.0
51.4066 1198.0
51.4609 1151.0
51.5152 1156.0
51.5696 1178.0
51.6239 1239.0
51.6782 1145.0
51.7326 1233.0
51.7869 1130.0
51.8412 1157.0
51.8956 1103.0
51.9499 1109.0
52.0042 1126.0
52.0586 1074.0
52.1129 1079.0
52.1672 1122.0
52.2216 1140.0
52.2759 1103.0
52.3302 1131.0
52.3845 1144.0
52.4389 1153.0
52.4932 1176.0
52.5475 1127.0
52.6019 1187.0
52.6562 1120.0
52.7105 1135.0
52.7649 1142.0
52.8192 1081.0
52.8735 1152.0
52.9279 1080.0
52.9822 1092.0
53.0365 1057.0
53.0909 1106.0
53.1452 1106.0
53.1995 1099.0
53.2539 1060.0
53.3082 1048.0
53.3625 1057.0
53.4169 1036.0
53.4712 996.0
53.5255 1021.0
53.5799 1039.0
53.6342 996.0
53.6885 981.0
53.7429 1087.0
53.7972 1059.0
53.8515 995.0
53.9059 993.0
53.9602 1053.0
54.0145 990.0
54.0688 991.0
54.1232 1010.0
54.1775 1000.0
54.2318 1020.0
54.2862 1027.0
54.3405 1018.0
54.3948 986.0
54.4492 1058.0
54.5035 1075.0
54.5578 1070.0
54.6122 1066.0
54.6665 1038.0
54.7208 1071.0
54.7752 993.0
54.8295 1057.0
54.8838 991.0
54.9382 976.0
54.9925 992.0
55.0468 964.0
55.1012 954.0
55.1555 923.0
55.2098 900.0
55.2642 956.0
55.3185 945.0
55.3728 967.0
55.4272 945.0
55.4815 904.0
55.5358 932.0
55.5901 958.0
55.6445 948.0
55.6988 1032.0
55.7531 1007.0
55.8075 1024.0
55.8618 976.0
55.9161 1033.0
55.9705 1029.0
56.0248 1020.0
56.0791 1001.0
56.1335 981.0
56.1878 951.0
56.2421 970.0
56.2965 969.0
56.3508 873.0
56.4051 945.0
56.4595 906.0
56.5138 859.0
56.5681 930.0
56.6225 966.0
56.6768 998.0
56.7311 940.0
56.7855 881.0
56.8398 882.0
56.8941 893.0
56.9485 881.0
57.0028 839.0
57.0571 901.0
57.1115 853.0
57.1658 876.0
57.2201 824.0
57.2744 846.0
57.3288 809.0
57.3831 879.0
57.4374 908.0
57.4918 862.0
57.5461 882.0
57.6004 869.0
57.6548 864.0
57.7091 831.0
57.7634 904.0
57.8178 847.0
57.8721 848.0
57.9264 860.0
57.9808 821.0
58.0351 862.0
58.0894 846.0
58.1438 815.0
58.1981 834.0
58.2524 852.0
58.3068 828.0
58.3611 821.0
58.4154 834.0
58.4698 821.0
58.5241 784.0
58.5784 858.0
58.6328 888.0
58.6871 849.0
58.7414 782.0
58.7957 814.0
58.8501 796.0
58.9044 804.0
58.9587 784.0
59.0131 786.0
59.0674 836.0
59.1217 784.0
59.1761 829.0
59.2304 812.0
59.2847 844.0
59.3391 803.0
59.3934 806.0
59.4477 798.0
59.5021 816.0
59.5564 741.0
59.6107 754.0
59.6651 751.0
59.7194 792.0
59.7737 767.0
59.8281 773.0
59.8824 811.0
59.9367 766.0
59.9911 779.0
60.0454 770.0
60.0997 768.0
60.1541 778.0
60.2084 843.0
60.2627 719.0
60.3171 722.0
60.3714 790.0
60.4257 700.0
60.48 765.0
60.5344 792.0
60.5887 721.0
60.643 755.0
60.6974 746.0
60.7517 733.0
60.806 798.0
60.8604 781.0
60.9147 772.0
60.969 786.0
61.0234 746.0
61.0777 800.0
61.132 736.0
61.1864 738.0
61.2407 723.0
61.295 741.0
61.3494 706.0
61.4037 714.0
61.458 707.0
61.5124 756.0
61.5667 746.0
61.621 718.0
61.6754 709.0
61.7297 735.0
61.784 705.0
61.8384 648.0
61.8927 754.0
61.947 655.0
62.0013 763.0
62.0557 676.0
62.11 750.0
62.1643 773.0
62.2187 713.0
62.273 694.0
62.3273 694.0
62.3817 714.0
62.436 669.0
62.4903 768.0
62.5447 669.0
62.599 721.0
62.6533 728.0
62.7077 702.0
62.762 699.0
62.8163 707.0
62.8707 689.0
62.925 692.0
62.9793 719.0
63.0337 689.0
63.088 724.0
63.1423 652.0
63.1967 716.0
63.251 668.0
63.3053 719.0
63.3597 691.0
63.414 674.0
63.4683 676.0
63.5227 677.0
63.577 621.0
63.6313 681.0
63.6856 634.0
63.74 646.0
63.7943 668.0
63.8486 702.0
63.903 685.0
63.9573 725.0
64.0116 668.0
64.066 651.0
64.1203 708.0
64.1746 643.0
64.229 709.0
64.2833 643.0
64.3376 616.0
64.392 641.0
64.4463 653.0
64.5006 662.0
64.555 688.0
64.6093 635.0
64.6636 668.0
64.718 650.0
64.7723 657.0
64.8266 683.0
64.881 663.0
64.9353 692.0
64.9896 665.0
65.044 657.0
65.0983 596.0
65.1526 638.0
65.2069 670.0
65.2613 656.0
65.3156 674.0
65.3699 631.0
65.4243 612.0
65.4786 644.0
65.5329 647.0
65.5873 655.0
65.6416 592.0
65.6959 611.0
65.7503 637.0
65.8046 639.0
65.8589 611.0
65.9133 620.0
65.9676 607.0
66.0219 611.0
66.0763 617.0
66.1306 615.0
66.1849 640.0
66.2393 582.0
66.2936 619.0
66.3479 610.0
66.4023 612.0
66.4566 603.0
66.5109 603.0
66.5653 593.0
66.6196 618.0
66.6739 620.0
66.7283 594.0
66.7826 539.0
66.8369 613.0
66.8912 611.0
66.9456 601.0
66.9999 595.0
67.0542 635.0
67.1086 611.0
67.1629 595.0
67.2172 612.0
67.2716 616.0
67.3259 565.0
67.3802 649.0
67.4346 644.0
67.4889 635.0
67.5432 604.0
67.5976 592.0
67.6519 616.0
67.7062 570.0
67.7606 606.0
67.8149 557.0
67.8692 596.0
67.9236 613.0
67.9779 572.0
68.0322 566.0
68.0866 623.0
68.1409 596.0
68.1952 637.0
68.2496 634.0
68.3039 590.0
68.3582 619.0
68.4125 587.0
68.4669 584.0
68.5212 596.0
68.5755 616.0
68.6299 593.0
68.6842 562.0
68.7385 563.0
68.7929 624.0
68.8472 632.0
68.9015 623.0
68.9559 622.0
69.0102 628.0
69.0645 565.0
69.1189 624.0
69.1732 650.0
69.2275 543.0
69.2819 585.0
69.3362 609.0
69.3905 594.0
69.4449 575.0
69.4992 586.0
69.5535 604.0
69.6079 612.0
69.6622 573.0
69.7165 623.0
69.7709 582.0
69.8252 605.0
69.8795 630.0
69.9338 617.0
69.9882 626.0
70.0425 595.0
70.0968 566.0
70.1512 608.0
70.2055 578.0
70.2598 588.0
70.3142 595.0
70.3685 585.0
70.4228 575.0
70.4772 612.0
70.5315 592.0
70.5858 591.0
70.6402 603.0
70.6945 608.0
70.7488 589.0
70.8032 643.0
70.8575 539.0
70.9118 628.0
70.9662 585.0
71.0205 651.0
71.0748 518.0
71.1292 567.0
71.1835 573.0
71.2378 598.0
71.2922 610.0
71.3465 592.0
71.4008 603.0
71.4552 589.0
71.5095 568.0
71.5638 548.0
71.6181 594.0
71.6725 592.0
71.7268 566.0
71.7811 587.0
71.8355 588.0
71.8898 598.0
71.9441 595.0
71.9985 621.0
72.0528 590.0
72.1071 658.0
72.1615 639.0
72.2158 623.0
72.2701 629.0
72.3245 548.0
72.3788 635.0
72.4331 569.0
72.4875 589.0
72.5418 574.0
72.5961 538.0
72.6505 565.0
72.7048 573.0
72.7591 571.0
72.8135 549.0
72.8678 567.0
72.9221 595.0
72.9765 628.0
73.0308 617.0
73.0851 604.0
73.1394 567.0
73.1938 608.0
73.2481 565.0
73.3024 581.0
73.3568 591.0
73.4111 588.0
73.4654 586.0
73.5198 621.0
73.5741 597.0
73.6284 600.0
73.6828 602.0
73.7371 561.0
73.7914 626.0
73.8458 591.0
73.9001 618.0
73.9544 610.0
74.0088 594.0
74.0631 557.0
74.1174 639.0
74.1718 549.0
74.2261 623.0
74.2804 635.0
74.3348 546.0
74.3891 634.0
74.4434 583.0
74.4978 580.0
74.5521 593.0
74.6064 585.0
74.6608 576.0
74.7151 550.0
74.7694 547.0
74.8237 575.0
74.8781 585.0
74.9324 527.0
74.9867 608.0
75.0411 581.0
75.0954 581.0
75.1497 588.0
75.2041 602.0
75.2584 561.0
75.3127 632.0
75.3671 625.0
75.4214 604.0
75.4757 573.0
75.5301 605.0
75.5844 638.0
75.6387 627.0
75.6931 615.0
75.7474 632.0
75.8017 604.0
75.8561 631.0
75.9104 625.0
75.9647 618.0
76.0191 582.0
76.0734 588.0
76.1277 631.0
76.1821 623.0
76.2364 632.0
76.2907 595.0
76.345 608.0
76.3994 594.0
76.4537 606.0
76.508 569.0
76.5624 642.0
76.6167 608.0
76.671 616.0
76.7254 617.0
76.7797 607.0
76.834 647.0
76.8884 530.0
76.9427 597.0
76.997 559.0
77.0514 591.0
77.1057 555.0
77.16 628.0
77.2144 590.0
77.2687 619.0
77.323 535.0
77.3774 597.0
77.4317 582.0
77.486 555.0
77.5404 598.0
77.5947 588.0
77.649 589.0
77.7034 573.0
77.7577 607.0
77.812 587.0
77.8664 597.0
77.9207 618.0
77.975 554.0
78.0293 592.0
78.0837 591.0
78.138 560.0
78.1923 586.0
78.2467 638.0
78.301 601.0
78.3553 555.0
78.4097 608.0
78.464 581.0
78.5183 612.0
78.5727 578.0
78.627 611.0
78.6813 600.0
78.7357 610.0
78.79 596.0
78.8443 624.0
78.8987 574.0
78.953 591.0
79.0073 559.0
79.0617 607.0
79.116 584.0
79.1703 617.0
79.2247 587.0
79.279 588.0
79.3333 590.0
79.3877 589.0
79.442 602.0
79.4963 649.0
79.5506 573.0
79.605 585.0
79.6593 646.0
79.7136 576.0
79.768 629.0
79.8223 623.0
79.8766 596.0
79.931 661.0
79.9853 611.0
79.9962 539.0