File: XRD/2025_06_03_CBD_10_80_50s.xy
10.0054 16658.0
10.0598 26440.0
10.1141 40232.0
10.1684 53938.0
10.2228 57658.0
10.2771 49855.0
10.3314 29272.0
10.3858 14195.0
10.4401 6885.0
10.4944 4278.0
10.5488 3886.0
10.6031 3605.0
10.6574 3386.0
10.7118 3303.0
10.7661 3128.0
10.8204 3111.0
10.8747 2970.0
10.9291 3139.0
10.9834 2892.0
11.0377 3034.0
11.0921 3131.0
11.1464 3069.0
11.2007 3139.0
11.2551 3257.0
11.3094 3657.0
11.3637 3815.0
11.4181 4321.0
11.4724 4795.0
11.5267 6198.0
11.5811 9010.0
11.6354 13796.0
11.6897 18511.0
11.7441 17882.0
11.7984 12760.0
11.8527 7241.0
11.9071 4127.0
11.9614 3547.0
12.0157 3369.0
12.0701 3331.0
12.1244 3480.0
12.1787 3737.0
12.2331 4304.0
12.2874 5438.0
12.3417 7310.0
12.3961 8740.0
12.4504 9455.0
12.5047 10174.0
12.559 9746.0
12.6134 7131.0
12.6677 4514.0
12.722 4199.0
12.7764 4499.0
12.8307 5471.0
12.885 6952.0
12.9394 9881.0
12.9937 14745.0
13.048 20281.0
13.1024 25394.0
13.1567 25143.0
13.211 18758.0
13.2654 10472.0
13.3197 5725.0
13.374 4123.0
13.4284 4295.0
13.4827 4696.0
13.537 5749.0
13.5914 7654.0
13.6457 11132.0
13.7 13739.0
13.7544 14771.0
13.8087 13902.0
13.863 9506.0
13.9174 5095.0
13.9717 3306.0
14.026 2891.0
14.0803 2725.0
14.1347 2701.0
14.189 2651.0
14.2433 2582.0
14.2977 2520.0
14.352 2486.0
14.4063 2630.0
14.4607 2523.0
14.515 2652.0
14.5693 2866.0
14.6237 3116.0
14.678 3420.0
14.7323 3760.0
14.7867 4414.0
14.841 5932.0
14.8953 9210.0
14.9497 13860.0
15.004 18476.0
15.0583 23305.0
15.1127 28469.0
15.167 23960.0
15.2213 12965.0
15.2757 8885.0
15.33 9107.0
15.3843 8852.0
15.4387 7005.0
15.493 4772.0
15.5473 3458.0
15.6016 2904.0
15.656 2695.0
15.7103 2838.0
15.7646 2782.0
15.819 2757.0
15.8733 2872.0
15.9276 3273.0
15.982 3611.0
16.0363 4073.0
16.0906 4345.0
16.145 3755.0
16.1993 3219.0
16.2536 2941.0
16.308 2948.0
16.3623 3222.0
16.4166 3563.0
16.471 4276.0
16.5253 4728.0
16.5796 4959.0
16.634 4828.0
16.6883 4652.0
16.7426 4339.0
16.797 4502.0
16.8513 5433.0
16.9056 6193.0
16.96 7079.0
17.0143 7144.0
17.0686 7831.0
17.123 9300.0
17.1773 13530.0
17.2316 21928.0
17.2859 37887.0
17.3403 55567.0
17.3946 61923.0
17.4489 43511.0
17.5033 19164.0
17.5576 8613.0
17.6119 5762.0
17.6663 4852.0
17.7206 5065.0
17.7749 5656.0
17.8293 6889.0
17.8836 9994.0
17.9379 14843.0
17.9923 12980.0
18.0466 6142.0
18.1009 4068.0
18.1553 3861.0
18.2096 4017.0
18.2639 4192.0
18.3183 4300.0
18.3726 4821.0
18.4269 5783.0
18.4813 7680.0
18.5356 11622.0
18.5899 18642.0
18.6443 30215.0
18.6986 43842.0
18.7529 55880.0
18.8072 57278.0
18.8616 44470.0
18.9159 29665.0
18.9702 24026.0
19.0246 17598.0
19.0789 11197.0
19.1332 7922.0
19.1876 6727.0
19.2419 5877.0
19.2962 5989.0
19.3506 7505.0
19.4049 10330.0
19.4592 12772.0
19.5136 13368.0
19.5679 10808.0
19.6222 7710.0
19.6766 5899.0
19.7309 5346.0
19.7852 5166.0
19.8396 5159.0
19.8939 4620.0
19.9482 4322.0
20.0026 4253.0
20.0569 4293.0
20.1112 4534.0
20.1656 4863.0
20.2199 5917.0
20.2742 8067.0
20.3286 12521.0
20.3829 20525.0
20.4372 28969.0
20.4915 31913.0
20.5459 31367.0
20.6002 24872.0
20.6545 15256.0
20.7089 9862.0
20.7632 9261.0
20.8175 9871.0
20.8719 9667.0
20.9262 8607.0
20.9805 7043.0
21.0349 5277.0
21.0892 4260.0
21.1435 4207.0
21.1979 4277.0
21.2522 4539.0
21.3065 4809.0
21.3609 5677.0
21.4152 7705.0
21.4695 11274.0
21.5239 16098.0
21.5782 23278.0
21.6325 26618.0
21.6869 24676.0
21.7412 19036.0
21.7955 12055.0
21.8499 10627.0
21.9042 14772.0
21.9585 24046.0
22.0128 40320.0
22.0672 53909.0
22.1215 62400.0
22.1758 57518.0
22.2302 51482.0
22.2845 31135.0
22.3388 12456.0
22.3932 7027.0
22.4475 7735.0
22.5018 11017.0
22.5562 15891.0
22.6105 19011.0
22.6648 21808.0
22.7192 21364.0
22.7735 16787.0
22.8278 10952.0
22.8822 8050.0
22.9365 7538.0
22.9908 7329.0
23.0452 6745.0
23.0995 5980.0
23.1538 5049.0
23.2082 4741.0
23.2625 4603.0
23.3168 4563.0
23.3712 4500.0
23.4255 4635.0
23.4798 5718.0
23.5342 7815.0
23.5885 9573.0
23.6428 10255.0
23.6971 10109.0
23.7515 10603.0
23.8058 10049.0
23.8601 7997.0
23.9145 6367.0
23.9688 5122.0
24.0231 4278.0
24.0775 4071.0
24.1318 4313.0
24.1861 5307.0
24.2405 6663.0
24.2948 7939.0
24.3491 8489.0
24.4035 9025.0
24.4578 9035.0
24.5121 6968.0
24.5665 5567.0
24.6208 5499.0
24.6751 5779.0
24.7295 5739.0
24.7838 4997.0
24.8381 4131.0
24.8925 3755.0
24.9468 3677.0
25.0011 4079.0
25.0555 4904.0
25.1098 6113.0
25.1641 7467.0
25.2184 8058.0
25.2728 8223.0
25.3271 7363.0
25.3814 6401.0
25.4358 5814.0
25.4901 5817.0
25.5444 5806.0
25.5988 4912.0
25.6531 4161.0
25.7074 3651.0
25.7618 3322.0
25.8161 3179.0
25.8704 3187.0
25.9248 3212.0
25.9791 3251.0
26.0334 3625.0
26.0878 4266.0
26.1421 5192.0
26.1964 6368.0
26.2508 7247.0
26.3051 7846.0
26.3594 8473.0
26.4138 8176.0
26.4681 7117.0
26.5224 6587.0
26.5768 6337.0
26.6311 5676.0
26.6854 5183.0
26.7398 4797.0
26.7941 4333.0
26.8484 3937.0
26.9027 4070.0
26.9571 4697.0
27.0114 4836.0
27.0657 5147.0
27.1201 5478.0
27.1744 5339.0
27.2287 4782.0
27.2831 4785.0
27.3374 5029.0
27.3917 5449.0
27.4461 6343.0
27.5004 8105.0
27.5547 8747.0
27.6091 8362.0
27.6634 8140.0
27.7177 7662.0
27.7721 6013.0
27.8264 4675.0
27.8807 3904.0
27.9351 3616.0
27.9894 3462.0
28.0437 3570.0
28.0981 3570.0
28.1524 3578.0
28.2067 3643.0
28.2611 3877.0
28.3154 4085.0
28.3697 4017.0
28.424 4239.0
28.4784 4394.0
28.5327 4469.0
28.587 4806.0
28.6414 5167.0
28.6957 4738.0
28.75 4450.0
28.8044 4534.0
28.8587 5220.0
28.913 6603.0
28.9674 7394.0
29.0217 8412.0
29.076 8494.0
29.1304 7865.0
29.1847 6137.0
29.239 4653.0
29.2934 3755.0
29.3477 3621.0
29.402 3770.0
29.4564 3577.0
29.5107 3613.0
29.565 3324.0
29.6194 2930.0
29.6737 2629.0
29.728 2572.0
29.7824 2325.0
29.8367 2418.0
29.891 2434.0
29.9454 2338.0
29.9997 2316.0
30.054 2487.0
30.1083 2448.0
30.1627 2564.0
30.217 2751.0
30.2713 2956.0
30.3257 3066.0
30.38 3407.0
30.4343 3553.0
30.4887 3694.0
30.543 3622.0
30.5973 3623.0
30.6517 3597.0
30.706 3546.0
30.7603 3511.0
30.8147 3190.0
30.869 3086.0
30.9233 3211.0
30.9777 3603.0
31.032 4085.0
31.0863 4346.0
31.1407 4478.0
31.195 4344.0
31.2493 3999.0
31.3037 3500.0
31.358 3019.0
31.4123 2688.0
31.4667 2411.0
31.521 2231.0
31.5753 2233.0
31.6296 2270.0
31.684 2228.0
31.7383 2201.0
31.7926 2209.0
31.847 2339.0
31.9013 2442.0
31.9556 2647.0
32.01 2631.0
32.0643 2652.0
32.1186 2694.0
32.173 2579.0
32.2273 2481.0
32.2816 2506.0
32.336 2690.0
32.3903 2845.0
32.4446 3286.0
32.499 3867.0
32.5533 4027.0
32.6076 3534.0
32.662 3188.0
32.7163 2842.0
32.7706 2611.0
32.825 2669.0
32.8793 2834.0
32.9336 2847.0
32.988 2776.0
33.0423 2688.0
33.0966 2839.0
33.151 2808.0
33.2053 2889.0
33.2596 2991.0
33.3139 2935.0
33.3683 2647.0
33.4226 2573.0
33.4769 2438.0
33.5313 2461.0
33.5856 2520.0
33.6399 2524.0
33.6943 2545.0
33.7486 2692.0
33.8029 2978.0
33.8573 3934.0
33.9116 4577.0
33.9659 4825.0
34.0203 4857.0
34.0746 4260.0
34.1289 3461.0
34.1833 3078.0
34.2376 2891.0
34.2919 2935.0
34.3463 3008.0
34.4006 2976.0
34.4549 3109.0
34.5093 3373.0
34.5636 3586.0
34.6179 4331.0
34.6723 4798.0
34.7266 5386.0
34.7809 5410.0
34.8352 6066.0
34.8896 5414.0
34.9439 4626.0
34.9982 3900.0
35.0526 3634.0
35.1069 3901.0
35.1612 4138.0
35.2156 4081.0
35.2699 4228.0
35.3242 3562.0
35.3786 3093.0
35.4329 2758.0
35.4872 2706.0
35.5416 2674.0
35.5959 2535.0
35.6502 2500.0
35.7046 2385.0
35.7589 2469.0
35.8132 2502.0
35.8676 2498.0
35.9219 2413.0
35.9762 2233.0
36.0306 2222.0
36.0849 2165.0
36.1392 2158.0
36.1936 2272.0
36.2479 2262.0
36.3022 2467.0
36.3566 2578.0
36.4109 2700.0
36.4652 2898.0
36.5195 3231.0
36.5739 3287.0
36.6282 3060.0
36.6825 2883.0
36.7369 2793.0
36.7912 2751.0
36.8455 3103.0
36.8999 2935.0
36.9542 2988.0
37.0085 2935.0
37.0629 2771.0
37.1172 2711.0
37.1715 2628.0
37.2259 2547.0
37.2802 2463.0
37.3345 2366.0
37.3889 2516.0
37.4432 2441.0
37.4975 2415.0
37.5519 2333.0
37.6062 2516.0
37.6605 2619.0
37.7149 2659.0
37.7692 2733.0
37.8235 2692.0
37.8779 2752.0
37.9322 2735.0
37.9865 2996.0
38.0408 3309.0
38.0952 3325.0
38.1495 3173.0
38.2038 2849.0
38.2582 2441.0
38.3125 2308.0
38.3668 2233.0
38.4212 2262.0
38.4755 2276.0
38.5298 2160.0
38.5842 2233.0
38.6385 2107.0
38.6928 2076.0
38.7472 2164.0
38.8015 2172.0
38.8558 2184.0
38.9102 2193.0
38.9645 2451.0
39.0188 2451.0
39.0732 2401.0
39.1275 2404.0
39.1818 2384.0
39.2362 2448.0
39.2905 2715.0
39.3448 2470.0
39.3992 2418.0
39.4535 2291.0
39.5078 2134.0
39.5622 2218.0
39.6165 2312.0
39.6708 2299.0
39.7251 2202.0
39.7795 2201.0
39.8338 1996.0
39.8881 1972.0
39.9425 1869.0
39.9968 2130.0
40.0511 2213.0
40.1055 2482.0
40.1598 2666.0
40.2141 2954.0
40.2685 3101.0
40.3228 2952.0
40.3771 2848.0
40.4315 2982.0
40.4858 3113.0
40.5401 2874.0
40.5945 2797.0
40.6488 2537.0
40.7031 2254.0
40.7575 2171.0
40.8118 2114.0
40.8661 2141.0
40.9205 2230.0
40.9748 2143.0
41.0291 1951.0
41.0835 1942.0
41.1378 1967.0
41.1921 1915.0
41.2464 1918.0
41.3008 1888.0
41.3551 1952.0
41.4094 1921.0
41.4638 2059.0
41.5181 2117.0
41.5724 2107.0
41.6268 2302.0
41.6811 2577.0
41.7354 2722.0
41.7898 2820.0
41.8441 2646.0
41.8984 2458.0
41.9528 2251.0
42.0071 1995.0
42.0614 1981.0
42.1158 2009.0
42.1701 2087.0
42.2244 2065.0
42.2788 2261.0
42.3331 2461.0
42.3874 2636.0
42.4418 2839.0
42.4961 2900.0
42.5504 2872.0
42.6048 2856.0
42.6591 2790.0
42.7134 2685.0
42.7677 2628.0
42.8221 2446.0
42.8764 2384.0
42.9307 2196.0
42.9851 2174.0
43.0394 2180.0
43.0937 2432.0
43.1481 2565.0
43.2024 2644.0
43.2567 2760.0
43.3111 2601.0
43.3654 2666.0
43.4197 2452.0
43.4741 2451.0
43.5284 2297.0
43.5827 2102.0
43.6371 2056.0
43.6914 2133.0
43.7457 2061.0
43.8001 1965.0
43.8544 1831.0
43.9087 1806.0
43.9631 1819.0
44.0174 1713.0
44.0717 1823.0
44.1261 1859.0
44.1804 1963.0
44.2347 1952.0
44.2891 2055.0
44.3434 2046.0
44.3977 1926.0
44.452 1844.0
44.5064 1832.0
44.5607 1881.0
44.615 1792.0
44.6694 1864.0
44.7237 1854.0
44.778 1884.0
44.8324 2004.0
44.8867 2074.0
44.941 2290.0
44.9954 2476.0
45.0497 2488.0
45.104 2424.0
45.1584 2195.0
45.2127 2201.0
45.267 2258.0
45.3214 2179.0
45.3757 2196.0
45.43 2014.0
45.4844 2024.0
45.5387 1896.0
45.593 1852.0
45.6474 1896.0
45.7017 2085.0
45.756 2095.0
45.8104 2055.0
45.8647 2077.0
45.919 2150.0
45.9733 2124.0
46.0277 2100.0
46.082 2217.0
46.1363 2086.0
46.1907 2033.0
46.245 2105.0
46.2993 2034.0
46.3537 2185.0
46.408 2056.0
46.4623 2171.0
46.5167 2064.0
46.571 2173.0
46.6253 2264.0
46.6797 2278.0
46.734 2352.0
46.7883 2327.0
46.8427 2177.0
46.897 2038.0
46.9513 1909.0
47.0057 1913.0
47.06 1923.0
47.1143 1788.0
47.1687 1800.0
47.223 1820.0
47.2773 1742.0
47.3317 1785.0
47.386 1784.0
47.4403 1861.0
47.4947 2052.0
47.549 2350.0
47.6033 2347.0
47.6576 2304.0
47.712 2054.0
47.7663 1904.0
47.8206 1828.0
47.875 1798.0
47.9293 1802.0
47.9836 1853.0
48.038 1758.0
48.0923 1851.0
48.1466 1836.0
48.201 1789.0
48.2553 1727.0
48.3096 1692.0
48.364 1725.0
48.4183 1663.0
48.4726 1653.0
48.527 1535.0
48.5813 1621.0
48.6356 1575.0
48.69 1612.0
48.7443 1676.0
48.7986 1782.0
48.853 1779.0
48.9073 1876.0
48.9616 1794.0
49.016 1893.0
49.0703 1820.0
49.1246 1912.0
49.1789 1942.0
49.2333 2072.0
49.2876 2217.0
49.3419 2204.0
49.3963 1990.0
49.4506 1952.0
49.5049 1788.0
49.5593 1758.0
49.6136 1735.0
49.6679 1672.0
49.7223 1652.0
49.7766 1564.0
49.8309 1656.0
49.8853 1752.0
49.9396 1827.0
49.9939 1862.0
50.0483 1980.0
50.1026 2000.0
50.1569 1900.0
50.2113 1861.0
50.2656 1713.0
50.3199 1702.0
50.3743 1738.0
50.4286 1796.0
50.4829 1735.0
50.5373 1717.0
50.5916 1663.0
50.6459 1722.0
50.7003 1636.0
50.7546 1613.0
50.8089 1586.0
50.8632 1590.0
50.9176 1502.0
50.9719 1504.0
51.0262 1491.0
51.0806 1507.0
51.1349 1475.0
51.1892 1423.0
51.2436 1424.0
51.2979 1417.0
51.3522 1420.0
51.4066 1483.0
51.4609 1487.0
51.5152 1494.0
51.5696 1513.0
51.6239 1512.0
51.6782 1655.0
51.7326 1705.0
51.7869 1672.0
51.8412 1813.0
51.8956 1677.0
51.9499 1669.0
52.0042 1786.0
52.0586 1809.0
52.1129 1816.0
52.1672 1821.0
52.2216 1633.0
52.2759 1558.0
52.3302 1545.0
52.3845 1522.0
52.4389 1484.0
52.4932 1467.0
52.5475 1488.0
52.6019 1477.0
52.6562 1533.0
52.7105 1570.0
52.7649 1538.0
52.8192 1578.0
52.8735 1615.0
52.9279 1576.0
52.9822 1570.0
53.0365 1520.0
53.0909 1387.0
53.1452 1352.0
53.1995 1335.0
53.2539 1373.0
53.3082 1363.0
53.3625 1416.0
53.4169 1391.0
53.4712 1412.0
53.5255 1415.0
53.5799 1381.0
53.6342 1452.0
53.6885 1449.0
53.7429 1366.0
53.7972 1370.0
53.8515 1358.0
53.9059 1327.0
53.9602 1301.0
54.0145 1299.0
54.0688 1465.0
54.1232 1412.0
54.1775 1472.0
54.2318 1450.0
54.2862 1447.0
54.3405 1361.0
54.3948 1328.0
54.4492 1350.0
54.5035 1299.0
54.5578 1348.0
54.6122 1288.0
54.6665 1353.0
54.7208 1319.0
54.7752 1317.0
54.8295 1310.0
54.8838 1407.0
54.9382 1397.0
54.9925 1417.0
55.0468 1448.0
55.1012 1341.0
55.1555 1249.0
55.2098 1360.0
55.2642 1268.0
55.3185 1357.0
55.3728 1263.0
55.4272 1339.0
55.4815 1319.0
55.5358 1327.0
55.5901 1341.0
55.6445 1393.0
55.6988 1314.0
55.7531 1396.0
55.8075 1411.0
55.8618 1400.0
55.9161 1279.0
55.9705 1310.0
56.0248 1341.0
56.0791 1261.0
56.1335 1243.0
56.1878 1243.0
56.2421 1211.0
56.2965 1241.0
56.3508 1171.0
56.4051 1196.0
56.4595 1204.0
56.5138 1129.0
56.5681 1190.0
56.6225 1194.0
56.6768 1174.0
56.7311 1124.0
56.7855 1206.0
56.8398 1122.0
56.8941 1111.0
56.9485 1259.0
57.0028 1262.0
57.0571 1268.0
57.1115 1251.0
57.1658 1175.0
57.2201 1186.0
57.2744 1206.0
57.3288 1185.0
57.3831 1202.0
57.4374 1154.0
57.4918 1135.0
57.5461 1180.0
57.6004 1134.0
57.6548 1057.0
57.7091 1092.0
57.7634 1116.0
57.8178 1044.0
57.8721 1074.0
57.9264 1093.0
57.9808 1112.0
58.0351 1103.0
58.0894 1196.0
58.1438 1108.0
58.1981 1124.0
58.2524 1135.0
58.3068 1141.0
58.3611 1100.0
58.4154 1132.0
58.4698 1071.0
58.5241 1114.0
58.5784 1205.0
58.6328 1228.0
58.6871 1223.0
58.7414 1149.0
58.7957 1170.0
58.8501 1116.0
58.9044 1139.0
58.9587 1119.0
59.0131 1097.0
59.0674 1036.0
59.1217 1196.0
59.1761 1017.0
59.2304 1139.0
59.2847 1101.0
59.3391 1107.0
59.3934 1211.0
59.4477 1119.0
59.5021 1101.0
59.5564 1081.0
59.6107 1093.0
59.6651 1034.0
59.7194 1149.0
59.7737 1074.0
59.8281 1050.0
59.8824 1108.0
59.9367 1080.0
59.9911 980.0
60.0454 1005.0
60.0997 957.0
60.1541 1005.0
60.2084 972.0
60.2627 1026.0
60.3171 994.0
60.3714 977.0
60.4257 1016.0
60.48 1102.0
60.5344 1035.0
60.5887 1004.0
60.643 1017.0
60.6974 1016.0
60.7517 1060.0
60.806 1012.0
60.8604 993.0
60.9147 1040.0
60.969 1136.0
61.0234 1023.0
61.0777 1062.0
61.132 1073.0
61.1864 1073.0
61.2407 1067.0
61.295 1041.0
61.3494 1040.0
61.4037 1013.0
61.458 1065.0
61.5124 964.0
61.5667 1121.0
61.621 1055.0
61.6754 968.0
61.7297 1073.0
61.784 970.0
61.8384 944.0
61.8927 1020.0
61.947 962.0
62.0013 987.0
62.0557 950.0
62.11 960.0
62.1643 972.0
62.2187 961.0
62.273 1016.0
62.3273 1049.0
62.3817 1036.0
62.436 1000.0
62.4903 1050.0
62.5447 1006.0
62.599 974.0
62.6533 1008.0
62.7077 939.0
62.762 962.0
62.8163 1015.0
62.8707 1068.0
62.925 955.0
62.9793 964.0
63.0337 947.0
63.088 975.0
63.1423 970.0
63.1967 1015.0
63.251 952.0
63.3053 944.0
63.3597 948.0
63.414 978.0
63.4683 965.0
63.5227 965.0
63.577 957.0
63.6313 984.0
63.6856 956.0
63.74 1009.0
63.7943 938.0
63.8486 956.0
63.903 963.0
63.9573 918.0
64.0116 932.0
64.066 919.0
64.1203 932.0
64.1746 974.0
64.229 918.0
64.2833 915.0
64.3376 887.0
64.392 921.0
64.4463 945.0
64.5006 864.0
64.555 925.0
64.6093 924.0
64.6636 914.0
64.718 889.0
64.7723 889.0
64.8266 876.0
64.881 937.0
64.9353 882.0
64.9896 882.0
65.044 903.0
65.0983 914.0
65.1526 883.0
65.2069 908.0
65.2613 937.0
65.3156 908.0
65.3699 933.0
65.4243 940.0
65.4786 925.0
65.5329 872.0
65.5873 898.0
65.6416 909.0
65.6959 890.0
65.7503 928.0
65.8046 837.0
65.8589 914.0
65.9133 891.0
65.9676 869.0
66.0219 896.0
66.0763 884.0
66.1306 814.0
66.1849 885.0
66.2393 951.0
66.2936 825.0
66.3479 849.0
66.4023 854.0
66.4566 893.0
66.5109 875.0
66.5653 908.0
66.6196 917.0
66.6739 859.0
66.7283 866.0
66.7826 900.0
66.8369 872.0
66.8912 946.0
66.9456 974.0
66.9999 883.0
67.0542 910.0
67.1086 954.0
67.1629 878.0
67.2172 888.0
67.2716 859.0
67.3259 905.0
67.3802 853.0
67.4346 867.0
67.4889 912.0
67.5432 833.0
67.5976 852.0
67.6519 894.0
67.7062 874.0
67.7606 870.0
67.8149 847.0
67.8692 796.0
67.9236 880.0
67.9779 900.0
68.0322 899.0
68.0866 872.0
68.1409 883.0
68.1952 900.0
68.2496 886.0
68.3039 875.0
68.3582 860.0
68.4125 806.0
68.4669 850.0
68.5212 839.0
68.5755 901.0
68.6299 813.0
68.6842 826.0
68.7385 890.0
68.7929 889.0
68.8472 883.0
68.9015 880.0
68.9559 844.0
69.0102 851.0
69.0645 862.0
69.1189 901.0
69.1732 877.0
69.2275 817.0
69.2819 837.0
69.3362 829.0
69.3905 854.0
69.4449 832.0
69.4992 851.0
69.5535 808.0
69.6079 784.0
69.6622 807.0
69.7165 826.0
69.7709 861.0
69.8252 843.0
69.8795 814.0
69.9338 871.0
69.9882 847.0
70.0425 880.0
70.0968 878.0
70.1512 818.0
70.2055 796.0
70.2598 767.0
70.3142 888.0
70.3685 873.0
70.4228 850.0
70.4772 896.0
70.5315 784.0
70.5858 823.0
70.6402 837.0
70.6945 811.0
70.7488 808.0
70.8032 847.0
70.8575 840.0
70.9118 847.0
70.9662 854.0
71.0205 876.0
71.0748 843.0
71.1292 875.0
71.1835 741.0
71.2378 780.0
71.2922 842.0
71.3465 837.0
71.4008 772.0
71.4552 836.0
71.5095 807.0
71.5638 792.0
71.6181 850.0
71.6725 784.0
71.7268 832.0
71.7811 813.0
71.8355 827.0
71.8898 766.0
71.9441 791.0
71.9985 814.0
72.0528 845.0
72.1071 873.0
72.1615 806.0
72.2158 872.0
72.2701 858.0
72.3245 850.0
72.3788 872.0
72.4331 809.0
72.4875 812.0
72.5418 849.0
72.5961 879.0
72.6505 811.0
72.7048 815.0
72.7591 772.0
72.8135 866.0
72.8678 914.0
72.9221 845.0
72.9765 817.0
73.0308 814.0
73.0851 832.0
73.1394 806.0
73.1938 845.0
73.2481 846.0
73.3024 848.0
73.3568 887.0
73.4111 898.0
73.4654 901.0
73.5198 843.0
73.5741 821.0
73.6284 900.0
73.6828 818.0
73.7371 805.0
73.7914 813.0
73.8458 861.0
73.9001 761.0
73.9544 871.0
74.0088 820.0
74.0631 790.0
74.1174 826.0
74.1718 789.0
74.2261 793.0
74.2804 826.0
74.3348 786.0
74.3891 825.0
74.4434 824.0
74.4978 829.0
74.5521 816.0
74.6064 779.0
74.6608 776.0
74.7151 803.0
74.7694 783.0
74.8237 792.0
74.8781 818.0
74.9324 747.0
74.9867 804.0
75.0411 804.0
75.0954 825.0
75.1497 794.0
75.2041 804.0
75.2584 799.0
75.3127 857.0
75.3671 838.0
75.4214 804.0
75.4757 820.0
75.5301 852.0
75.5844 806.0
75.6387 780.0
75.6931 795.0
75.7474 785.0
75.8017 801.0
75.8561 827.0
75.9104 806.0
75.9647 827.0
76.0191 806.0
76.0734 831.0
76.1277 781.0
76.1821 777.0
76.2364 839.0
76.2907 812.0
76.345 768.0
76.3994 811.0
76.4537 810.0
76.508 807.0
76.5624 782.0
76.6167 800.0
76.671 835.0
76.7254 796.0
76.7797 812.0
76.834 786.0
76.8884 824.0
76.9427 858.0
76.997 805.0
77.0514 809.0
77.1057 838.0
77.16 896.0
77.2144 830.0
77.2687 846.0
77.323 863.0
77.3774 854.0
77.4317 818.0
77.486 802.0
77.5404 831.0
77.5947 795.0
77.649 855.0
77.7034 763.0
77.7577 848.0
77.812 790.0
77.8664 828.0
77.9207 808.0
77.975 824.0
78.0293 850.0
78.0837 812.0
78.138 798.0
78.1923 835.0
78.2467 887.0
78.301 776.0
78.3553 775.0
78.4097 797.0
78.464 791.0
78.5183 819.0
78.5727 800.0
78.627 769.0
78.6813 804.0
78.7357 813.0
78.79 772.0
78.8443 792.0
78.8987 740.0
78.953 832.0
79.0073 802.0
79.0617 807.0
79.116 793.0
79.1703 798.0
79.2247 806.0
79.279 819.0
79.3333 783.0
79.3877 853.0
79.442 765.0
79.4963 788.0
79.5506 808.0
79.605 834.0
79.6593 853.0
79.7136 869.0
79.768 843.0
79.8223 802.0
79.8766 790.0
79.931 862.0
79.9853 768.0
79.9962 829.0