File: XRD/2025_06_07_aNIF_3_60_22min.xy
3.00043 133188.0
3.0439 126599.0
3.08736 121711.0
3.13083 115232.0
3.1743 108854.0
3.21776 102001.0
3.26123 96619.0
3.30469 91084.0
3.34816 86206.0
3.39163 81387.0
3.43509 76817.0
3.47856 72223.0
3.52202 68226.0
3.56549 63982.0
3.60895 59703.0
3.65242 56124.0
3.69589 52522.0
3.73935 48934.0
3.78282 45966.0
3.82628 42892.0
3.86975 39935.0
3.91321 37649.0
3.95668 34465.0
4.00015 32027.0
4.04361 29578.0
4.08708 27787.0
4.13054 25601.0
4.17401 23523.0
4.21747 21642.0
4.26094 20169.0
4.30441 18462.0
4.34787 17109.0
4.39134 15551.0
4.4348 14330.0
4.47827 13038.0
4.52173 12145.0
4.5652 11152.0
4.60867 10290.0
4.65213 9461.0
4.6956 8944.0
4.73906 8366.0
4.78253 7794.0
4.826 7401.0
4.86946 7069.0
4.91293 6837.0
4.95639 6802.0
4.99986 6532.0
5.04332 6588.0
5.08679 6418.0
5.13026 6492.0
5.17372 6272.0
5.21719 6267.0
5.26065 6359.0
5.30412 6356.0
5.34758 6193.0
5.39105 6013.0
5.43452 5751.0
5.47798 5451.0
5.52145 4966.0
5.56491 4626.0
5.60838 4437.0
5.65184 4080.0
5.69531 3876.0
5.73878 3641.0
5.78224 3511.0
5.82571 3393.0
5.86917 3409.0
5.91264 3238.0
5.9561 3147.0
5.99957 3186.0
6.04304 3083.0
6.0865 3109.0
6.12997 2913.0
6.17343 2856.0
6.2169 2783.0
6.26037 2678.0
6.30383 2804.0
6.3473 2545.0
6.39076 2437.0
6.43423 2447.0
6.47769 2369.0
6.52116 2336.0
6.56463 2278.0
6.60809 2209.0
6.65156 2157.0
6.69502 2088.0
6.73849 1968.0
6.78195 2001.0
6.82542 1887.0
6.86889 1884.0
6.91235 1808.0
6.95582 1669.0
6.99928 1708.0
7.04275 1629.0
7.08621 1588.0
7.12968 1637.0
7.17315 1623.0
7.21661 1505.0
7.26008 1485.0
7.30354 1477.0
7.34701 1469.0
7.39047 1456.0
7.43394 1341.0
7.47741 1350.0
7.52087 1313.0
7.56434 1292.0
7.6078 1305.0
7.65127 1280.0
7.69474 1346.0
7.7382 1280.0
7.78167 1248.0
7.82513 1264.0
7.8686 1200.0
7.91206 1215.0
7.95553 1246.0
7.999 1220.0
8.04246 1203.0
8.08593 1201.0
8.12939 1227.0
8.17286 1197.0
8.21632 1160.0
8.25979 1110.0
8.30326 1152.0
8.34672 1165.0
8.39019 1126.0
8.43365 1136.0
8.47712 1122.0
8.52058 1167.0
8.56405 1110.0
8.60752 1094.0
8.65098 1100.0
8.69445 1115.0
8.73791 1015.0
8.78138 1077.0
8.82485 1076.0
8.86831 1077.0
8.91178 1084.0
8.95524 1093.0
8.99871 1051.0
9.04217 1120.0
9.08564 1152.0
9.12911 1115.0
9.17257 1087.0
9.21604 1068.0
9.2595 1121.0
9.30297 1064.0
9.34643 1109.0
9.3899 1172.0
9.43337 1082.0
9.47683 1145.0
9.5203 1167.0
9.56376 1184.0
9.60723 1212.0
9.65069 1286.0
9.69416 1325.0
9.73763 1490.0
9.78109 1624.0
9.82456 1890.0
9.86802 2034.0
9.91149 2463.0
9.95495 2866.0
9.99842 3738.0
10.0419 4649.0
10.0854 5894.0
10.1288 7351.0
10.1723 9492.0
10.2157 11362.0
10.2592 12666.0
10.3027 12573.0
10.3461 9607.0
10.3896 5950.0
10.4331 3096.0
10.4765 2016.0
10.52 1725.0
10.5635 1817.0
10.6069 1841.0
10.6504 2032.0
10.6939 2290.0
10.7373 2550.0
10.7808 3008.0
10.8243 3440.0
10.8677 3757.0
10.9112 3558.0
10.9547 3094.0
10.9981 2319.0
11.0416 1645.0
11.0851 1406.0
11.1285 1266.0
11.172 1258.0
11.2155 1212.0
11.2589 1236.0
11.3024 1153.0
11.3459 1173.0
11.3893 1171.0
11.4328 1129.0
11.4763 1124.0
11.5197 1132.0
11.5632 1155.0
11.6067 1117.0
11.6501 1113.0
11.6936 1096.0
11.7371 1129.0
11.7805 1039.0
11.824 1126.0
11.8674 1161.0
11.9109 1126.0
11.9544 1117.0
11.9978 1059.0
12.0413 1084.0
12.0848 1164.0
12.1282 1122.0
12.1717 1161.0
12.2152 1101.0
12.2586 1035.0
12.3021 1090.0
12.3456 1108.0
12.389 1089.0
12.4325 1095.0
12.476 1009.0
12.5194 1096.0
12.5629 1084.0
12.6064 1024.0
12.6498 1137.0
12.6933 1061.0
12.7368 1181.0
12.7802 1127.0
12.8237 1225.0
12.8672 1232.0
12.9106 1272.0
12.9541 1484.0
12.9976 1647.0
13.041 1789.0
13.0845 2154.0
13.128 2255.0
13.1714 2569.0
13.2149 2545.0
13.2584 2225.0
13.3018 1830.0
13.3453 1352.0
13.3887 1157.0
13.4322 1056.0
13.4757 1065.0
13.5191 1067.0
13.5626 1100.0
13.6061 1105.0
13.6495 1085.0
13.693 999.0
13.7365 1001.0
13.7799 966.0
13.8234 1021.0
13.8669 1064.0
13.9103 1003.0
13.9538 1037.0
13.9973 1046.0
14.0407 1091.0
14.0842 1088.0
14.1277 1063.0
14.1711 1147.0
14.2146 1165.0
14.2581 1239.0
14.3015 1352.0
14.345 1566.0
14.3885 1706.0
14.4319 1855.0
14.4754 2151.0
14.5189 2187.0
14.5623 2231.0
14.6058 2272.0
14.6493 2040.0
14.6927 1720.0
14.7362 1468.0
14.7797 1182.0
14.8231 1157.0
14.8666 1146.0
14.9101 1238.0
14.9535 1151.0
14.997 1262.0
15.0404 1204.0
15.0839 1206.0
15.1274 1214.0
15.1708 1056.0
15.2143 1060.0
15.2578 965.0
15.3012 1020.0
15.3447 952.0
15.3882 983.0
15.4316 971.0
15.4751 964.0
15.5186 989.0
15.562 976.0
15.6055 1000.0
15.649 1026.0
15.6924 1091.0
15.7359 1109.0
15.7794 1150.0
15.8228 1145.0
15.8663 1348.0
15.9098 1471.0
15.9532 1613.0
15.9967 2061.0
16.0402 2483.0
16.0836 3167.0
16.1271 3919.0
16.1706 4867.0
16.214 5718.0
16.2575 6305.0
16.301 6664.0
16.3444 6028.0
16.3879 5706.0
16.4314 5094.0
16.4748 4948.0
16.5183 5277.0
16.5618 5431.0
16.6052 5026.0
16.6487 4122.0
16.6921 2921.0
16.7356 1996.0
16.7791 1451.0
16.8225 1263.0
16.866 1112.0
16.9095 1078.0
16.9529 1062.0
16.9964 1063.0
17.0399 1014.0
17.0833 1053.0
17.1268 1039.0
17.1703 1053.0
17.2137 1018.0
17.2572 1035.0
17.3007 976.0
17.3441 1032.0
17.3876 1021.0
17.4311 1114.0
17.4745 1128.0
17.518 1280.0
17.5615 1495.0
17.6049 1501.0
17.6484 1664.0
17.6919 1664.0
17.7353 1560.0
17.7788 1423.0
17.8223 1267.0
17.8657 1120.0
17.9092 1039.0
17.9527 1015.0
17.9961 1007.0
18.0396 969.0
18.0831 939.0
18.1265 958.0
18.17 965.0
18.2134 986.0
18.2569 972.0
18.3004 946.0
18.3438 947.0
18.3873 910.0
18.4308 982.0
18.4742 953.0
18.5177 953.0
18.5612 974.0
18.6046 956.0
18.6481 945.0
18.6916 910.0
18.735 946.0
18.7785 903.0
18.822 1006.0
18.8654 983.0
18.9089 1003.0
18.9524 973.0
18.9958 1000.0
19.0393 960.0
19.0828 988.0
19.1262 973.0
19.1697 1038.0
19.2132 1039.0
19.2566 1181.0
19.3001 1245.0
19.3436 1453.0
19.387 1641.0
19.4305 1718.0
19.474 1834.0
19.5174 2008.0
19.5609 1954.0
19.6044 1847.0
19.6478 1658.0
19.6913 1423.0
19.7348 1207.0
19.7782 1080.0
19.8217 1116.0
19.8651 1137.0
19.9086 1053.0
19.9521 1121.0
19.9955 1096.0
20.039 1147.0
20.0825 1141.0
20.1259 1282.0
20.1694 1409.0
20.2129 1588.0
20.2563 1877.0
20.2998 2329.0
20.3433 2881.0
20.3867 3420.0
20.4302 4011.0
20.4737 4515.0
20.5171 4588.0
20.5606 4171.0
20.6041 3552.0
20.6475 2767.0
20.691 2118.0
20.7345 1708.0
20.7779 1527.0
20.8214 1532.0
20.8649 1602.0
20.9083 1566.0
20.9518 1516.0
20.9953 1404.0
21.0387 1268.0
21.0822 1181.0
21.1257 1167.0
21.1691 1114.0
21.2126 1155.0
21.2561 1156.0
21.2995 1145.0
21.343 1143.0
21.3864 1176.0
21.4299 1215.0
21.4734 1277.0
21.5168 1353.0
21.5603 1562.0
21.6038 1726.0
21.6472 2054.0
21.6907 2271.0
21.7342 2602.0
21.7776 2893.0
21.8211 2991.0
21.8646 3133.0
21.908 3078.0
21.9515 2940.0
21.995 2617.0
22.0384 2393.0
22.0819 2088.0
22.1254 1776.0
22.1688 1606.0
22.2123 1441.0
22.2558 1248.0
22.2992 1283.0
22.3427 1274.0
22.3862 1221.0
22.4296 1247.0
22.4731 1245.0
22.5166 1315.0
22.56 1331.0
22.6035 1383.0
22.647 1365.0
22.6904 1474.0
22.7339 1494.0
22.7774 1688.0
22.8208 1888.0
22.8643 2173.0
22.9078 2646.0
22.9512 3469.0
22.9947 4620.0
23.0381 6219.0
23.0816 8132.0
23.1251 10279.0
23.1685 12168.0
23.212 13366.0
23.2555 13134.0
23.2989 11510.0
23.3424 8984.0
23.3859 6320.0
23.4293 4123.0
23.4728 2844.0
23.5163 2142.0
23.5597 1771.0
23.6032 1519.0
23.6467 1493.0
23.6901 1508.0
23.7336 1384.0
23.7771 1403.0
23.8205 1362.0
23.864 1313.0
23.9075 1336.0
23.9509 1288.0
23.9944 1322.0
24.0379 1309.0
24.0813 1376.0
24.1248 1477.0
24.1683 1542.0
24.2117 1770.0
24.2552 2022.0
24.2987 2547.0
24.3421 3295.0
24.3856 4166.0
24.4291 4937.0
24.4725 5963.0
24.516 6329.0
24.5595 6061.0
24.6029 5099.0
24.6464 3769.0
24.6898 2678.0
24.7333 1953.0
24.7768 1630.0
24.8202 1453.0
24.8637 1478.0
24.9072 1471.0
24.9506 1520.0
24.9941 1584.0
25.0376 1700.0
25.081 1998.0
25.1245 2335.0
25.168 2865.0
25.2114 3371.0
25.2549 4097.0
25.2984 4605.0
25.3418 4805.0
25.3853 4866.0
25.4288 4476.0
25.4722 3843.0
25.5157 3202.0
25.5592 2632.0
25.6026 2343.0
25.6461 1962.0
25.6896 1770.0
25.733 1645.0
25.7765 1508.0
25.82 1464.0
25.8634 1423.0
25.9069 1446.0
25.9504 1495.0
25.9938 1558.0
26.0373 1760.0
26.0808 2005.0
26.1242 2307.0
26.1677 2921.0
26.2111 3709.0
26.2546 4762.0
26.2981 5737.0
26.3415 6667.0
26.385 7416.0
26.4285 7701.0
26.4719 6753.0
26.5154 5152.0
26.5589 3813.0
26.6023 2790.0
26.6458 2185.0
26.6893 1808.0
26.7327 1528.0
26.7762 1445.0
26.8197 1430.0
26.8631 1381.0
26.9066 1346.0
26.9501 1437.0
26.9935 1502.0
27.037 1472.0
27.0805 1585.0
27.1239 1726.0
27.1674 1960.0
27.2109 1922.0
27.2543 2019.0
27.2978 2054.0
27.3413 2039.0
27.3847 1885.0
27.4282 1902.0
27.4717 1965.0
27.5151 1846.0
27.5586 1864.0
27.6021 1770.0
27.6455 1572.0
27.689 1420.0
27.7325 1343.0
27.7759 1306.0
27.8194 1319.0
27.8628 1197.0
27.9063 1237.0
27.9498 1157.0
27.9932 1138.0
28.0367 1129.0
28.0802 1105.0
28.1236 1160.0
28.1671 1192.0
28.2106 1263.0
28.254 1210.0
28.2975 1135.0
28.341 1101.0
28.3844 1153.0
28.4279 1193.0
28.4714 1144.0
28.5148 1167.0
28.5583 1152.0
28.6018 1115.0
28.6452 1143.0
28.6887 1181.0
28.7322 1165.0
28.7756 1196.0
28.8191 1206.0
28.8626 1362.0
28.906 1467.0
28.9495 1573.0
28.993 1723.0
29.0364 1825.0
29.0799 2072.0
29.1234 1975.0
29.1668 1973.0
29.2103 1981.0
29.2538 2095.0
29.2972 2308.0
29.3407 2606.0
29.3841 2995.0
29.4276 3338.0
29.4711 3626.0
29.5145 3371.0
29.558 3094.0
29.6015 2455.0
29.6449 1971.0
29.6884 1611.0
29.7319 1491.0
29.7753 1420.0
29.8188 1553.0
29.8623 1743.0
29.9057 1832.0
29.9492 2144.0
29.9927 2330.0
30.0361 2486.0
30.0796 2647.0
30.1231 2674.0
30.1665 2583.0
30.21 2499.0
30.2535 2253.0
30.2969 2168.0
30.3404 1880.0
30.3839 1743.0
30.4273 1611.0
30.4708 1512.0
30.5143 1445.0
30.5577 1417.0
30.6012 1337.0
30.6447 1331.0
30.6881 1294.0
30.7316 1366.0
30.7751 1407.0
30.8185 1511.0
30.862 1534.0
30.9055 1573.0
30.9489 1496.0
30.9924 1428.0
31.0358 1348.0
31.0793 1227.0
31.1228 1225.0
31.1662 1050.0
31.2097 1136.0
31.2532 1117.0
31.2966 1104.0
31.3401 1086.0
31.3836 1077.0
31.427 1040.0
31.4705 1012.0
31.514 1145.0
31.5574 1078.0
31.6009 1111.0
31.6444 1101.0
31.6878 1235.0
31.7313 1261.0
31.7748 1445.0
31.8182 1608.0
31.8617 1745.0
31.9052 2006.0
31.9486 2060.0
31.9921 2144.0
32.0356 2004.0
32.079 1787.0
32.1225 1568.0
32.166 1396.0
32.2094 1260.0
32.2529 1284.0
32.2964 1327.0
32.3398 1290.0
32.3833 1346.0
32.4268 1597.0
32.4702 1699.0
32.5137 2008.0
32.5572 2178.0
32.6006 2244.0
32.6441 2333.0
32.6875 2243.0
32.731 2051.0
32.7745 1908.0
32.8179 1677.0
32.8614 1626.0
32.9049 1477.0
32.9483 1297.0
32.9918 1333.0
33.0353 1301.0
33.0787 1184.0
33.1222 1150.0
33.1657 1114.0
33.2091 1180.0
33.2526 1281.0
33.2961 1357.0
33.3395 1424.0
33.383 1573.0
33.4265 1589.0
33.4699 1750.0
33.5134 1757.0
33.5569 1769.0
33.6003 1824.0
33.6438 1782.0
33.6873 1704.0
33.7307 1634.0
33.7742 1556.0
33.8177 1380.0
33.8611 1350.0
33.9046 1284.0
33.9481 1223.0
33.9915 1081.0
34.035 1080.0
34.0785 1066.0
34.1219 1056.0
34.1654 1009.0
34.2088 1104.0
34.2523 991.0
34.2958 1104.0
34.3392 1026.0
34.3827 1051.0
34.4262 1125.0
34.4696 1217.0
34.5131 1284.0
34.5566 1339.0
34.6 1512.0
34.6435 1574.0
34.687 1608.0
34.7304 1649.0
34.7739 1632.0
34.8174 1524.0
34.8608 1355.0
34.9043 1263.0
34.9478 1214.0
34.9912 1095.0
35.0347 1020.0
35.0782 1074.0
35.1216 1074.0
35.1651 1086.0
35.2086 980.0
35.252 1042.0
35.2955 1075.0
35.339 1025.0
35.3824 1008.0
35.4259 995.0
35.4694 954.0
35.5128 1034.0
35.5563 975.0
35.5998 1062.0
35.6432 1088.0
35.6867 1177.0
35.7302 1219.0
35.7736 1336.0
35.8171 1470.0
35.8605 1610.0
35.904 1689.0
35.9475 1798.0
35.9909 1661.0
36.0344 1697.0
36.0779 1529.0
36.1213 1448.0
36.1648 1244.0
36.2083 1130.0
36.2517 1100.0
36.2952 1143.0
36.3387 1093.0
36.3821 1048.0
36.4256 1018.0
36.4691 1070.0
36.5125 1056.0
36.556 1137.0
36.5995 1184.0
36.6429 1255.0
36.6864 1420.0
36.7299 1401.0
36.7733 1491.0
36.8168 1608.0
36.8603 1465.0
36.9037 1388.0
36.9472 1360.0
36.9907 1272.0
37.0341 1192.0
37.0776 1200.0
37.1211 1088.0
37.1645 1169.0
37.208 1137.0
37.2515 1199.0
37.2949 1102.0
37.3384 1163.0
37.3818 1192.0
37.4253 1265.0
37.4688 1187.0
37.5122 1263.0
37.5557 1131.0
37.5992 1096.0
37.6426 1106.0
37.6861 1089.0
37.7296 1030.0
37.773 984.0
37.8165 1021.0
37.86 948.0
37.9034 936.0
37.9469 903.0
37.9904 908.0
38.0338 953.0
38.0773 949.0
38.1208 1004.0
38.1642 993.0
38.2077 1029.0
38.2512 1024.0
38.2946 1128.0
38.3381 1028.0
38.3816 1123.0
38.425 1091.0
38.4685 1043.0
38.512 996.0
38.5554 1005.0
38.5989 982.0
38.6424 1028.0
38.6858 1016.0
38.7293 1038.0
38.7728 1035.0
38.8162 1081.0
38.8597 1033.0
38.9032 1056.0
38.9466 1136.0
38.9901 1118.0
39.0335 1143.0
39.077 1125.0
39.1205 1114.0
39.1639 1050.0
39.2074 1202.0
39.2509 1205.0
39.2943 1318.0
39.3378 1398.0
39.3813 1533.0
39.4247 1711.0
39.4682 1805.0
39.5117 1833.0
39.5551 1874.0
39.5986 1790.0
39.6421 1752.0
39.6855 1806.0
39.729 1719.0
39.7725 1806.0
39.8159 1798.0
39.8594 1663.0
39.9029 1637.0
39.9463 1612.0
39.9898 1438.0
40.0333 1397.0
40.0767 1229.0
40.1202 1158.0
40.1637 1074.0
40.2071 1113.0
40.2506 1106.0
40.2941 1064.0
40.3375 1122.0
40.381 1099.0
40.4245 1152.0
40.4679 1113.0
40.5114 1163.0
40.5548 1243.0
40.5983 1220.0
40.6418 1250.0
40.6852 1310.0
40.7287 1340.0
40.7722 1337.0
40.8156 1344.0
40.8591 1349.0
40.9026 1252.0
40.946 1263.0
40.9895 1261.0
41.033 1165.0
41.0764 1192.0
41.1199 1113.0
41.1634 1113.0
41.2068 1112.0
41.2503 1021.0
41.2938 1042.0
41.3372 1081.0
41.3807 1024.0
41.4242 1080.0
41.4676 1087.0
41.5111 1082.0
41.5546 1127.0
41.598 1084.0
41.6415 1216.0
41.685 1132.0
41.7284 1171.0
41.7719 1176.0
41.8154 1070.0
41.8588 1127.0
41.9023 1114.0
41.9458 1170.0
41.9892 1226.0
42.0327 1130.0
42.0762 1201.0
42.1196 1259.0
42.1631 1215.0
42.2065 1183.0
42.25 1248.0
42.2935 1075.0
42.3369 1156.0
42.3804 1103.0
42.4239 1064.0
42.4673 1068.0
42.5108 1024.0
42.5543 1080.0
42.5977 1047.0
42.6412 1113.0
42.6847 1101.0
42.7281 1128.0
42.7716 1214.0
42.8151 1202.0
42.8585 1201.0
42.902 1147.0
42.9455 1134.0
42.9889 1166.0
43.0324 1155.0
43.0759 1199.0
43.1193 1137.0
43.1628 1132.0
43.2063 1101.0
43.2497 1068.0
43.2932 972.0
43.3367 955.0
43.3801 966.0
43.4236 898.0
43.4671 888.0
43.5105 867.0
43.554 894.0
43.5975 832.0
43.6409 881.0
43.6844 921.0
43.7279 898.0
43.7713 915.0
43.8148 947.0
43.8582 971.0
43.9017 925.0
43.9452 994.0
43.9886 1002.0
44.0321 1051.0
44.0756 1009.0
44.119 1156.0
44.1625 1207.0
44.206 1209.0
44.2494 1296.0
44.2929 1339.0
44.3364 1267.0
44.3798 1269.0
44.4233 1257.0
44.4668 1189.0
44.5102 1236.0
44.5537 1177.0
44.5972 1143.0
44.6406 1128.0
44.6841 1042.0
44.7276 1033.0
44.771 1026.0
44.8145 1052.0
44.858 980.0
44.9014 995.0
44.9449 1000.0
44.9884 1057.0
45.0318 933.0
45.0753 1043.0
45.1188 1006.0
45.1622 975.0
45.2057 970.0
45.2492 994.0
45.2926 977.0
45.3361 940.0
45.3795 1018.0
45.423 993.0
45.4665 1005.0
45.5099 1026.0
45.5534 1045.0
45.5969 1036.0
45.6403 1027.0
45.6838 1062.0
45.7273 1111.0
45.7707 1094.0
45.8142 1198.0
45.8577 1096.0
45.9011 1080.0
45.9446 1055.0
45.9881 1040.0
46.0315 1000.0
46.075 930.0
46.1185 921.0
46.1619 957.0
46.2054 939.0
46.2489 954.0
46.2923 935.0
46.3358 903.0
46.3793 907.0
46.4227 937.0
46.4662 917.0
46.5097 914.0
46.5531 841.0
46.5966 859.0
46.6401 942.0
46.6835 873.0
46.727 823.0
46.7705 927.0
46.8139 983.0
46.8574 995.0
46.9009 934.0
46.9443 997.0
46.9878 956.0
47.0312 1057.0
47.0747 1092.0
47.1182 1048.0
47.1616 1132.0
47.2051 1264.0
47.2486 1272.0
47.292 1283.0
47.3355 1334.0
47.379 1439.0
47.4224 1374.0
47.4659 1287.0
47.5094 1310.0
47.5528 1300.0
47.5963 1364.0
47.6398 1347.0
47.6832 1279.0
47.7267 1160.0
47.7702 1135.0
47.8136 1197.0
47.8571 1054.0
47.9006 1075.0
47.944 1080.0
47.9875 1103.0
48.031 1113.0
48.0744 1016.0
48.1179 1052.0
48.1614 1035.0
48.2048 979.0
48.2483 896.0
48.2918 969.0
48.3352 828.0
48.3787 918.0
48.4222 868.0
48.4656 911.0
48.5091 873.0
48.5525 905.0
48.596 896.0
48.6395 881.0
48.6829 972.0
48.7264 940.0
48.7699 972.0
48.8133 925.0
48.8568 961.0
48.9003 922.0
48.9437 967.0
48.9872 936.0
49.0307 917.0
49.0741 979.0
49.1176 908.0
49.1611 903.0
49.2045 872.0
49.248 874.0
49.2915 906.0
49.3349 930.0
49.3784 939.0
49.4219 947.0
49.4653 942.0
49.5088 905.0
49.5523 910.0
49.5957 921.0
49.6392 992.0
49.6827 971.0
49.7261 986.0
49.7696 1061.0
49.8131 1177.0
49.8565 1163.0
49.9 1302.0
49.9435 1276.0
49.9869 1198.0
50.0304 1210.0
50.0739 1159.0
50.1173 1058.0
50.1608 1079.0
50.2042 1042.0
50.2477 978.0
50.2912 1038.0
50.3346 971.0
50.3781 986.0
50.4216 987.0
50.465 915.0
50.5085 944.0
50.552 943.0
50.5954 976.0
50.6389 925.0
50.6824 933.0
50.7258 933.0
50.7693 971.0
50.8128 929.0
50.8562 1000.0
50.8997 921.0
50.9432 956.0
50.9866 913.0
51.0301 860.0
51.0736 868.0
51.117 804.0
51.1605 841.0
51.204 800.0
51.2474 856.0
51.2909 821.0
51.3344 824.0
51.3778 862.0
51.4213 856.0
51.4648 796.0
51.5082 844.0
51.5517 873.0
51.5952 861.0
51.6386 837.0
51.6821 802.0
51.7256 887.0
51.769 790.0
51.8125 856.0
51.8559 926.0
51.8994 882.0
51.9429 884.0
51.9863 862.0
52.0298 871.0
52.0733 845.0
52.1167 790.0
52.1602 798.0
52.2037 836.0
52.2471 812.0
52.2906 828.0
52.3341 886.0
52.3775 838.0
52.421 825.0
52.4645 887.0
52.5079 887.0
52.5514 827.0
52.5949 904.0
52.6383 930.0
52.6818 909.0
52.7253 925.0
52.7687 940.0
52.8122 890.0
52.8557 822.0
52.8991 932.0
52.9426 889.0
52.9861 911.0
53.0295 851.0
53.073 810.0
53.1165 822.0
53.1599 857.0
53.2034 818.0
53.2469 795.0
53.2903 805.0
53.3338 805.0
53.3772 768.0
53.4207 804.0
53.4642 783.0
53.5076 788.0
53.5511 811.0
53.5946 765.0
53.638 746.0
53.6815 770.0
53.725 750.0
53.7684 812.0
53.8119 774.0
53.8554 816.0
53.8988 813.0
53.9423 819.0
53.9858 784.0
54.0292 827.0
54.0727 805.0
54.1162 831.0
54.1596 813.0
54.2031 838.0
54.2466 869.0
54.29 825.0
54.3335 877.0
54.377 837.0
54.4204 875.0
54.4639 866.0
54.5074 863.0
54.5508 794.0
54.5943 786.0
54.6378 820.0
54.6812 810.0
54.7247 829.0
54.7682 776.0
54.8116 802.0
54.8551 766.0
54.8986 751.0
54.942 799.0
54.9855 810.0
55.0289 789.0
55.0724 832.0
55.1159 797.0
55.1593 847.0
55.2028 795.0
55.2463 806.0
55.2897 817.0
55.3332 819.0
55.3767 791.0
55.4201 820.0
55.4636 777.0
55.5071 736.0
55.5505 762.0
55.594 794.0
55.6375 775.0
55.6809 794.0
55.7244 768.0
55.7679 824.0
55.8113 816.0
55.8548 770.0
55.8983 879.0
55.9417 853.0
55.9852 803.0
56.0287 807.0
56.0721 780.0
56.1156 806.0
56.1591 826.0
56.2025 774.0
56.246 751.0
56.2895 753.0
56.3329 756.0
56.3764 773.0
56.4199 736.0
56.4633 820.0
56.5068 800.0
56.5502 729.0
56.5937 767.0
56.6372 755.0
56.6806 694.0
56.7241 672.0
56.7676 731.0
56.811 700.0
56.8545 701.0
56.898 744.0
56.9414 701.0
56.9849 710.0
57.0284 665.0
57.0718 724.0
57.1153 680.0
57.1588 704.0
57.2022 687.0
57.2457 694.0
57.2892 719.0
57.3326 692.0
57.3761 699.0
57.4196 708.0
57.463 672.0
57.5065 747.0
57.55 696.0
57.5934 704.0
57.6369 707.0
57.6804 721.0
57.7238 723.0
57.7673 703.0
57.8108 732.0
57.8542 686.0
57.8977 675.0
57.9412 695.0
57.9846 669.0
58.0281 648.0
58.0716 660.0
58.115 620.0
58.1585 668.0
58.2019 631.0
58.2454 640.0
58.2889 659.0
58.3323 655.0
58.3758 635.0
58.4193 621.0
58.4627 694.0
58.5062 654.0
58.5497 654.0
58.5931 686.0
58.6366 696.0
58.6801 684.0
58.7235 687.0
58.767 677.0
58.8105 720.0
58.8539 685.0
58.8974 633.0
58.9409 669.0
58.9843 670.0
59.0278 651.0
59.0713 658.0
59.1147 727.0
59.1582 647.0
59.2017 708.0
59.2451 693.0
59.2886 704.0
59.3321 695.0
59.3755 640.0
59.419 650.0
59.4625 684.0
59.5059 626.0
59.5494 656.0
59.5929 666.0
59.6363 697.0
59.6798 673.0
59.7233 630.0
59.7667 659.0
59.8102 652.0
59.8536 673.0
59.8971 638.0
59.9406 611.0
59.984 632.0
59.9949 583.0