File: XRD/2025_06_03_THC_Sorbic_Acid_MC15.xy
10.0054 3616.0
10.0598 3729.0
10.1141 3700.0
10.1684 3728.0
10.2228 3606.0
10.2771 3658.0
10.3314 3680.0
10.3858 3596.0
10.4401 3781.0
10.4944 3751.0
10.5488 3786.0
10.6031 3696.0
10.6574 3984.0
10.7118 3917.0
10.7661 4085.0
10.8204 4307.0
10.8747 4531.0
10.9291 4948.0
10.9834 5424.0
11.0377 6411.0
11.0921 7711.0
11.1464 10860.0
11.2007 16957.0
11.2551 22100.0
11.3094 17990.0
11.3637 10614.0
11.4181 8786.0
11.4724 7249.0
11.5267 5215.0
11.5811 4436.0
11.6354 4220.0
11.6897 4244.0
11.7441 4178.0
11.7984 4330.0
11.8527 4339.0
11.9071 4337.0
11.9614 4203.0
12.0157 4352.0
12.0701 4429.0
12.1244 4404.0
12.1787 4492.0
12.2331 4529.0
12.2874 4541.0
12.3417 4711.0
12.3961 4994.0
12.4504 5355.0
12.5047 5734.0
12.559 6396.0
12.6134 7714.0
12.6677 10362.0
12.722 15791.0
12.7764 19952.0
12.8307 16820.0
12.885 10072.0
12.9394 7856.0
12.9937 6921.0
13.048 5741.0
13.1024 5007.0
13.1567 4893.0
13.211 4786.0
13.2654 4840.0
13.3197 4851.0
13.374 4862.0
13.4284 4883.0
13.4827 4887.0
13.537 5079.0
13.5914 5017.0
13.6457 4963.0
13.7 4974.0
13.7544 5086.0
13.8087 5084.0
13.863 5064.0
13.9174 5028.0
13.9717 5026.0
14.026 4993.0
14.0803 5006.0
14.1347 5026.0
14.189 5211.0
14.2433 5018.0
14.2977 5130.0
14.352 5002.0
14.4063 5096.0
14.4607 5017.0
14.515 5218.0
14.5693 5197.0
14.6237 5226.0
14.678 5286.0
14.7323 5147.0
14.7867 5225.0
14.841 5133.0
14.8953 5292.0
14.9497 5270.0
15.004 5333.0
15.0583 5152.0
15.1127 5229.0
15.167 5279.0
15.2213 5375.0
15.2757 5438.0
15.33 5329.0
15.3843 5495.0
15.4387 5492.0
15.493 5327.0
15.5473 5655.0
15.6016 5567.0
15.656 5686.0
15.7103 5695.0
15.7646 5893.0
15.819 6048.0
15.8733 6623.0
15.9276 6717.0
15.982 6241.0
16.0363 5935.0
16.0906 5743.0
16.145 5753.0
16.1993 5817.0
16.2536 5757.0
16.308 5799.0
16.3623 5867.0
16.4166 5848.0
16.471 5995.0
16.5253 5977.0
16.5796 5969.0
16.634 5934.0
16.6883 5934.0
16.7426 6032.0
16.797 6134.0
16.8513 6174.0
16.9056 6295.0
16.96 6282.0
17.0143 6191.0
17.0686 6412.0
17.123 6296.0
17.1773 6352.0
17.2316 6346.0
17.2859 6471.0
17.3403 6562.0
17.3946 6578.0
17.4489 6570.0
17.5033 6603.0
17.5576 6726.0
17.6119 6817.0
17.6663 6761.0
17.7206 6787.0
17.7749 6946.0
17.8293 7220.0
17.8836 7207.0
17.9379 7800.0
17.9923 8446.0
18.0466 9127.0
18.1009 9291.0
18.1553 8471.0
18.2096 7741.0
18.2639 7581.0
18.3183 7336.0
18.3726 7308.0
18.4269 7451.0
18.4813 7371.0
18.5356 7471.0
18.5899 7491.0
18.6443 7532.0
18.6986 7726.0
18.7529 7531.0
18.8072 7804.0
18.8616 7697.0
18.9159 7784.0
18.9702 7922.0
19.0246 8009.0
19.0789 8468.0
19.1332 8811.0
19.1876 8689.0
19.2419 8248.0
19.2962 7942.0
19.3506 7861.0
19.4049 7926.0
19.4592 7969.0
19.5136 7840.0
19.5679 7843.0
19.6222 7852.0
19.6766 7763.0
19.7309 7959.0
19.7852 7827.0
19.8396 7819.0
19.8939 7856.0
19.9482 7767.0
20.0026 7781.0
20.0569 7635.0
20.1112 7679.0
20.1656 7657.0
20.2199 7626.0
20.2742 7592.0
20.3286 7757.0
20.3829 7543.0
20.4372 7458.0
20.4915 7361.0
20.5459 7419.0
20.6002 7444.0
20.6545 7187.0
20.7089 7184.0
20.7632 7262.0
20.8175 7182.0
20.8719 7140.0
20.9262 7011.0
20.9805 6979.0
21.0349 6932.0
21.0892 6854.0
21.1435 6763.0
21.1979 6835.0
21.2522 6721.0
21.3065 6608.0
21.3609 6553.0
21.4152 6633.0
21.4695 6523.0
21.5239 6483.0
21.5782 6464.0
21.6325 6288.0
21.6869 6237.0
21.7412 6286.0
21.7955 6378.0
21.8499 6506.0
21.9042 6248.0
21.9585 6416.0
22.0128 6282.0
22.0672 6585.0
22.1215 6842.0
22.1758 6777.0
22.2302 7284.0
22.2845 7594.0
22.3388 8414.0
22.3932 10581.0
22.4475 16096.0
22.5018 29451.0
22.5562 48756.0
22.6105 52419.0
22.6648 37969.0
22.7192 28577.0
22.7735 26562.0
22.8278 20235.0
22.8822 12521.0
22.9365 8284.0
22.9908 6881.0
23.0452 6201.0
23.0995 6166.0
23.1538 6798.0
23.2082 7380.0
23.2625 7128.0
23.3168 6334.0
23.3712 5977.0
23.4255 6189.0
23.4798 5793.0
23.5342 5312.0
23.5885 4937.0
23.6428 4933.0
23.6971 4769.0
23.7515 4774.0
23.8058 4595.0
23.8601 4548.0
23.9145 4573.0
23.9688 4438.0
24.0231 4523.0
24.0775 4404.0
24.1318 4395.0
24.1861 4370.0
24.2405 4490.0
24.2948 4395.0
24.3491 4619.0
24.4035 5083.0
24.4578 6362.0
24.5121 8838.0
24.5665 11146.0
24.6208 10066.0
24.6751 7352.0
24.7295 5300.0
24.7838 4654.0
24.8381 4213.0
24.8925 4021.0
24.9468 4049.0
25.0011 3753.0
25.0555 3677.0
25.1098 3757.0
25.1641 3630.0
25.2184 3516.0
25.2728 3640.0
25.3271 3588.0
25.3814 3667.0
25.4358 3562.0
25.4901 3508.0
25.5444 3587.0
25.5988 3392.0
25.6531 3496.0
25.7074 3405.0
25.7618 3487.0
25.8161 3546.0
25.8704 3435.0
25.9248 3326.0
25.9791 3391.0
26.0334 3259.0
26.0878 3264.0
26.1421 3390.0
26.1964 3312.0
26.2508 3516.0
26.3051 3857.0
26.3594 4116.0
26.4138 3948.0
26.4681 3512.0
26.5224 3363.0
26.5768 3224.0
26.6311 3158.0
26.6854 3057.0
26.7398 3172.0
26.7941 3176.0
26.8484 3149.0
26.9027 3028.0
26.9571 3117.0
27.0114 3191.0
27.0657 3356.0
27.1201 3279.0
27.1744 3348.0
27.2287 3694.0
27.2831 4485.0
27.3374 5364.0
27.3917 5812.0
27.4461 6737.0
27.5004 9772.0
27.5547 11552.0
27.6091 10074.0
27.6634 6622.0
27.7177 4434.0
27.7721 3514.0
27.8264 3168.0
27.8807 3017.0
27.9351 2877.0
27.9894 2778.0
28.0437 2797.0
28.0981 2777.0
28.1524 2861.0
28.2067 2707.0
28.2611 2889.0
28.3154 2725.0
28.3697 2703.0
28.424 2560.0
28.4784 2728.0
28.5327 2580.0
28.587 2610.0
28.6414 2587.0
28.6957 2677.0
28.75 2575.0
28.8044 2496.0
28.8587 2530.0
28.913 2541.0
28.9674 2434.0
29.0217 2480.0
29.076 2465.0
29.1304 2485.0
29.1847 2543.0
29.239 2445.0
29.2934 2513.0
29.3477 2542.0
29.402 2578.0
29.4564 2578.0
29.5107 2424.0
29.565 2263.0
29.6194 2350.0
29.6737 2339.0
29.728 2251.0
29.7824 2419.0
29.8367 2288.0
29.891 2339.0
29.9454 2310.0
29.9997 2299.0
30.054 2239.0
30.1083 2224.0
30.1627 2292.0
30.217 2254.0
30.2713 2290.0
30.3257 2267.0
30.38 2112.0
30.4343 2249.0
30.4887 2283.0
30.543 2263.0
30.5973 2259.0
30.6517 2171.0
30.706 2207.0
30.7603 2192.0
30.8147 2073.0
30.869 2158.0
30.9233 2164.0
30.9777 2128.0
31.032 2152.0
31.0863 2257.0
31.1407 2223.0
31.195 2179.0
31.2493 2218.0
31.3037 2672.0
31.358 2647.0
31.4123 2635.0
31.4667 2430.0
31.521 2240.0
31.5753 2229.0
31.6296 2547.0
31.684 2639.0
31.7383 2794.0
31.7926 2509.0
31.847 2546.0
31.9013 2801.0
31.9556 3516.0
32.01 3664.0
32.0643 3272.0
32.1186 2804.0
32.173 2362.0
32.2273 2423.0
32.2816 2930.0
32.336 3488.0
32.3903 3402.0
32.4446 2934.0
32.499 2447.0
32.5533 2249.0
32.6076 2204.0
32.662 2055.0
32.7163 2188.0
32.7706 2095.0
32.825 2146.0
32.8793 2047.0
32.9336 2118.0
32.988 2016.0
33.0423 2009.0
33.0966 2074.0
33.151 2223.0
33.2053 2140.0
33.2596 2053.0
33.3139 1971.0
33.3683 1951.0
33.4226 1926.0
33.4769 1989.0
33.5313 2035.0
33.5856 2055.0
33.6399 2210.0
33.6943 2419.0
33.7486 2389.0
33.8029 2225.0
33.8573 1995.0
33.9116 1913.0
33.9659 1885.0
34.0203 1874.0
34.0746 1898.0
34.1289 1913.0
34.1833 1940.0
34.2376 1778.0
34.2919 1896.0
34.3463 1932.0
34.4006 1842.0
34.4549 1877.0
34.5093 1935.0
34.5636 1887.0
34.6179 1844.0
34.6723 1854.0
34.7266 1852.0
34.7809 1828.0
34.8352 1863.0
34.8896 1924.0
34.9439 1831.0
34.9982 1857.0
35.0526 1984.0
35.1069 1912.0
35.1612 1934.0
35.2156 1825.0
35.2699 1933.0
35.3242 2113.0
35.3786 2466.0
35.4329 2711.0
35.4872 2627.0
35.5416 2399.0
35.5959 2265.0
35.6502 2271.0
35.7046 2578.0
35.7589 2840.0
35.8132 2662.0
35.8676 2431.0
35.9219 2131.0
35.9762 2055.0
36.0306 1947.0
36.0849 1888.0
36.1392 1938.0
36.1936 1926.0
36.2479 2038.0
36.3022 1986.0
36.3566 1980.0
36.4109 1992.0
36.4652 1919.0
36.5195 2008.0
36.5739 1905.0
36.6282 1974.0
36.6825 2016.0
36.7369 2333.0
36.7912 2591.0
36.8455 2570.0
36.8999 2390.0
36.9542 2016.0
37.0085 1942.0
37.0629 1991.0
37.1172 1855.0
37.1715 1933.0
37.2259 1848.0
37.2802 1849.0
37.3345 1943.0
37.3889 1832.0
37.4432 1866.0
37.4975 1846.0
37.5519 1889.0
37.6062 1957.0
37.6605 1942.0
37.7149 1908.0
37.7692 1936.0
37.8235 1926.0
37.8779 1917.0
37.9322 1857.0
37.9865 1896.0
38.0408 1969.0
38.0952 1897.0
38.1495 1896.0
38.2038 1878.0
38.2582 1821.0
38.3125 1873.0
38.3668 1876.0
38.4212 1918.0
38.4755 1952.0
38.5298 1922.0
38.5842 1983.0
38.6385 2056.0
38.6928 2191.0
38.7472 2263.0
38.8015 2260.0
38.8558 2161.0
38.9102 2179.0
38.9645 2363.0
39.0188 2568.0
39.0732 2703.0
39.1275 2695.0
39.1818 2564.0
39.2362 2355.0
39.2905 2384.0
39.3448 2469.0
39.3992 2570.0
39.4535 2372.0
39.5078 2309.0
39.5622 2234.0
39.6165 2201.0
39.6708 2625.0
39.7251 3778.0
39.7795 4468.0
39.8338 4219.0
39.8881 3564.0
39.9425 2960.0
39.9968 2345.0
40.0511 2091.0
40.1055 2041.0
40.1598 1956.0
40.2141 1993.0
40.2685 1943.0
40.3228 1955.0
40.3771 1928.0
40.4315 2007.0
40.4858 1915.0
40.5401 2206.0
40.5945 2283.0
40.6488 2494.0
40.7031 2516.0
40.7575 2260.0
40.8118 2215.0
40.8661 2081.0
40.9205 2133.0
40.9748 2322.0
41.0291 2497.0
41.0835 2493.0
41.1378 2431.0
41.1921 2259.0
41.2464 2133.0
41.3008 1954.0
41.3551 1927.0
41.4094 1869.0
41.4638 1972.0
41.5181 1857.0
41.5724 1863.0
41.6268 1901.0
41.6811 1875.0
41.7354 1872.0
41.7898 1897.0
41.8441 1856.0
41.8984 1887.0
41.9528 1890.0
42.0071 1958.0
42.0614 1895.0
42.1158 1828.0
42.1701 1879.0
42.2244 1863.0
42.2788 1864.0
42.3331 1883.0
42.3874 1993.0
42.4418 2024.0
42.4961 1892.0
42.5504 1990.0
42.6048 1936.0
42.6591 1832.0
42.7134 1929.0
42.7677 1976.0
42.8221 1868.0
42.8764 2082.0
42.9307 2133.0
42.9851 2095.0
43.0394 1980.0
43.0937 1877.0
43.1481 1833.0
43.2024 1787.0
43.2567 1765.0
43.3111 1744.0
43.3654 1803.0
43.4197 1816.0
43.4741 1755.0
43.5284 1780.0
43.5827 1777.0
43.6371 1726.0
43.6914 1774.0
43.7457 1737.0
43.8001 1720.0
43.8544 1713.0
43.9087 1748.0
43.9631 1692.0
44.0174 1771.0
44.0717 1659.0
44.1261 1794.0
44.1804 1749.0
44.2347 1745.0
44.2891 1755.0
44.3434 1810.0
44.3977 1765.0
44.452 1789.0
44.5064 1746.0
44.5607 1744.0
44.615 1670.0
44.6694 1687.0
44.7237 1666.0
44.778 1707.0
44.8324 1677.0
44.8867 1797.0
44.941 1763.0
44.9954 1713.0
45.0497 1813.0
45.104 1792.0
45.1584 1738.0
45.2127 1632.0
45.267 1732.0
45.3214 1826.0
45.3757 1878.0
45.43 2166.0
45.4844 2330.0
45.5387 2181.0
45.593 2122.0
45.6474 1902.0
45.7017 1889.0
45.756 1822.0
45.8104 2049.0
45.8647 2287.0
45.919 2314.0
45.9733 2205.0
46.0277 2003.0
46.082 1902.0
46.1363 1767.0
46.1907 1635.0
46.245 1632.0
46.2993 1685.0
46.3537 1582.0
46.408 1531.0
46.4623 1657.0
46.5167 1615.0
46.571 1649.0
46.6253 1778.0
46.6797 1846.0
46.734 1844.0
46.7883 1794.0
46.8427 1622.0
46.897 1629.0
46.9513 1597.0
47.0057 1563.0
47.06 1562.0
47.1143 1576.0
47.1687 1474.0
47.223 1673.0
47.2773 1801.0
47.3317 1898.0
47.386 1866.0
47.4403 1762.0
47.4947 1814.0
47.549 1649.0
47.6033 1624.0
47.6576 1617.0
47.712 1584.0
47.7663 1515.0
47.8206 1527.0
47.875 1638.0
47.9293 1565.0
47.9836 1509.0
48.038 1646.0
48.0923 1629.0
48.1466 1642.0
48.201 1596.0
48.2553 1548.0
48.3096 1501.0
48.364 1431.0
48.4183 1452.0
48.4726 1365.0
48.527 1367.0
48.5813 1405.0
48.6356 1402.0
48.69 1397.0
48.7443 1442.0
48.7986 1406.0
48.853 1402.0
48.9073 1465.0
48.9616 1429.0
49.016 1422.0
49.0703 1428.0
49.1246 1411.0
49.1789 1391.0
49.2333 1376.0
49.2876 1370.0
49.3419 1290.0
49.3963 1410.0
49.4506 1294.0
49.5049 1311.0
49.5593 1269.0
49.6136 1297.0
49.6679 1351.0
49.7223 1322.0
49.7766 1363.0
49.8309 1332.0
49.8853 1266.0
49.9396 1325.0
49.9939 1297.0
50.0483 1295.0
50.1026 1291.0
50.1569 1317.0
50.2113 1334.0
50.2656 1324.0
50.3199 1305.0
50.3743 1344.0
50.4286 1284.0
50.4829 1262.0
50.5373 1283.0
50.5916 1267.0
50.6459 1373.0
50.7003 1334.0
50.7546 1277.0
50.8089 1314.0
50.8632 1288.0
50.9176 1326.0
50.9719 1397.0
51.0262 1424.0
51.0806 1337.0
51.1349 1340.0
51.1892 1340.0
51.2436 1227.0
51.2979 1310.0
51.3522 1372.0
51.4066 1367.0
51.4609 1419.0
51.5152 1344.0
51.5696 1392.0
51.6239 1373.0
51.6782 1295.0
51.7326 1216.0
51.7869 1212.0
51.8412 1203.0
51.8956 1204.0
51.9499 1235.0
52.0042 1189.0
52.0586 1178.0
52.1129 1215.0
52.1672 1166.0
52.2216 1214.0
52.2759 1222.0
52.3302 1154.0
52.3845 1132.0
52.4389 1251.0
52.4932 1215.0
52.5475 1176.0
52.6019 1198.0
52.6562 1156.0
52.7105 1157.0
52.7649 1218.0
52.8192 1212.0
52.8735 1196.0
52.9279 1219.0
52.9822 1141.0
53.0365 1190.0
53.0909 1159.0
53.1452 1090.0
53.1995 1116.0
53.2539 1197.0
53.3082 1105.0
53.3625 1116.0
53.4169 1173.0
53.4712 1209.0
53.5255 1226.0
53.5799 1254.0
53.6342 1295.0
53.6885 1418.0
53.7429 1270.0
53.7972 1345.0
53.8515 1293.0
53.9059 1170.0
53.9602 1158.0
54.0145 1080.0
54.0688 1101.0
54.1232 1127.0
54.1775 1109.0
54.2318 1096.0
54.2862 1037.0
54.3405 1039.0
54.3948 1039.0
54.4492 1067.0
54.5035 1135.0
54.5578 1050.0
54.6122 1034.0
54.6665 1051.0
54.7208 1081.0
54.7752 1036.0
54.8295 1016.0
54.8838 1067.0
54.9382 1041.0
54.9925 1068.0
55.0468 957.0
55.1012 998.0
55.1555 1028.0
55.2098 1090.0
55.2642 1046.0
55.3185 1053.0
55.3728 1091.0
55.4272 1059.0
55.4815 1048.0
55.5358 1079.0
55.5901 1011.0
55.6445 1000.0
55.6988 1158.0
55.7531 1097.0
55.8075 1154.0
55.8618 1197.0
55.9161 1135.0
55.9705 1079.0
56.0248 1115.0
56.0791 1038.0
56.1335 1061.0
56.1878 1063.0
56.2421 1049.0
56.2965 1025.0
56.3508 1083.0
56.4051 1130.0
56.4595 1018.0
56.5138 1071.0
56.5681 1024.0
56.6225 1116.0
56.6768 1150.0
56.7311 1162.0
56.7855 1064.0
56.8398 1056.0
56.8941 1080.0
56.9485 998.0
57.0028 976.0
57.0571 1041.0
57.1115 1082.0
57.1658 1097.0
57.2201 1043.0
57.2744 1060.0
57.3288 1016.0
57.3831 980.0
57.4374 983.0
57.4918 961.0
57.5461 896.0
57.6004 954.0
57.6548 886.0
57.7091 932.0
57.7634 955.0
57.8178 976.0
57.8721 893.0
57.9264 971.0
57.9808 972.0
58.0351 1013.0
58.0894 931.0
58.1438 919.0
58.1981 964.0
58.2524 959.0
58.3068 941.0
58.3611 917.0
58.4154 941.0
58.4698 849.0
58.5241 918.0
58.5784 905.0
58.6328 879.0
58.6871 944.0
58.7414 931.0
58.7957 896.0
58.8501 939.0
58.9044 881.0
58.9587 915.0
59.0131 921.0
59.0674 924.0
59.1217 888.0
59.1761 925.0
59.2304 967.0
59.2847 983.0
59.3391 1075.0
59.3934 1079.0
59.4477 1087.0
59.5021 1009.0
59.5564 990.0
59.6107 963.0
59.6651 888.0
59.7194 874.0
59.7737 836.0
59.8281 829.0
59.8824 858.0
59.9367 867.0
59.9911 878.0
60.0454 882.0
60.0997 947.0
60.1541 889.0
60.2084 931.0
60.2627 925.0
60.3171 864.0
60.3714 867.0
60.4257 860.0
60.48 904.0
60.5344 984.0
60.5887 995.0
60.643 975.0
60.6974 936.0
60.7517 1018.0
60.806 943.0
60.8604 843.0
60.9147 865.0
60.969 879.0
61.0234 889.0
61.0777 853.0
61.132 834.0
61.1864 894.0
61.2407 770.0
61.295 825.0
61.3494 858.0
61.4037 784.0
61.458 806.0
61.5124 755.0
61.5667 824.0
61.621 825.0
61.6754 825.0
61.7297 790.0
61.784 800.0
61.8384 832.0
61.8927 786.0
61.947 812.0
62.0013 784.0
62.0557 752.0
62.11 780.0
62.1643 831.0
62.2187 843.0
62.273 819.0
62.3273 838.0
62.3817 812.0
62.436 812.0
62.4903 827.0
62.5447 839.0
62.599 793.0
62.6533 858.0
62.7077 844.0
62.762 800.0
62.8163 849.0
62.8707 836.0
62.925 788.0
62.9793 793.0
63.0337 801.0
63.088 793.0
63.1423 789.0
63.1967 829.0
63.251 772.0
63.3053 814.0
63.3597 790.0
63.414 843.0
63.4683 789.0
63.5227 839.0
63.577 785.0
63.6313 713.0
63.6856 795.0
63.74 752.0
63.7943 778.0
63.8486 849.0
63.903 760.0
63.9573 764.0
64.0116 768.0
64.066 754.0
64.1203 817.0
64.1746 776.0
64.229 725.0
64.2833 770.0
64.3376 772.0
64.392 749.0
64.4463 734.0
64.5006 680.0
64.555 751.0
64.6093 741.0
64.6636 776.0
64.718 733.0
64.7723 718.0
64.8266 755.0
64.881 755.0
64.9353 800.0
64.9896 758.0
65.044 787.0
65.0983 733.0
65.1526 726.0
65.2069 721.0
65.2613 723.0
65.3156 759.0
65.3699 756.0
65.4243 719.0
65.4786 792.0
65.5329 747.0
65.5873 729.0
65.6416 746.0
65.6959 735.0
65.7503 735.0
65.8046 736.0
65.8589 773.0
65.9133 738.0
65.9676 768.0
66.0219 743.0
66.0763 787.0
66.1306 713.0
66.1849 743.0
66.2393 752.0
66.2936 768.0
66.3479 758.0
66.4023 773.0
66.4566 669.0
66.5109 758.0
66.5653 778.0
66.6196 721.0
66.6739 709.0
66.7283 712.0
66.7826 729.0
66.8369 715.0
66.8912 790.0
66.9456 728.0
66.9999 744.0
67.0542 651.0
67.1086 712.0
67.1629 728.0
67.2172 711.0
67.2716 716.0
67.3259 722.0
67.3802 746.0
67.4346 744.0
67.4889 653.0
67.5432 669.0
67.5976 657.0
67.6519 677.0
67.7062 703.0
67.7606 704.0
67.8149 693.0
67.8692 711.0
67.9236 717.0
67.9779 721.0
68.0322 708.0
68.0866 742.0
68.1409 660.0
68.1952 682.0
68.2496 710.0
68.3039 712.0
68.3582 653.0
68.4125 681.0
68.4669 636.0
68.5212 741.0
68.5755 713.0
68.6299 704.0
68.6842 698.0
68.7385 687.0
68.7929 729.0
68.8472 757.0
68.9015 681.0
68.9559 742.0
69.0102 707.0
69.0645 713.0
69.1189 731.0
69.1732 680.0
69.2275 664.0
69.2819 690.0
69.3362 710.0
69.3905 677.0
69.4449 731.0
69.4992 699.0
69.5535 631.0
69.6079 724.0
69.6622 647.0
69.7165 729.0
69.7709 679.0
69.8252 688.0
69.8795 687.0
69.9338 644.0
69.9882 670.0
70.0425 696.0
70.0968 675.0
70.1512 716.0
70.2055 664.0
70.2598 726.0
70.3142 669.0
70.3685 674.0
70.4228 671.0
70.4772 670.0
70.5315 639.0
70.5858 679.0
70.6402 691.0
70.6945 718.0
70.7488 673.0
70.8032 679.0
70.8575 674.0
70.9118 698.0
70.9662 713.0
71.0205 699.0
71.0748 698.0
71.1292 718.0
71.1835 662.0
71.2378 744.0
71.2922 741.0
71.3465 711.0
71.4008 696.0
71.4552 682.0
71.5095 674.0
71.5638 696.0
71.6181 719.0
71.6725 680.0
71.7268 697.0
71.7811 674.0
71.8355 655.0
71.8898 655.0
71.9441 665.0
71.9985 675.0
72.0528 658.0
72.1071 677.0
72.1615 653.0
72.2158 717.0
72.2701 694.0
72.3245 694.0
72.3788 694.0
72.4331 624.0
72.4875 698.0
72.5418 658.0
72.5961 656.0
72.6505 724.0
72.7048 646.0
72.7591 650.0
72.8135 642.0
72.8678 658.0
72.9221 702.0
72.9765 678.0
73.0308 635.0
73.0851 662.0
73.1394 699.0
73.1938 693.0
73.2481 652.0
73.3024 619.0
73.3568 654.0
73.4111 659.0
73.4654 681.0
73.5198 678.0
73.5741 673.0
73.6284 702.0
73.6828 656.0
73.7371 646.0
73.7914 672.0
73.8458 657.0
73.9001 650.0
73.9544 706.0
74.0088 669.0
74.0631 662.0
74.1174 627.0
74.1718 653.0
74.2261 744.0
74.2804 623.0
74.3348 666.0
74.3891 696.0
74.4434 688.0
74.4978 701.0
74.5521 697.0
74.6064 667.0
74.6608 664.0
74.7151 665.0
74.7694 671.0
74.8237 692.0
74.8781 651.0
74.9324 676.0
74.9867 701.0
75.0411 689.0
75.0954 744.0
75.1497 700.0
75.2041 707.0
75.2584 694.0
75.3127 735.0
75.3671 682.0
75.4214 694.0
75.4757 681.0
75.5301 683.0
75.5844 675.0
75.6387 701.0
75.6931 704.0
75.7474 715.0
75.8017 647.0
75.8561 662.0
75.9104 672.0
75.9647 695.0
76.0191 735.0
76.0734 674.0
76.1277 681.0
76.1821 684.0
76.2364 642.0
76.2907 685.0
76.345 661.0
76.3994 711.0
76.4537 667.0
76.508 679.0
76.5624 693.0
76.6167 687.0
76.671 689.0
76.7254 800.0
76.7797 746.0
76.834 702.0
76.8884 665.0
76.9427 679.0
76.997 716.0
77.0514 686.0
77.1057 674.0
77.16 693.0
77.2144 662.0
77.2687 651.0
77.323 695.0
77.3774 680.0
77.4317 624.0
77.486 686.0
77.5404 651.0
77.5947 660.0
77.649 687.0
77.7034 690.0
77.7577 687.0
77.812 692.0
77.8664 697.0
77.9207 673.0
77.975 682.0
78.0293 665.0
78.0837 654.0
78.138 694.0
78.1923 726.0
78.2467 653.0
78.301 688.0
78.3553 702.0
78.4097 708.0
78.464 700.0
78.5183 710.0
78.5727 741.0
78.627 749.0
78.6813 730.0
78.7357 733.0
78.79 749.0
78.8443 759.0
78.8987 777.0
78.953 650.0
79.0073 715.0
79.0617 685.0
79.116 709.0
79.1703 661.0
79.2247 701.0
79.279 672.0
79.3333 664.0
79.3877 720.0
79.442 706.0
79.4963 684.0
79.5506 654.0
79.605 677.0
79.6593 656.0
79.7136 709.0
79.768 675.0
79.8223 650.0
79.8766 711.0
79.931 682.0
79.9853 648.0
79.9962 668.0