File: XRD/2025_06_07_Felodipine_3_60_8min_XRD.xy
3.00043 41946.0
3.0439 40405.0
3.08736 38383.0
3.13083 36452.0
3.1743 34546.0
3.21776 32606.0
3.26123 31160.0
3.30469 29154.0
3.34816 27317.0
3.39163 26135.0
3.43509 24800.0
3.47856 23175.0
3.52202 21967.0
3.56549 20619.0
3.60895 19388.0
3.65242 18297.0
3.69589 17144.0
3.73935 16029.0
3.78282 15042.0
3.82628 13839.0
3.86975 13107.0
3.91321 12457.0
3.95668 11376.0
4.00015 10528.0
4.04361 9805.0
4.08708 9169.0
4.13054 8321.0
4.17401 7808.0
4.21747 7405.0
4.26094 6660.0
4.30441 6024.0
4.34787 5724.0
4.39134 5314.0
4.4348 4913.0
4.47827 4466.0
4.52173 4065.0
4.5652 3744.0
4.60867 3537.0
4.65213 3302.0
4.6956 3044.0
4.73906 2882.0
4.78253 2681.0
4.826 2569.0
4.86946 2424.0
4.91293 2279.0
4.95639 2281.0
4.99986 2160.0
5.04332 2030.0
5.08679 1990.0
5.13026 1999.0
5.17372 2008.0
5.21719 1978.0
5.26065 1975.0
5.30412 1944.0
5.34758 2003.0
5.39105 1898.0
5.43452 1766.0
5.47798 1721.0
5.52145 1608.0
5.56491 1489.0
5.60838 1400.0
5.65184 1334.0
5.69531 1279.0
5.73878 1160.0
5.78224 1137.0
5.82571 1098.0
5.86917 1011.0
5.91264 1022.0
5.9561 982.0
5.99957 1085.0
6.04304 1011.0
6.0865 943.0
6.12997 917.0
6.17343 951.0
6.2169 899.0
6.26037 898.0
6.30383 851.0
6.3473 858.0
6.39076 789.0
6.43423 804.0
6.47769 776.0
6.52116 782.0
6.56463 695.0
6.60809 618.0
6.65156 686.0
6.69502 638.0
6.73849 636.0
6.78195 661.0
6.82542 636.0
6.86889 585.0
6.91235 639.0
6.95582 585.0
6.99928 574.0
7.04275 515.0
7.08621 546.0
7.12968 578.0
7.17315 548.0
7.21661 500.0
7.26008 513.0
7.30354 512.0
7.34701 475.0
7.39047 473.0
7.43394 489.0
7.47741 443.0
7.52087 440.0
7.56434 441.0
7.6078 459.0
7.65127 445.0
7.69474 473.0
7.7382 433.0
7.78167 449.0
7.82513 459.0
7.8686 500.0
7.91206 473.0
7.95553 434.0
7.999 425.0
8.04246 461.0
8.08593 428.0
8.12939 442.0
8.17286 429.0
8.21632 365.0
8.25979 397.0
8.30326 429.0
8.34672 428.0
8.39019 400.0
8.43365 391.0
8.47712 409.0
8.52058 436.0
8.56405 410.0
8.60752 386.0
8.65098 451.0
8.69445 405.0
8.73791 405.0
8.78138 444.0
8.82485 377.0
8.86831 411.0
8.91178 411.0
8.95524 415.0
8.99871 430.0
9.04217 418.0
9.08564 389.0
9.12911 414.0
9.17257 469.0
9.21604 436.0
9.2595 430.0
9.30297 379.0
9.34643 472.0
9.3899 422.0
9.43337 455.0
9.47683 427.0
9.5203 466.0
9.56376 526.0
9.60723 475.0
9.65069 541.0
9.69416 614.0
9.73763 692.0
9.78109 728.0
9.82456 859.0
9.86802 1091.0
9.91149 1332.0
9.95495 1693.0
9.99842 2210.0
10.0419 3000.0
10.0854 3863.0
10.1288 5173.0
10.1723 6361.0
10.2157 7064.0
10.2592 6795.0
10.3027 5427.0
10.3461 4220.0
10.3896 3164.0
10.4331 2502.0
10.4765 1862.0
10.52 1637.0
10.5635 1470.0
10.6069 1380.0
10.6504 1424.0
10.6939 1516.0
10.7373 1735.0
10.7808 1972.0
10.8243 2105.0
10.8677 2213.0
10.9112 2006.0
10.9547 1556.0
10.9981 1338.0
11.0416 1093.0
11.0851 999.0
11.1285 843.0
11.172 714.0
11.2155 666.0
11.2589 626.0
11.3024 582.0
11.3459 547.0
11.3893 528.0
11.4328 506.0
11.4763 483.0
11.5197 509.0
11.5632 456.0
11.6067 485.0
11.6501 483.0
11.6936 433.0
11.7371 428.0
11.7805 457.0
11.824 425.0
11.8674 441.0
11.9109 415.0
11.9544 389.0
11.9978 430.0
12.0413 422.0
12.0848 436.0
12.1282 393.0
12.1717 416.0
12.2152 425.0
12.2586 394.0
12.3021 405.0
12.3456 395.0
12.389 412.0
12.4325 417.0
12.476 424.0
12.5194 418.0
12.5629 438.0
12.6064 430.0
12.6498 413.0
12.6933 397.0
12.7368 460.0
12.7802 442.0
12.8237 491.0
12.8672 519.0
12.9106 539.0
12.9541 583.0
12.9976 752.0
13.041 867.0
13.0845 1099.0
13.128 1126.0
13.1714 1159.0
13.2149 1083.0
13.2584 904.0
13.3018 681.0
13.3453 640.0
13.3887 630.0
13.4322 541.0
13.4757 515.0
13.5191 444.0
13.5626 467.0
13.6061 448.0
13.6495 432.0
13.693 386.0
13.7365 410.0
13.7799 366.0
13.8234 394.0
13.8669 418.0
13.9103 396.0
13.9538 372.0
13.9973 441.0
14.0407 429.0
14.0842 416.0
14.1277 441.0
14.1711 480.0
14.2146 504.0
14.2581 644.0
14.3015 687.0
14.345 790.0
14.3885 938.0
14.4319 1067.0
14.4754 1216.0
14.5189 1139.0
14.5623 1066.0
14.6058 1031.0
14.6493 904.0
14.6927 711.0
14.7362 632.0
14.7797 586.0
14.8231 550.0
14.8666 582.0
14.9101 537.0
14.9535 558.0
14.997 552.0
15.0404 495.0
15.0839 514.0
15.1274 457.0
15.1708 442.0
15.2143 414.0
15.2578 380.0
15.3012 359.0
15.3447 389.0
15.3882 378.0
15.4316 386.0
15.4751 339.0
15.5186 381.0
15.562 398.0
15.6055 415.0
15.649 398.0
15.6924 431.0
15.7359 457.0
15.7794 462.0
15.8228 463.0
15.8663 572.0
15.9098 595.0
15.9532 749.0
15.9967 922.0
16.0402 1188.0
16.0836 1612.0
16.1271 2044.0
16.1706 2704.0
16.214 3153.0
16.2575 3437.0
16.301 3243.0
16.3444 3064.0
16.3879 2926.0
16.4314 2914.0
16.4748 3227.0
16.5183 3336.0
16.5618 3247.0
16.6052 2801.0
16.6487 2283.0
16.6921 1694.0
16.7356 1311.0
16.7791 986.0
16.8225 820.0
16.866 701.0
16.9095 617.0
16.9529 567.0
16.9964 516.0
17.0399 539.0
17.0833 451.0
17.1268 488.0
17.1703 456.0
17.2137 413.0
17.2572 399.0
17.3007 419.0
17.3441 450.0
17.3876 440.0
17.4311 462.0
17.4745 492.0
17.518 529.0
17.5615 623.0
17.6049 610.0
17.6484 736.0
17.6919 739.0
17.7353 713.0
17.7788 574.0
17.8223 519.0
17.8657 498.0
17.9092 458.0
17.9527 438.0
17.9961 401.0
18.0396 379.0
18.0831 362.0
18.1265 377.0
18.17 333.0
18.2134 371.0
18.2569 373.0
18.3004 345.0
18.3438 359.0
18.3873 355.0
18.4308 368.0
18.4742 400.0
18.5177 359.0
18.5612 393.0
18.6046 345.0
18.6481 343.0
18.6916 398.0
18.735 382.0
18.7785 370.0
18.822 373.0
18.8654 381.0
18.9089 378.0
18.9524 367.0
18.9958 382.0
19.0393 393.0
19.0828 401.0
19.1262 390.0
19.1697 404.0
19.2132 448.0
19.2566 491.0
19.3001 526.0
19.3436 670.0
19.387 803.0
19.4305 867.0
19.474 933.0
19.5174 855.0
19.5609 802.0
19.6044 658.0
19.6478 594.0
19.6913 505.0
19.7348 454.0
19.7782 471.0
19.8217 446.0
19.8651 434.0
19.9086 420.0
19.9521 391.0
19.9955 465.0
20.039 422.0
20.0825 438.0
20.1259 519.0
20.1694 552.0
20.2129 660.0
20.2563 823.0
20.2998 1064.0
20.3433 1454.0
20.3867 1855.0
20.4302 2294.0
20.4737 2497.0
20.5171 2390.0
20.5606 2177.0
20.6041 1670.0
20.6475 1358.0
20.691 1065.0
20.7345 906.0
20.7779 902.0
20.8214 857.0
20.8649 823.0
20.9083 743.0
20.9518 644.0
20.9953 572.0
21.0387 509.0
21.0822 488.0
21.1257 487.0
21.1691 444.0
21.2126 423.0
21.2561 455.0
21.2995 451.0
21.343 460.0
21.3864 462.0
21.4299 466.0
21.4734 476.0
21.5168 598.0
21.5603 680.0
21.6038 785.0
21.6472 956.0
21.6907 1082.0
21.7342 1348.0
21.7776 1362.0
21.8211 1483.0
21.8646 1558.0
21.908 1533.0
21.9515 1454.0
21.995 1353.0
22.0384 1204.0
22.0819 1008.0
22.1254 861.0
22.1688 790.0
22.2123 751.0
22.2558 679.0
22.2992 623.0
22.3427 584.0
22.3862 553.0
22.4296 576.0
22.4731 499.0
22.5166 538.0
22.56 582.0
22.6035 565.0
22.647 553.0
22.6904 528.0
22.7339 573.0
22.7774 686.0
22.8208 663.0
22.8643 922.0
22.9078 1029.0
22.9512 1349.0
22.9947 1943.0
23.0381 2931.0
23.0816 3993.0
23.1251 5261.0
23.1685 6608.0
23.212 7510.0
23.2555 7306.0
23.2989 6791.0
23.3424 5663.0
23.3859 4537.0
23.4293 3270.0
23.4728 2427.0
23.5163 1788.0
23.5597 1475.0
23.6032 1230.0
23.6467 1062.0
23.6901 946.0
23.7336 839.0
23.7771 747.0
23.8205 664.0
23.864 637.0
23.9075 603.0
23.9509 569.0
23.9944 516.0
24.0379 571.0
24.0813 575.0
24.1248 602.0
24.1683 698.0
24.2117 798.0
24.2552 991.0
24.2987 1384.0
24.3421 1888.0
24.3856 2512.0
24.4291 3033.0
24.4725 3264.0
24.516 2939.0
24.5595 2415.0
24.6029 1903.0
24.6464 1472.0
24.6898 1119.0
24.7333 930.0
24.7768 777.0
24.8202 772.0
24.8637 751.0
24.9072 677.0
24.9506 638.0
24.9941 705.0
25.0376 718.0
25.081 864.0
25.1245 1091.0
25.168 1256.0
25.2114 1808.0
25.2549 2379.0
25.2984 2580.0
25.3418 2628.0
25.3853 2618.0
25.4288 2280.0
25.4722 1966.0
25.5157 1588.0
25.5592 1412.0
25.6026 1237.0
25.6461 1132.0
25.6896 1018.0
25.733 910.0
25.7765 750.0
25.82 735.0
25.8634 721.0
25.9069 693.0
25.9504 692.0
25.9938 657.0
26.0373 770.0
26.0808 912.0
26.1242 1138.0
26.1677 1499.0
26.2111 1942.0
26.2546 2389.0
26.2981 2754.0
26.3415 3057.0
26.385 3328.0
26.4285 3181.0
26.4719 3028.0
26.5154 2630.0
26.5589 2251.0
26.6023 1711.0
26.6458 1403.0
26.6893 1085.0
26.7327 932.0
26.7762 771.0
26.8197 722.0
26.8631 660.0
26.9066 620.0
26.9501 624.0
26.9935 633.0
27.037 701.0
27.0805 812.0
27.1239 931.0
27.1674 976.0
27.2109 973.0
27.2543 954.0
27.2978 941.0
27.3413 856.0
27.3847 947.0
27.4282 914.0
27.4717 965.0
27.5151 923.0
27.5586 860.0
27.6021 815.0
27.6455 681.0
27.689 593.0
27.7325 582.0
27.7759 528.0
27.8194 518.0
27.8628 515.0
27.9063 489.0
27.9498 494.0
27.9932 456.0
28.0367 492.0
28.0802 444.0
28.1236 437.0
28.1671 409.0
28.2106 436.0
28.254 487.0
28.2975 410.0
28.341 485.0
28.3844 477.0
28.4279 433.0
28.4714 450.0
28.5148 433.0
28.5583 434.0
28.6018 460.0
28.6452 431.0
28.6887 445.0
28.7322 443.0
28.7756 444.0
28.8191 494.0
28.8626 554.0
28.906 619.0
28.9495 662.0
28.993 760.0
29.0364 856.0
29.0799 869.0
29.1234 981.0
29.1668 931.0
29.2103 1091.0
29.2538 1064.0
29.2972 1254.0
29.3407 1427.0
29.3841 1565.0
29.4276 1749.0
29.4711 1706.0
29.5145 1476.0
29.558 1274.0
29.6015 1058.0
29.6449 874.0
29.6884 736.0
29.7319 622.0
29.7753 660.0
29.8188 626.0
29.8623 736.0
29.9057 785.0
29.9492 928.0
29.9927 1101.0
30.0361 1164.0
30.0796 1286.0
30.1231 1387.0
30.1665 1460.0
30.21 1295.0
30.2535 1166.0
30.2969 1035.0
30.3404 887.0
30.3839 768.0
30.4273 712.0
30.4708 692.0
30.5143 599.0
30.5577 578.0
30.6012 554.0
30.6447 557.0
30.6881 529.0
30.7316 578.0
30.7751 629.0
30.8185 664.0
30.862 719.0
30.9055 738.0
30.9489 724.0
30.9924 723.0
31.0358 618.0
31.0793 568.0
31.1228 494.0
31.1662 501.0
31.2097 443.0
31.2532 507.0
31.2966 479.0
31.3401 508.0
31.3836 434.0
31.427 444.0
31.4705 429.0
31.514 429.0
31.5574 446.0
31.6009 457.0
31.6444 448.0
31.6878 479.0
31.7313 615.0
31.7748 658.0
31.8182 824.0
31.8617 982.0
31.9052 1142.0
31.9486 1100.0
31.9921 1132.0
32.0356 939.0
32.079 840.0
32.1225 704.0
32.166 582.0
32.2094 532.0
32.2529 531.0
32.2964 512.0
32.3398 522.0
32.3833 585.0
32.4268 688.0
32.4702 748.0
32.5137 949.0
32.5572 1096.0
32.6006 1098.0
32.6441 1241.0
32.6875 1189.0
32.731 1079.0
32.7745 974.0
32.8179 859.0
32.8614 812.0
32.9049 698.0
32.9483 614.0
32.9918 603.0
33.0353 454.0
33.0787 468.0
33.1222 467.0
33.1657 470.0
33.2091 512.0
33.2526 502.0
33.2961 594.0
33.3395 644.0
33.383 680.0
33.4265 734.0
33.4699 753.0
33.5134 820.0
33.5569 808.0
33.6003 783.0
33.6438 843.0
33.6873 875.0
33.7307 837.0
33.7742 763.0
33.8177 711.0
33.8611 662.0
33.9046 640.0
33.9481 545.0
33.9915 521.0
34.035 512.0
34.0785 434.0
34.1219 437.0
34.1654 439.0
34.2088 446.0
34.2523 492.0
34.2958 424.0
34.3392 485.0
34.3827 496.0
34.4262 540.0
34.4696 604.0
34.5131 677.0
34.5566 759.0
34.6 788.0
34.6435 831.0
34.687 759.0
34.7304 698.0
34.7739 636.0
34.8174 605.0
34.8608 553.0
34.9043 536.0
34.9478 431.0
34.9912 465.0
35.0347 479.0
35.0782 396.0
35.1216 402.0
35.1651 422.0
35.2086 382.0
35.252 445.0
35.2955 416.0
35.339 448.0
35.3824 458.0
35.4259 359.0
35.4694 389.0
35.5128 411.0
35.5563 435.0
35.5998 421.0
35.6432 444.0
35.6867 492.0
35.7302 603.0
35.7736 670.0
35.8171 734.0
35.8605 813.0
35.904 872.0
35.9475 882.0
35.9909 840.0
36.0344 763.0
36.0779 693.0
36.1213 605.0
36.1648 538.0
36.2083 493.0
36.2517 443.0
36.2952 457.0
36.3387 413.0
36.3821 418.0
36.4256 444.0
36.4691 414.0
36.5125 419.0
36.556 479.0
36.5995 459.0
36.6429 529.0
36.6864 577.0
36.7299 700.0
36.7733 691.0
36.8168 741.0
36.8603 728.0
36.9037 667.0
36.9472 637.0
36.9907 581.0
37.0341 551.0
37.0776 482.0
37.1211 516.0
37.1645 478.0
37.208 485.0
37.2515 460.0
37.2949 476.0
37.3384 467.0
37.3818 508.0
37.4253 514.0
37.4688 584.0
37.5122 544.0
37.5557 555.0
37.5992 487.0
37.6426 512.0
37.6861 477.0
37.7296 444.0
37.773 430.0
37.8165 406.0
37.86 417.0
37.9034 359.0
37.9469 415.0
37.9904 379.0
38.0338 377.0
38.0773 398.0
38.1208 407.0
38.1642 398.0
38.2077 393.0
38.2512 439.0
38.2946 412.0
38.3381 454.0
38.3816 438.0
38.425 444.0
38.4685 453.0
38.512 439.0
38.5554 403.0
38.5989 469.0
38.6424 416.0
38.6858 405.0
38.7293 371.0
38.7728 395.0
38.8162 412.0
38.8597 410.0
38.9032 460.0
38.9466 452.0
38.9901 480.0
39.0335 475.0
39.077 457.0
39.1205 438.0
39.1639 412.0
39.2074 444.0
39.2509 468.0
39.2943 565.0
39.3378 651.0
39.3813 758.0
39.4247 852.0
39.4682 880.0
39.5117 907.0
39.5551 944.0
39.5986 917.0
39.6421 823.0
39.6855 830.0
39.729 861.0
39.7725 842.0
39.8159 877.0
39.8594 881.0
39.9029 766.0
39.9463 739.0
39.9898 650.0
40.0333 579.0
40.0767 533.0
40.1202 480.0
40.1637 498.0
40.2071 505.0
40.2506 482.0
40.2941 544.0
40.3375 542.0
40.381 523.0
40.4245 512.0
40.4679 500.0
40.5114 524.0
40.5548 500.0
40.5983 491.0
40.6418 552.0
40.6852 574.0
40.7287 572.0
40.7722 591.0
40.8156 609.0
40.8591 561.0
40.9026 567.0
40.946 571.0
40.9895 516.0
41.033 495.0
41.0764 492.0
41.1199 436.0
41.1634 472.0
41.2068 466.0
41.2503 438.0
41.2938 443.0
41.3372 459.0
41.3807 448.0
41.4242 503.0
41.4676 510.0
41.5111 498.0
41.5546 500.0
41.598 491.0
41.6415 466.0
41.685 498.0
41.7284 477.0
41.7719 465.0
41.8154 473.0
41.8588 506.0
41.9023 573.0
41.9458 545.0
41.9892 551.0
42.0327 490.0
42.0762 479.0
42.1196 465.0
42.1631 498.0
42.2065 463.0
42.25 437.0
42.2935 496.0
42.3369 436.0
42.3804 459.0
42.4239 423.0
42.4673 445.0
42.5108 419.0
42.5543 399.0
42.5977 431.0
42.6412 465.0
42.6847 466.0
42.7281 488.0
42.7716 495.0
42.8151 490.0
42.8585 519.0
42.902 522.0
42.9455 487.0
42.9889 537.0
43.0324 493.0
43.0759 488.0
43.1193 510.0
43.1628 482.0
43.2063 484.0
43.2497 510.0
43.2932 400.0
43.3367 398.0
43.3801 400.0
43.4236 349.0
43.4671 329.0
43.5105 347.0
43.554 341.0
43.5975 340.0
43.6409 330.0
43.6844 351.0
43.7279 339.0
43.7713 347.0
43.8148 341.0
43.8582 329.0
43.9017 337.0
43.9452 362.0
43.9886 367.0
44.0321 372.0
44.0756 511.0
44.119 518.0
44.1625 575.0
44.206 588.0
44.2494 578.0
44.2929 562.0
44.3364 561.0
44.3798 578.0
44.4233 531.0
44.4668 526.0
44.5102 525.0
44.5537 582.0
44.5972 492.0
44.6406 464.0
44.6841 448.0
44.7276 444.0
44.771 440.0
44.8145 434.0
44.858 419.0
44.9014 424.0
44.9449 456.0
44.9884 456.0
45.0318 484.0
45.0753 423.0
45.1188 450.0
45.1622 443.0
45.2057 385.0
45.2492 386.0
45.2926 382.0
45.3361 405.0
45.3795 356.0
45.423 364.0
45.4665 407.0
45.5099 410.0
45.5534 419.0
45.5969 453.0
45.6403 486.0
45.6838 475.0
45.7273 534.0
45.7707 496.0
45.8142 453.0
45.8577 452.0
45.9011 446.0
45.9446 425.0
45.9881 425.0
46.0315 418.0
46.075 377.0
46.1185 403.0
46.1619 346.0
46.2054 362.0
46.2489 363.0
46.2923 368.0
46.3358 351.0
46.3793 357.0
46.4227 350.0
46.4662 354.0
46.5097 367.0
46.5531 340.0
46.5966 330.0
46.6401 321.0
46.6835 371.0
46.727 339.0
46.7705 350.0
46.8139 362.0
46.8574 343.0
46.9009 368.0
46.9443 390.0
46.9878 420.0
47.0312 402.0
47.0747 426.0
47.1182 431.0
47.1616 475.0
47.2051 476.0
47.2486 505.0
47.292 521.0
47.3355 519.0
47.379 606.0
47.4224 601.0
47.4659 640.0
47.5094 610.0
47.5528 673.0
47.5963 652.0
47.6398 603.0
47.6832 580.0
47.7267 550.0
47.7702 522.0
47.8136 534.0
47.8571 502.0
47.9006 497.0
47.944 455.0
47.9875 457.0
48.031 458.0
48.0744 424.0
48.1179 380.0
48.1614 354.0
48.2048 367.0
48.2483 350.0
48.2918 341.0
48.3352 337.0
48.3787 304.0
48.4222 348.0
48.4656 321.0
48.5091 306.0
48.5525 345.0
48.596 309.0
48.6395 347.0
48.6829 357.0
48.7264 387.0
48.7699 373.0
48.8133 376.0
48.8568 380.0
48.9003 357.0
48.9437 355.0
48.9872 365.0
49.0307 371.0
49.0741 356.0
49.1176 364.0
49.1611 375.0
49.2045 390.0
49.248 345.0
49.2915 351.0
49.3349 361.0
49.3784 325.0
49.4219 342.0
49.4653 330.0
49.5088 337.0
49.5523 360.0
49.5957 322.0
49.6392 348.0
49.6827 399.0
49.7261 422.0
49.7696 411.0
49.8131 524.0
49.8565 501.0
49.9 536.0
49.9435 541.0
49.9869 529.0
50.0304 470.0
50.0739 496.0
50.1173 469.0
50.1608 433.0
50.2042 455.0
50.2477 389.0
50.2912 406.0
50.3346 399.0
50.3781 372.0
50.4216 397.0
50.465 361.0
50.5085 387.0
50.552 420.0
50.5954 389.0
50.6389 406.0
50.6824 336.0
50.7258 409.0
50.7693 348.0
50.8128 407.0
50.8562 421.0
50.8997 412.0
50.9432 412.0
50.9866 340.0
51.0301 315.0
51.0736 325.0
51.117 350.0
51.1605 337.0
51.204 330.0
51.2474 322.0
51.2909 288.0
51.3344 327.0
51.3778 318.0
51.4213 315.0
51.4648 342.0
51.5082 323.0
51.5517 375.0
51.5952 301.0
51.6386 347.0
51.6821 367.0
51.7256 336.0
51.769 376.0
51.8125 346.0
51.8559 372.0
51.8994 341.0
51.9429 336.0
51.9863 305.0
52.0298 322.0
52.0733 305.0
52.1167 324.0
52.1602 325.0
52.2037 313.0
52.2471 340.0
52.2906 291.0
52.3341 324.0
52.3775 286.0
52.421 317.0
52.4645 330.0
52.5079 303.0
52.5514 332.0
52.5949 341.0
52.6383 340.0
52.6818 322.0
52.7253 340.0
52.7687 356.0
52.8122 382.0
52.8557 380.0
52.8991 326.0
52.9426 352.0
52.9861 367.0
53.0295 350.0
53.073 339.0
53.1165 333.0
53.1599 363.0
53.2034 325.0
53.2469 317.0
53.2903 323.0
53.3338 313.0
53.3772 295.0
53.4207 309.0
53.4642 286.0
53.5076 306.0
53.5511 249.0
53.5946 288.0
53.638 303.0
53.6815 279.0
53.725 270.0
53.7684 275.0
53.8119 312.0
53.8554 315.0
53.8988 340.0
53.9423 332.0
53.9858 297.0
54.0292 322.0
54.0727 299.0
54.1162 337.0
54.1596 341.0
54.2031 335.0
54.2466 303.0
54.29 345.0
54.3335 367.0
54.377 329.0
54.4204 356.0
54.4639 334.0
54.5074 344.0
54.5508 341.0
54.5943 292.0
54.6378 333.0
54.6812 326.0
54.7247 321.0
54.7682 268.0
54.8116 318.0
54.8551 301.0
54.8986 338.0
54.942 355.0
54.9855 320.0
55.0289 310.0
55.0724 304.0
55.1159 348.0
55.1593 316.0
55.2028 313.0
55.2463 321.0
55.2897 323.0
55.3332 333.0
55.3767 307.0
55.4201 315.0
55.4636 299.0
55.5071 261.0
55.5505 285.0
55.594 287.0
55.6375 280.0
55.6809 297.0
55.7244 316.0
55.7679 321.0
55.8113 292.0
55.8548 282.0
55.8983 314.0
55.9417 327.0
55.9852 314.0
56.0287 296.0
56.0721 301.0
56.1156 291.0
56.1591 325.0
56.2025 283.0
56.246 300.0
56.2895 301.0
56.3329 305.0
56.3764 311.0
56.4199 314.0
56.4633 312.0
56.5068 339.0
56.5502 300.0
56.5937 297.0
56.6372 303.0
56.6806 322.0
56.7241 323.0
56.7676 245.0
56.811 301.0
56.8545 248.0
56.898 265.0
56.9414 243.0
56.9849 239.0
57.0284 269.0
57.0718 271.0
57.1153 258.0
57.1588 239.0
57.2022 283.0
57.2457 251.0
57.2892 261.0
57.3326 295.0
57.3761 257.0
57.4196 263.0
57.463 301.0
57.5065 298.0
57.55 296.0
57.5934 288.0
57.6369 304.0
57.6804 278.0
57.7238 332.0
57.7673 280.0
57.8108 314.0
57.8542 289.0
57.8977 286.0
57.9412 288.0
57.9846 257.0
58.0281 283.0
58.0716 275.0
58.115 241.0
58.1585 243.0
58.2019 287.0
58.2454 277.0
58.2889 258.0
58.3323 237.0
58.3758 248.0
58.4193 250.0
58.4627 269.0
58.5062 270.0
58.5497 250.0
58.5931 245.0
58.6366 271.0
58.6801 247.0
58.7235 291.0
58.767 267.0
58.8105 291.0
58.8539 273.0
58.8974 281.0
58.9409 294.0
58.9843 278.0
59.0278 274.0
59.0713 256.0
59.1147 247.0
59.1582 274.0
59.2017 236.0
59.2451 275.0
59.2886 295.0
59.3321 303.0
59.3755 289.0
59.419 269.0
59.4625 281.0
59.5059 219.0
59.5494 281.0
59.5929 251.0
59.6363 249.0
59.6798 247.0
59.7233 245.0
59.7667 234.0
59.8102 243.0
59.8536 247.0
59.8971 228.0
59.9406 268.0
59.984 230.0
59.9949 232.0