File: XRD/2025_06_03_CBD_SA_MC15_3_60_8min.xy
3.00043 43436.0
3.0439 41460.0
3.08736 39557.0
3.13083 37127.0
3.1743 35090.0
3.21776 33716.0
3.26123 31842.0
3.30469 30246.0
3.34816 28539.0
3.39163 26633.0
3.43509 25132.0
3.47856 23565.0
3.52202 22358.0
3.56549 21153.0
3.60895 19554.0
3.65242 18316.0
3.69589 17149.0
3.73935 16194.0
3.78282 15053.0
3.82628 14023.0
3.86975 13211.0
3.91321 12573.0
3.95668 11391.0
4.00015 10591.0
4.04361 10004.0
4.08708 9023.0
4.13054 8619.0
4.17401 7812.0
4.21747 7261.0
4.26094 6973.0
4.30441 6264.0
4.34787 5696.0
4.39134 5301.0
4.4348 4930.0
4.47827 4470.0
4.52173 4246.0
4.5652 3896.0
4.60867 3523.0
4.65213 3320.0
4.6956 3172.0
4.73906 2958.0
4.78253 2772.0
4.826 2693.0
4.86946 2612.0
4.91293 2500.0
4.95639 2536.0
4.99986 2421.0
5.04332 2485.0
5.08679 2491.0
5.13026 2574.0
5.17372 2436.0
5.21719 2444.0
5.26065 2372.0
5.30412 2233.0
5.34758 2178.0
5.39105 2182.0
5.43452 2022.0
5.47798 1985.0
5.52145 1831.0
5.56491 1787.0
5.60838 1615.0
5.65184 1591.0
5.69531 1556.0
5.73878 1446.0
5.78224 1450.0
5.82571 1376.0
5.86917 1347.0
5.91264 1290.0
5.9561 1282.0
5.99957 1224.0
6.04304 1219.0
6.0865 1255.0
6.12997 1161.0
6.17343 1194.0
6.2169 1227.0
6.26037 1194.0
6.30383 1115.0
6.3473 1119.0
6.39076 1093.0
6.43423 1146.0
6.47769 1115.0
6.52116 1045.0
6.56463 1070.0
6.60809 1059.0
6.65156 1014.0
6.69502 996.0
6.73849 1038.0
6.78195 916.0
6.82542 955.0
6.86889 957.0
6.91235 932.0
6.95582 944.0
6.99928 871.0
7.04275 884.0
7.08621 925.0
7.12968 870.0
7.17315 856.0
7.21661 885.0
7.26008 835.0
7.30354 830.0
7.34701 822.0
7.39047 790.0
7.43394 878.0
7.47741 821.0
7.52087 835.0
7.56434 799.0
7.6078 863.0
7.65127 800.0
7.69474 825.0
7.7382 786.0
7.78167 832.0
7.82513 811.0
7.8686 810.0
7.91206 769.0
7.95553 829.0
7.999 853.0
8.04246 878.0
8.08593 868.0
8.12939 894.0
8.17286 999.0
8.21632 1056.0
8.25979 1116.0
8.30326 1183.0
8.34672 1172.0
8.39019 1106.0
8.43365 994.0
8.47712 900.0
8.52058 831.0
8.56405 764.0
8.60752 789.0
8.65098 904.0
8.69445 924.0
8.73791 879.0
8.78138 905.0
8.82485 906.0
8.86831 898.0
8.91178 990.0
8.95524 1097.0
8.99871 1158.0
9.04217 1309.0
9.08564 1419.0
9.12911 1639.0
9.17257 1881.0
9.21604 2312.0
9.2595 2952.0
9.30297 3399.0
9.34643 3991.0
9.3899 4480.0
9.43337 4542.0
9.47683 4515.0
9.5203 4716.0
9.56376 5953.0
9.60723 7910.0
9.65069 9944.0
9.69416 11932.0
9.73763 13520.0
9.78109 13325.0
9.82456 10542.0
9.86802 5979.0
9.91149 2928.0
9.95495 2376.0
9.99842 2584.0
10.0419 3189.0
10.0854 3888.0
10.1288 4597.0
10.1723 5463.0
10.2157 6081.0
10.2592 6362.0
10.3027 5314.0
10.3461 3627.0
10.3896 1854.0
10.4331 1279.0
10.4765 1150.0
10.52 1044.0
10.5635 996.0
10.6069 1051.0
10.6504 996.0
10.6939 998.0
10.7373 989.0
10.7808 1032.0
10.8243 1010.0
10.8677 1081.0
10.9112 1153.0
10.9547 1212.0
10.9981 1304.0
11.0416 1450.0
11.0851 1631.0
11.1285 1961.0
11.172 2285.0
11.2155 3099.0
11.2589 4068.0
11.3024 4941.0
11.3459 5845.0
11.3893 6586.0
11.4328 6971.0
11.4763 6215.0
11.5197 4366.0
11.5632 3199.0
11.6067 3025.0
11.6501 3485.0
11.6936 3966.0
11.7371 4569.0
11.7805 4568.0
11.824 4096.0
11.8674 2858.0
11.9109 1648.0
11.9544 1258.0
11.9978 1084.0
12.0413 1029.0
12.0848 1129.0
12.1282 1161.0
12.1717 1259.0
12.2152 1326.0
12.2586 1448.0
12.3021 1744.0
12.3456 2170.0
12.389 2713.0
12.4325 3162.0
12.476 3641.0
12.5194 4122.0
12.5629 3975.0
12.6064 3475.0
12.6498 2697.0
12.6933 2504.0
12.7368 2817.0
12.7802 3725.0
12.8237 4895.0
12.8672 6095.0
12.9106 7066.0
12.9541 8142.0
12.9976 8758.0
13.041 8023.0
13.0845 6660.0
13.128 6089.0
13.1714 5914.0
13.2149 5414.0
13.2584 3939.0
13.3018 2564.0
13.3453 1647.0
13.3887 1425.0
13.4322 1358.0
13.4757 1410.0
13.5191 1481.0
13.5626 1773.0
13.6061 2272.0
13.6495 2778.0
13.693 3425.0
13.7365 3963.0
13.7799 4530.0
13.8234 4489.0
13.8669 3798.0
13.9103 2559.0
13.9538 1549.0
13.9973 1167.0
14.0407 1047.0
14.0842 997.0
14.1277 912.0
14.1711 1012.0
14.2146 973.0
14.2581 888.0
14.3015 963.0
14.345 915.0
14.3885 896.0
14.4319 951.0
14.4754 994.0
14.5189 1010.0
14.5623 997.0
14.6058 1019.0
14.6493 1112.0
14.6927 1153.0
14.7362 1229.0
14.7797 1292.0
14.8231 1494.0
14.8666 1897.0
14.9101 2502.0
14.9535 3321.0
14.997 4271.0
15.0404 4876.0
15.0839 5344.0
15.1274 5381.0
15.1708 4724.0
15.2143 3222.0
15.2578 1990.0
15.3012 1559.0
15.3447 1579.0
15.3882 1504.0
15.4316 1466.0
15.4751 1390.0
15.5186 1156.0
15.562 1071.0
15.6055 1007.0
15.649 948.0
15.6924 922.0
15.7359 993.0
15.7794 1023.0
15.8228 1112.0
15.8663 1163.0
15.9098 1155.0
15.9532 1383.0
15.9967 1582.0
16.0402 1603.0
16.0836 1767.0
16.1271 1677.0
16.1706 1659.0
16.214 1387.0
16.2575 1075.0
16.301 1028.0
16.3444 1017.0
16.3879 1126.0
16.4314 1176.0
16.4748 1389.0
16.5183 1597.0
16.5618 1777.0
16.6052 1882.0
16.6487 1792.0
16.6921 1853.0
16.7356 1598.0
16.7791 1370.0
16.8225 1288.0
16.866 1511.0
16.9095 1686.0
16.9529 1850.0
16.9964 2041.0
17.0399 2119.0
17.0833 2218.0
17.1268 2295.0
17.1703 2659.0
17.2137 3657.0
17.2572 4967.0
17.3007 6171.0
17.3441 7455.0
17.3876 8393.0
17.4311 8495.0
17.4745 7405.0
17.518 5111.0
17.5615 2921.0
17.6049 1797.0
17.6484 1363.0
17.6919 1284.0
17.7353 1374.0
17.7788 1531.0
17.8223 1645.0
17.8657 1733.0
17.9092 1866.0
17.9527 2142.0
17.9961 1975.0
18.0396 1880.0
18.0831 1725.0
18.1265 1735.0
18.17 1818.0
18.2134 2001.0
18.2569 2062.0
18.3004 1894.0
18.3438 1770.0
18.3873 1549.0
18.4308 1605.0
18.4742 1764.0
18.5177 2312.0
18.5612 2858.0
18.6046 3843.0
18.6481 5040.0
18.6916 6248.0
18.735 7111.0
18.7785 7891.0
18.822 8224.0
18.8654 7704.0
18.9089 6564.0
18.9524 5455.0
18.9958 5099.0
19.0393 4478.0
19.0828 3646.0
19.1262 2905.0
19.1697 2638.0
19.2132 2268.0
19.2566 1973.0
19.3001 1943.0
19.3436 2147.0
19.387 2440.0
19.4305 2773.0
19.474 3011.0
19.5174 3092.0
19.5609 3107.0
19.6044 3088.0
19.6478 2568.0
19.6913 2028.0
19.7348 1821.0
19.7782 1701.0
19.8217 1743.0
19.8651 1597.0
19.9086 1494.0
19.9521 1339.0
19.9955 1302.0
20.039 1401.0
20.0825 1337.0
20.1259 1410.0
20.1694 1342.0
20.2129 1415.0
20.2563 1635.0
20.2998 1901.0
20.3433 2411.0
20.3867 3236.0
20.4302 4099.0
20.4737 5001.0
20.5171 5544.0
20.5606 6112.0
20.6041 5914.0
20.6475 4972.0
20.691 3633.0
20.7345 2593.0
20.7779 2463.0
20.8214 2649.0
20.8649 2931.0
20.9083 3025.0
20.9518 2985.0
20.9953 2671.0
21.0387 2107.0
21.0822 1599.0
21.1257 1376.0
21.1691 1276.0
21.2126 1356.0
21.2561 1329.0
21.2995 1392.0
21.343 1676.0
21.3864 1725.0
21.4299 2035.0
21.4734 2730.0
21.5168 3769.0
21.5603 4670.0
21.6038 5644.0
21.6472 6087.0
21.6907 6454.0
21.7342 6161.0
21.7776 4876.0
21.8211 3468.0
21.8646 2863.0
21.908 3529.0
21.9515 4630.0
21.995 6302.0
22.0384 7862.0
22.0819 9406.0
22.1254 10181.0
22.1688 10018.0
22.2123 9127.0
22.2558 7854.0
22.2992 5835.0
22.3427 4050.0
22.3862 3142.0
22.4296 3103.0
22.4731 3881.0
22.5166 4973.0
22.56 7625.0
22.6035 10590.0
22.647 13907.0
22.6904 16653.0
22.7339 18604.0
22.7774 20413.0
22.8208 19588.0
22.8643 15658.0
22.9078 11493.0
22.9512 9101.0
22.9947 7303.0
23.0381 5587.0
23.0816 3945.0
23.1251 3019.0
23.1685 2735.0
23.212 2835.0
23.2555 3322.0
23.2989 3743.0
23.3424 4148.0
23.3859 4361.0
23.4293 4161.0
23.4728 3989.0
23.5163 3363.0
23.5597 3130.0
23.6032 3177.0
23.6467 3410.0
23.6901 3707.0
23.7336 4072.0
23.7771 4060.0
23.8205 3599.0
23.864 3193.0
23.9075 2668.0
23.9509 2168.0
23.9944 1822.0
24.0379 1602.0
24.0813 1544.0
24.1248 1510.0
24.1683 1629.0
24.2117 1835.0
24.2552 2208.0
24.2987 2456.0
24.3421 2683.0
24.3856 3075.0
24.4291 3229.0
24.4725 3469.0
24.516 3601.0
24.5595 4202.0
24.6029 5761.0
24.6464 7116.0
24.6898 8389.0
24.7333 8897.0
24.7768 9038.0
24.8202 7560.0
24.8637 5461.0
24.9072 3253.0
24.9506 2124.0
24.9941 1720.0
25.0376 1711.0
25.081 1777.0
25.1245 2056.0
25.168 2234.0
25.2114 2537.0
25.2549 2755.0
25.2984 2645.0
25.3418 2584.0
25.3853 2325.0
25.4288 2179.0
25.4722 1955.0
25.5157 1734.0
25.5592 1730.0
25.6026 1619.0
25.6461 1767.0
25.6896 1556.0
25.733 1390.0
25.7765 1272.0
25.82 1249.0
25.8634 1303.0
25.9069 1270.0
25.9504 1246.0
25.9938 1221.0
26.0373 1337.0
26.0808 1290.0
26.1242 1278.0
26.1677 1412.0
26.2111 1515.0
26.2546 1611.0
26.2981 1670.0
26.3415 1863.0
26.385 1972.0
26.4285 2162.0
26.4719 2243.0
26.5154 2266.0
26.5589 2251.0
26.6023 2198.0
26.6458 2016.0
26.6893 1918.0
26.7327 1758.0
26.7762 1591.0
26.8197 1592.0
26.8631 1492.0
26.9066 1400.0
26.9501 1498.0
26.9935 1557.0
27.037 1866.0
27.0805 1958.0
27.1239 2057.0
27.1674 2163.0
27.2109 2083.0
27.2543 2063.0
27.2978 2011.0
27.3413 2162.0
27.3847 2480.0
27.4282 2889.0
27.4717 3418.0
27.5151 4325.0
27.5586 5810.0
27.6021 7311.0
27.6455 8492.0
27.689 9248.0
27.7325 9760.0
27.7759 8889.0
27.8194 6935.0
27.8628 4790.0
27.9063 2884.0
27.9498 2007.0
27.9932 1542.0
28.0367 1457.0
28.0802 1382.0
28.1236 1429.0
28.1671 1433.0
28.2106 1413.0
28.254 1346.0
28.2975 1399.0
28.341 1451.0
28.3844 1509.0
28.4279 1467.0
28.4714 1516.0
28.5148 1561.0
28.5583 1674.0
28.6018 1568.0
28.6452 1657.0
28.6887 1657.0
28.7322 1800.0
28.7756 1669.0
28.8191 1580.0
28.8626 1584.0
28.906 1787.0
28.9495 2045.0
28.993 2372.0
29.0364 2698.0
29.0799 2854.0
29.1234 2848.0
29.1668 2423.0
29.2103 2081.0
29.2538 1655.0
29.2972 1433.0
29.3407 1277.0
29.3841 1344.0
29.4276 1381.0
29.4711 1373.0
29.5145 1299.0
29.558 1278.0
29.6015 1263.0
29.6449 1159.0
29.6884 1137.0
29.7319 990.0
29.7753 940.0
29.8188 869.0
29.8623 975.0
29.9057 896.0
29.9492 900.0
29.9927 877.0
30.0361 849.0
30.0796 894.0
30.1231 879.0
30.1665 893.0
30.21 929.0
30.2535 1042.0
30.2969 1038.0
30.3404 1092.0
30.3839 1131.0
30.4273 1119.0
30.4708 1054.0
30.5143 1162.0
30.5577 1105.0
30.6012 1149.0
30.6447 1112.0
30.6881 1070.0
30.7316 1094.0
30.7751 1136.0
30.8185 1002.0
30.862 1075.0
30.9055 1034.0
30.9489 1037.0
30.9924 1155.0
31.0358 1229.0
31.0793 1418.0
31.1228 1459.0
31.1662 1482.0
31.2097 1576.0
31.2532 1459.0
31.2966 1389.0
31.3401 1252.0
31.3836 1263.0
31.427 1291.0
31.4705 1267.0
31.514 1166.0
31.5574 1274.0
31.6009 1238.0
31.6444 1186.0
31.6878 1127.0
31.7313 1053.0
31.7748 1079.0
31.8182 1119.0
31.8617 1125.0
31.9052 1179.0
31.9486 1257.0
31.9921 1335.0
32.0356 1483.0
32.079 1506.0
32.1225 1600.0
32.166 1582.0
32.2094 1621.0
32.2529 1577.0
32.2964 1314.0
32.3398 1279.0
32.3833 1285.0
32.4268 1334.0
32.4702 1482.0
32.5137 1628.0
32.5572 1578.0
32.6006 1585.0
32.6441 1481.0
32.6875 1308.0
32.731 1175.0
32.7745 1133.0
32.8179 1080.0
32.8614 1037.0
32.9049 1034.0
32.9483 1081.0
32.9918 1048.0
33.0353 971.0
33.0787 1058.0
33.1222 1027.0
33.1657 1142.0
33.2091 1078.0
33.2526 1167.0
33.2961 1265.0
33.3395 1224.0
33.383 1189.0
33.4265 1080.0
33.4699 1073.0
33.5134 954.0
33.5569 971.0
33.6003 943.0
33.6438 947.0
33.6873 1005.0
33.7307 958.0
33.7742 1029.0
33.8177 1053.0
33.8611 1229.0
33.9046 1271.0
33.9481 1338.0
33.9915 1431.0
34.035 1431.0
34.0785 1436.0
34.1219 1322.0
34.1654 1161.0
34.2088 1077.0
34.2523 1033.0
34.2958 1020.0
34.3392 1026.0
34.3827 1029.0
34.4262 1035.0
34.4696 1127.0
34.5131 1122.0
34.5566 1108.0
34.6 1181.0
34.6435 1210.0
34.687 1302.0
34.7304 1311.0
34.7739 1253.0
34.8174 1244.0
34.8608 1157.0
34.9043 1152.0
34.9478 1099.0
34.9912 1105.0
35.0347 1106.0
35.0782 1093.0
35.1216 1127.0
35.1651 1121.0
35.2086 1139.0
35.252 1150.0
35.2955 1201.0
35.339 1111.0
35.3824 1042.0
35.4259 1081.0
35.4694 1041.0
35.5128 1101.0
35.5563 1113.0
35.5998 1105.0
35.6432 1186.0
35.6867 1143.0
35.7302 1223.0
35.7736 1272.0
35.8171 1301.0
35.8605 1351.0
35.904 1447.0
35.9475 1485.0
35.9909 1340.0
36.0344 1296.0
36.0779 1054.0
36.1213 965.0
36.1648 933.0
36.2083 890.0
36.2517 850.0
36.2952 885.0
36.3387 931.0
36.3821 979.0
36.4256 1017.0
36.4691 1024.0
36.5125 1152.0
36.556 1205.0
36.5995 1160.0
36.6429 1111.0
36.6864 1113.0
36.7299 1120.0
36.7733 1057.0
36.8168 1059.0
36.8603 1184.0
36.9037 1093.0
36.9472 1166.0
36.9907 1188.0
37.0341 1121.0
37.0776 1099.0
37.1211 1021.0
37.1645 966.0
37.208 865.0
37.2515 865.0
37.2949 845.0
37.3384 836.0
37.3818 800.0
37.4253 814.0
37.4688 817.0
37.5122 814.0
37.5557 821.0
37.5992 817.0
37.6426 881.0
37.6861 911.0
37.7296 925.0
37.773 917.0
37.8165 921.0
37.86 967.0
37.9034 923.0
37.9469 901.0
37.9904 860.0
38.0338 925.0
38.0773 862.0
38.1208 901.0
38.1642 868.0
38.2077 897.0
38.2512 872.0
38.2946 869.0
38.3381 820.0
38.3816 752.0
38.425 796.0
38.4685 749.0
38.512 767.0
38.5554 783.0
38.5989 743.0
38.6424 815.0
38.6858 820.0
38.7293 814.0
38.7728 847.0
38.8162 908.0
38.8597 961.0
38.9032 960.0
38.9466 975.0
38.9901 963.0
39.0335 998.0
39.077 997.0
39.1205 1056.0
39.1639 1105.0
39.2074 1201.0
39.2509 1175.0
39.2943 1174.0
39.3378 1202.0
39.3813 1192.0
39.4247 1121.0
39.4682 1060.0
39.5117 1007.0
39.5551 940.0
39.5986 899.0
39.6421 997.0
39.6855 945.0
39.729 996.0
39.7725 1138.0
39.8159 1285.0
39.8594 1426.0
39.9029 1494.0
39.9463 1641.0
39.9898 1659.0
40.0333 1381.0
40.0767 1306.0
40.1202 1127.0
40.1637 1008.0
40.2071 920.0
40.2506 910.0
40.2941 942.0
40.3375 976.0
40.381 914.0
40.4245 974.0
40.4679 1018.0
40.5114 1041.0
40.5548 989.0
40.5983 1048.0
40.6418 1030.0
40.6852 1100.0
40.7287 1075.0
40.7722 1165.0
40.8156 1092.0
40.8591 1065.0
40.9026 1053.0
40.946 990.0
40.9895 903.0
41.033 900.0
41.0764 877.0
41.1199 910.0
41.1634 981.0
41.2068 1054.0
41.2503 981.0
41.2938 894.0
41.3372 871.0
41.3807 870.0
41.4242 773.0
41.4676 713.0
41.5111 757.0
41.5546 785.0
41.598 744.0
41.6415 781.0
41.685 786.0
41.7284 810.0
41.7719 848.0
41.8154 832.0
41.8588 889.0
41.9023 823.0
41.9458 790.0
41.9892 796.0
42.0327 721.0
42.0762 707.0
42.1196 733.0
42.1631 693.0
42.2065 766.0
42.25 739.0
42.2935 757.0
42.3369 794.0
42.3804 843.0
42.4239 866.0
42.4673 918.0
42.5108 976.0
42.5543 980.0
42.5977 1054.0
42.6412 1033.0
42.6847 945.0
42.7281 899.0
42.7716 901.0
42.8151 848.0
42.8585 809.0
42.902 817.0
42.9455 771.0
42.9889 821.0
43.0324 890.0
43.0759 905.0
43.1193 968.0
43.1628 970.0
43.2063 987.0
43.2497 920.0
43.2932 952.0
43.3367 899.0
43.3801 834.0
43.4236 806.0
43.4671 753.0
43.5105 780.0
43.554 812.0
43.5975 729.0
43.6409 683.0
43.6844 690.0
43.7279 622.0
43.7713 672.0
43.8148 629.0
43.8582 666.0
43.9017 655.0
43.9452 647.0
43.9886 612.0
44.0321 634.0
44.0756 627.0
44.119 615.0
44.1625 672.0
44.206 682.0
44.2494 666.0
44.2929 672.0
44.3364 645.0
44.3798 669.0
44.4233 667.0
44.4668 717.0
44.5102 612.0
44.5537 649.0
44.5972 616.0
44.6406 653.0
44.6841 673.0
44.7276 651.0
44.771 689.0
44.8145 657.0
44.858 695.0
44.9014 708.0
44.9449 777.0
44.9884 826.0
45.0318 828.0
45.0753 886.0
45.1188 885.0
45.1622 911.0
45.2057 837.0
45.2492 863.0
45.2926 813.0
45.3361 755.0
45.3795 743.0
45.423 809.0
45.4665 848.0
45.5099 687.0
45.5534 849.0
45.5969 772.0
45.6403 831.0
45.6838 802.0
45.7273 834.0
45.7707 831.0
45.8142 789.0
45.8577 938.0
45.9011 937.0
45.9446 958.0
45.9881 1065.0
46.0315 1138.0
46.075 1052.0
46.1185 1024.0
46.1619 1010.0
46.2054 981.0
46.2489 929.0
46.2923 843.0
46.3358 801.0
46.3793 779.0
46.4227 761.0
46.4662 733.0
46.5097 755.0
46.5531 745.0
46.5966 771.0
46.6401 717.0
46.6835 817.0
46.727 869.0
46.7705 864.0
46.8139 902.0
46.8574 951.0
46.9009 886.0
46.9443 845.0
46.9878 785.0
47.0312 660.0
47.0747 688.0
47.1182 673.0
47.1616 724.0
47.2051 615.0
47.2486 645.0
47.292 624.0
47.3355 635.0
47.379 686.0
47.4224 692.0
47.4659 768.0
47.5094 794.0
47.5528 761.0
47.5963 782.0
47.6398 690.0
47.6832 717.0
47.7267 693.0
47.7702 755.0
47.8136 705.0
47.8571 710.0
47.9006 731.0
47.944 759.0
47.9875 737.0
48.031 747.0
48.0744 729.0
48.1179 706.0
48.1614 758.0
48.2048 728.0
48.2483 701.0
48.2918 741.0
48.3352 748.0
48.3787 721.0
48.4222 701.0
48.4656 685.0
48.5091 668.0
48.5525 646.0
48.596 613.0
48.6395 602.0
48.6829 627.0
48.7264 612.0
48.7699 632.0
48.8133 653.0
48.8568 560.0
48.9003 626.0
48.9437 629.0
48.9872 654.0
49.0307 664.0
49.0741 670.0
49.1176 698.0
49.1611 687.0
49.2045 648.0
49.248 705.0
49.2915 691.0
49.3349 638.0
49.3784 651.0
49.4219 638.0
49.4653 616.0
49.5088 626.0
49.5523 630.0
49.5957 615.0
49.6392 641.0
49.6827 627.0
49.7261 571.0
49.7696 590.0
49.8131 566.0
49.8565 573.0
49.9 614.0
49.9435 620.0
49.9869 608.0
50.0304 648.0
50.0739 642.0
50.1173 659.0
50.1608 636.0
50.2042 650.0
50.2477 556.0
50.2912 584.0
50.3346 633.0
50.3781 603.0
50.4216 621.0
50.465 563.0
50.5085 649.0
50.552 600.0
50.5954 592.0
50.6389 593.0
50.6824 595.0
50.7258 651.0
50.7693 622.0
50.8128 623.0
50.8562 585.0
50.8997 627.0
50.9432 582.0
50.9866 541.0
51.0301 610.0
51.0736 614.0
51.117 624.0
51.1605 626.0
51.204 541.0
51.2474 569.0
51.2909 609.0
51.3344 560.0
51.3778 552.0
51.4213 541.0
51.4648 551.0
51.5082 603.0
51.5517 652.0
51.5952 658.0
51.6386 608.0
51.6821 625.0
51.7256 647.0
51.769 642.0
51.8125 609.0
51.8559 587.0
51.8994 582.0
51.9429 582.0
51.9863 587.0
52.0298 614.0
52.0733 577.0
52.1167 625.0
52.1602 590.0
52.2037 600.0
52.2471 569.0
52.2906 595.0
52.3341 612.0
52.3775 569.0
52.421 531.0
52.4645 588.0
52.5079 521.0
52.5514 527.0
52.5949 559.0
52.6383 541.0
52.6818 546.0
52.7253 532.0
52.7687 557.0
52.8122 571.0
52.8557 567.0
52.8991 532.0
52.9426 531.0
52.9861 588.0
53.0295 581.0
53.073 535.0
53.1165 529.0
53.1599 523.0
53.2034 529.0
53.2469 463.0
53.2903 488.0
53.3338 563.0
53.3772 536.0
53.4207 583.0
53.4642 545.0
53.5076 546.0
53.5511 593.0
53.5946 573.0
53.638 586.0
53.6815 634.0
53.725 665.0
53.7684 641.0
53.8119 639.0
53.8554 653.0
53.8988 669.0
53.9423 637.0
53.9858 557.0
54.0292 578.0
54.0727 547.0
54.1162 528.0
54.1596 523.0
54.2031 517.0
54.2466 547.0
54.29 508.0
54.3335 519.0
54.377 517.0
54.4204 519.0
54.4639 482.0
54.5074 487.0
54.5508 493.0
54.5943 481.0
54.6378 483.0
54.6812 506.0
54.7247 512.0
54.7682 542.0
54.8116 464.0
54.8551 477.0
54.8986 517.0
54.942 459.0
54.9855 504.0
55.0289 478.0
55.0724 518.0
55.1159 511.0
55.1593 545.0
55.2028 504.0
55.2463 497.0
55.2897 493.0
55.3332 493.0
55.3767 475.0
55.4201 495.0
55.4636 503.0
55.5071 533.0
55.5505 511.0
55.594 479.0
55.6375 521.0
55.6809 484.0
55.7244 501.0
55.7679 536.0
55.8113 499.0
55.8548 539.0
55.8983 551.0
55.9417 527.0
55.9852 505.0
56.0287 521.0
56.0721 537.0
56.1156 476.0
56.1591 498.0
56.2025 493.0
56.246 495.0
56.2895 478.0
56.3329 474.0
56.3764 491.0
56.4199 511.0
56.4633 479.0
56.5068 520.0
56.5502 463.0
56.5937 450.0
56.6372 491.0
56.6806 479.0
56.7241 516.0
56.7676 508.0
56.811 490.0
56.8545 543.0
56.898 518.0
56.9414 503.0
56.9849 482.0
57.0284 481.0
57.0718 500.0
57.1153 503.0
57.1588 501.0
57.2022 537.0
57.2457 498.0
57.2892 522.0
57.3326 498.0
57.3761 496.0
57.4196 521.0
57.463 495.0
57.5065 432.0
57.55 504.0
57.5934 451.0
57.6369 424.0
57.6804 440.0
57.7238 430.0
57.7673 429.0
57.8108 382.0
57.8542 385.0
57.8977 440.0
57.9412 454.0
57.9846 388.0
58.0281 426.0
58.0716 413.0
58.115 396.0
58.1585 417.0
58.2019 462.0
58.2454 453.0
58.2889 437.0
58.3323 409.0
58.3758 414.0
58.4193 446.0
58.4627 413.0
58.5062 413.0
58.5497 429.0
58.5931 401.0
58.6366 452.0
58.6801 440.0
58.7235 457.0
58.767 451.0
58.8105 481.0
58.8539 509.0
58.8974 481.0
58.9409 464.0
58.9843 437.0
59.0278 453.0
59.0713 397.0
59.1147 447.0
59.1582 388.0
59.2017 395.0
59.2451 430.0
59.2886 432.0
59.3321 398.0
59.3755 462.0
59.419 428.0
59.4625 448.0
59.5059 470.0
59.5494 507.0
59.5929 450.0
59.6363 459.0
59.6798 438.0
59.7233 425.0
59.7667 440.0
59.8102 402.0
59.8536 408.0
59.8971 386.0
59.9406 388.0
59.984 392.0
59.9949 445.0