File: XRD/2025_06_07_CeO2_5_90_2min_pXRD.xy
5.00543 93.0
5.07063 112.0
5.13583 101.0
5.20103 97.0
5.26623 96.0
5.33143 117.0
5.39663 96.0
5.46182 82.0
5.52702 69.0
5.59222 80.0
5.65742 67.0
5.72262 63.0
5.78782 55.0
5.85302 59.0
5.91821 47.0
5.98341 58.0
6.04861 34.0
6.11381 62.0
6.17901 46.0
6.24421 39.0
6.30941 40.0
6.3746 39.0
6.4398 40.0
6.505 32.0
6.5702 23.0
6.6354 34.0
6.7006 39.0
6.7658 48.0
6.831 36.0
6.89619 27.0
6.96139 21.0
7.02659 22.0
7.09179 32.0
7.15699 21.0
7.22219 14.0
7.28739 29.0
7.35258 21.0
7.41778 19.0
7.48298 22.0
7.54818 16.0
7.61338 16.0
7.67858 25.0
7.74378 20.0
7.80897 27.0
7.87417 26.0
7.93937 21.0
8.00457 11.0
8.06977 22.0
8.13497 18.0
8.20017 13.0
8.26537 28.0
8.33056 21.0
8.39576 14.0
8.46096 11.0
8.52616 12.0
8.59136 13.0
8.65656 18.0
8.72176 16.0
8.78695 22.0
8.85215 21.0
8.91735 16.0
8.98255 17.0
9.04775 16.0
9.11295 9.0
9.17815 13.0
9.24334 13.0
9.30854 17.0
9.37374 21.0
9.43894 19.0
9.50414 14.0
9.56934 9.0
9.63454 15.0
9.69974 18.0
9.76493 16.0
9.83013 21.0
9.89533 12.0
9.96053 21.0
10.0257 13.0
10.0909 20.0
10.1561 18.0
10.2213 14.0
10.2865 14.0
10.3517 12.0
10.4169 18.0
10.4821 16.0
10.5473 12.0
10.6125 16.0
10.6777 13.0
10.7429 15.0
10.8081 12.0
10.8733 13.0
10.9385 18.0
11.0037 18.0
11.0689 9.0
11.1341 20.0
11.1993 11.0
11.2645 26.0
11.3297 18.0
11.3949 12.0
11.4601 17.0
11.5253 20.0
11.5905 17.0
11.6557 11.0
11.7209 21.0
11.7861 16.0
11.8513 24.0
11.9165 9.0
11.9817 18.0
12.0469 19.0
12.1121 11.0
12.1773 25.0
12.2425 18.0
12.3077 16.0
12.3729 17.0
12.4381 13.0
12.5033 17.0
12.5685 19.0
12.6337 13.0
12.6989 22.0
12.7641 18.0
12.8293 15.0
12.8945 21.0
12.9597 14.0
13.0249 12.0
13.0901 15.0
13.1553 15.0
13.2205 16.0
13.2857 20.0
13.3509 25.0
13.4161 19.0
13.4813 13.0
13.5465 22.0
13.6117 26.0
13.6769 12.0
13.7421 17.0
13.8072 13.0
13.8724 25.0
13.9376 22.0
14.0028 18.0
14.068 13.0
14.1332 22.0
14.1984 19.0
14.2636 16.0
14.3288 11.0
14.394 16.0
14.4592 31.0
14.5244 20.0
14.5896 13.0
14.6548 16.0
14.72 22.0
14.7852 17.0
14.8504 9.0
14.9156 17.0
14.9808 15.0
15.046 17.0
15.1112 16.0
15.1764 15.0
15.2416 8.0
15.3068 16.0
15.372 23.0
15.4372 12.0
15.5024 9.0
15.5676 14.0
15.6328 11.0
15.698 13.0
15.7632 17.0
15.8284 14.0
15.8936 9.0
15.9588 11.0
16.024 13.0
16.0892 11.0
16.1544 12.0
16.2196 14.0
16.2848 22.0
16.35 16.0
16.4152 13.0
16.4804 16.0
16.5456 26.0
16.6108 8.0
16.676 10.0
16.7412 16.0
16.8064 11.0
16.8716 8.0
16.9368 13.0
17.002 16.0
17.0672 16.0
17.1324 18.0
17.1976 14.0
17.2628 22.0
17.328 17.0
17.3932 13.0
17.4584 13.0
17.5236 12.0
17.5888 15.0
17.654 17.0
17.7192 11.0
17.7844 8.0
17.8496 12.0
17.9148 12.0
17.98 11.0
18.0452 15.0
18.1104 16.0
18.1756 13.0
18.2408 13.0
18.306 14.0
18.3712 10.0
18.4364 16.0
18.5016 14.0
18.5668 11.0
18.6319 15.0
18.6971 17.0
18.7623 16.0
18.8275 20.0
18.8927 15.0
18.9579 17.0
19.0231 10.0
19.0883 13.0
19.1535 9.0
19.2187 14.0
19.2839 18.0
19.3491 11.0
19.4143 11.0
19.4795 10.0
19.5447 12.0
19.6099 12.0
19.6751 6.0
19.7403 20.0
19.8055 15.0
19.8707 11.0
19.9359 13.0
20.0011 12.0
20.0663 16.0
20.1315 14.0
20.1967 11.0
20.2619 16.0
20.3271 15.0
20.3923 17.0
20.4575 11.0
20.5227 13.0
20.5879 10.0
20.6531 18.0
20.7183 17.0
20.7835 24.0
20.8487 22.0
20.9139 12.0
20.9791 12.0
21.0443 11.0
21.1095 14.0
21.1747 16.0
21.2399 10.0
21.3051 10.0
21.3703 10.0
21.4355 8.0
21.5007 13.0
21.5659 8.0
21.6311 9.0
21.6963 12.0
21.7615 15.0
21.8267 13.0
21.8919 8.0
21.9571 11.0
22.0223 9.0
22.0875 12.0
22.1527 10.0
22.2179 13.0
22.2831 19.0
22.3483 13.0
22.4135 15.0
22.4787 14.0
22.5439 11.0
22.6091 8.0
22.6743 16.0
22.7395 11.0
22.8047 17.0
22.8699 17.0
22.9351 6.0
23.0003 10.0
23.0655 14.0
23.1307 12.0
23.1959 20.0
23.2611 14.0
23.3263 20.0
23.3914 8.0
23.4566 15.0
23.5218 11.0
23.587 8.0
23.6522 11.0
23.7174 11.0
23.7826 15.0
23.8478 13.0
23.913 17.0
23.9782 14.0
24.0434 12.0
24.1086 10.0
24.1738 14.0
24.239 15.0
24.3042 12.0
24.3694 12.0
24.4346 16.0
24.4998 15.0
24.565 10.0
24.6302 17.0
24.6954 13.0
24.7606 17.0
24.8258 8.0
24.891 10.0
24.9562 11.0
25.0214 7.0
25.0866 12.0
25.1518 6.0
25.217 11.0
25.2822 12.0
25.3474 11.0
25.4126 13.0
25.4778 11.0
25.543 9.0
25.6082 12.0
25.6734 16.0
25.7386 9.0
25.8038 12.0
25.869 4.0
25.9342 11.0
25.9994 9.0
26.0646 12.0
26.1298 16.0
26.195 12.0
26.2602 16.0
26.3254 12.0
26.3906 20.0
26.4558 7.0
26.521 12.0
26.5862 9.0
26.6514 10.0
26.7166 11.0
26.7818 12.0
26.847 14.0
26.9122 10.0
26.9774 15.0
27.0426 16.0
27.1078 13.0
27.173 13.0
27.2382 6.0
27.3034 11.0
27.3686 16.0
27.4338 15.0
27.499 12.0
27.5642 11.0
27.6294 15.0
27.6946 17.0
27.7598 9.0
27.825 20.0
27.8902 25.0
27.9554 22.0
28.0206 23.0
28.0858 26.0
28.151 26.0
28.2161 31.0
28.2813 46.0
28.3465 52.0
28.4117 146.0
28.4769 357.0
28.5421 693.0
28.6073 815.0
28.6725 447.0
28.7377 157.0
28.8029 41.0
28.8681 38.0
28.9333 34.0
28.9985 21.0
29.0637 26.0
29.1289 25.0
29.1941 16.0
29.2593 13.0
29.3245 13.0
29.3897 19.0
29.4549 11.0
29.5201 9.0
29.5853 15.0
29.6505 23.0
29.7157 14.0
29.7809 14.0
29.8461 17.0
29.9113 14.0
29.9765 18.0
30.0417 8.0
30.1069 6.0
30.1721 12.0
30.2373 11.0
30.3025 15.0
30.3677 15.0
30.4329 14.0
30.4981 11.0
30.5633 11.0
30.6285 15.0
30.6937 8.0
30.7589 11.0
30.8241 7.0
30.8893 10.0
30.9545 14.0
31.0197 16.0
31.0849 12.0
31.1501 9.0
31.2153 15.0
31.2805 9.0
31.3457 7.0
31.4109 13.0
31.4761 7.0
31.5413 17.0
31.6065 17.0
31.6717 9.0
31.7369 12.0
31.8021 7.0
31.8673 14.0
31.9325 10.0
31.9977 6.0
32.0629 8.0
32.1281 7.0
32.1933 7.0
32.2585 7.0
32.3237 10.0
32.3889 13.0
32.4541 6.0
32.5193 13.0
32.5845 11.0
32.6497 8.0
32.7149 17.0
32.7801 17.0
32.8453 16.0
32.9105 24.0
32.9756 51.0
33.0408 148.0
33.106 219.0
33.1712 191.0
33.2364 88.0
33.3016 39.0
33.3668 16.0
33.432 16.0
33.4972 15.0
33.5624 11.0
33.6276 10.0
33.6928 16.0
33.758 10.0
33.8232 16.0
33.8884 15.0
33.9536 13.0
34.0188 11.0
34.084 15.0
34.1492 15.0
34.2144 13.0
34.2796 12.0
34.3448 7.0
34.41 13.0
34.4752 9.0
34.5404 7.0
34.6056 9.0
34.6708 13.0
34.736 12.0
34.8012 10.0
34.8664 13.0
34.9316 12.0
34.9968 10.0
35.062 8.0
35.1272 9.0
35.1924 8.0
35.2576 12.0
35.3228 12.0
35.388 5.0
35.4532 8.0
35.5184 7.0
35.5836 9.0
35.6488 20.0
35.714 13.0
35.7792 8.0
35.8444 5.0
35.9096 9.0
35.9748 10.0
36.04 9.0
36.1052 9.0
36.1704 10.0
36.2356 10.0
36.3008 8.0
36.366 11.0
36.4312 8.0
36.4964 8.0
36.5616 10.0
36.6268 14.0
36.692 8.0
36.7572 11.0
36.8224 11.0
36.8876 10.0
36.9528 12.0
37.018 12.0
37.0832 9.0
37.1484 13.0
37.2136 20.0
37.2788 8.0
37.344 9.0
37.4092 12.0
37.4744 7.0
37.5396 4.0
37.6048 11.0
37.67 8.0
37.7352 11.0
37.8003 7.0
37.8655 12.0
37.9307 8.0
37.9959 14.0
38.0611 8.0
38.1263 7.0
38.1915 13.0
38.2567 9.0
38.3219 8.0
38.3871 4.0
38.4523 11.0
38.5175 8.0
38.5827 11.0
38.6479 8.0
38.7131 10.0
38.7783 20.0
38.8435 6.0
38.9087 15.0
38.9739 10.0
39.0391 11.0
39.1043 10.0
39.1695 10.0
39.2347 9.0
39.2999 4.0
39.3651 11.0
39.4303 14.0
39.4955 10.0
39.5607 4.0
39.6259 15.0
39.6911 9.0
39.7563 12.0
39.8215 6.0
39.8867 5.0
39.9519 4.0
40.0171 6.0
40.0823 11.0
40.1475 11.0
40.2127 4.0
40.2779 3.0
40.3431 9.0
40.4083 8.0
40.4735 8.0
40.5387 12.0
40.6039 8.0
40.6691 6.0
40.7343 9.0
40.7995 12.0
40.8647 8.0
40.9299 3.0
40.9951 6.0
41.0603 5.0
41.1255 6.0
41.1907 4.0
41.2559 10.0
41.3211 1.0
41.3863 11.0
41.4515 6.0
41.5167 12.0
41.5819 11.0
41.6471 7.0
41.7123 7.0
41.7775 12.0
41.8427 4.0
41.9079 13.0
41.9731 16.0
42.0383 6.0
42.1035 12.0
42.1687 9.0
42.2339 10.0
42.2991 10.0
42.3643 6.0
42.4295 4.0
42.4947 6.0
42.5598 10.0
42.625 8.0
42.6902 6.0
42.7554 6.0
42.8206 6.0
42.8858 6.0
42.951 13.0
43.0162 6.0
43.0814 5.0
43.1466 2.0
43.2118 6.0
43.277 5.0
43.3422 5.0
43.4074 9.0
43.4726 10.0
43.5378 9.0
43.603 10.0
43.6682 8.0
43.7334 10.0
43.7986 8.0
43.8638 8.0
43.929 7.0
43.9942 12.0
44.0594 10.0
44.1246 6.0
44.1898 5.0
44.255 9.0
44.3202 10.0
44.3854 4.0
44.4506 5.0
44.5158 17.0
44.581 12.0
44.6462 9.0
44.7114 6.0
44.7766 7.0
44.8418 10.0
44.907 9.0
44.9722 8.0
45.0374 13.0
45.1026 13.0
45.1678 7.0
45.233 8.0
45.2982 4.0
45.3634 4.0
45.4286 10.0
45.4938 10.0
45.559 10.0
45.6242 10.0
45.6894 8.0
45.7546 9.0
45.8198 6.0
45.885 9.0
45.9502 9.0
46.0154 12.0
46.0806 8.0
46.1458 9.0
46.211 16.0
46.2762 10.0
46.3414 8.0
46.4066 16.0
46.4718 11.0
46.537 5.0
46.6022 14.0
46.6674 6.0
46.7326 10.0
46.7978 12.0
46.863 14.0
46.9282 16.0
46.9934 12.0
47.0586 14.0
47.1238 16.0
47.189 20.0
47.2542 19.0
47.3194 50.0
47.3845 77.0
47.4497 278.0
47.5149 358.0
47.5801 303.0
47.6453 234.0
47.7105 120.0
47.7757 37.0
47.8409 35.0
47.9061 17.0
47.9713 16.0
48.0365 12.0
48.1017 15.0
48.1669 13.0
48.2321 6.0
48.2973 11.0
48.3625 9.0
48.4277 11.0
48.4929 11.0
48.5581 0.0
48.6233 10.0
48.6885 6.0
48.7537 13.0
48.8189 8.0
48.8841 9.0
48.9493 7.0
49.0145 9.0
49.0797 9.0
49.1449 9.0
49.2101 7.0
49.2753 6.0
49.3405 6.0
49.4057 13.0
49.4709 8.0
49.5361 14.0
49.6013 9.0
49.6665 7.0
49.7317 8.0
49.7969 11.0
49.8621 6.0
49.9273 14.0
49.9925 16.0
50.0577 9.0
50.1229 5.0
50.1881 9.0
50.2533 8.0
50.3185 14.0
50.3837 12.0
50.4489 7.0
50.5141 6.0
50.5793 8.0
50.6445 5.0
50.7097 10.0
50.7749 9.0
50.8401 12.0
50.9053 14.0
50.9705 11.0
51.0357 5.0
51.1009 15.0
51.1661 7.0
51.2313 8.0
51.2965 9.0
51.3617 7.0
51.4269 5.0
51.4921 13.0
51.5573 9.0
51.6225 6.0
51.6877 8.0
51.7529 6.0
51.8181 3.0
51.8833 11.0
51.9485 6.0
52.0137 11.0
52.0789 5.0
52.144 11.0
52.2092 7.0
52.2744 4.0
52.3396 5.0
52.4048 8.0
52.47 8.0
52.5352 7.0
52.6004 11.0
52.6656 11.0
52.7308 11.0
52.796 11.0
52.8612 10.0
52.9264 9.0
52.9916 1.0
53.0568 10.0
53.122 3.0
53.1872 9.0
53.2524 4.0
53.3176 5.0
53.3828 11.0
53.448 5.0
53.5132 15.0
53.5784 9.0
53.6436 9.0
53.7088 11.0
53.774 5.0
53.8392 3.0
53.9044 6.0
53.9696 3.0
54.0348 6.0
54.1 7.0
54.1652 9.0
54.2304 11.0
54.2956 6.0
54.3608 7.0
54.426 9.0
54.4912 10.0
54.5564 8.0
54.6216 6.0
54.6868 4.0
54.752 10.0
54.8172 6.0
54.8824 12.0
54.9476 14.0
55.0128 15.0
55.078 12.0
55.1432 5.0
55.2084 7.0
55.2736 6.0
55.3388 6.0
55.404 5.0
55.4692 6.0
55.5344 8.0
55.5996 14.0
55.6648 17.0
55.73 6.0
55.7952 9.0
55.8604 12.0
55.9256 6.0
55.9908 15.0
56.056 23.0
56.1212 30.0
56.1864 46.0
56.2516 75.0
56.3168 228.0
56.382 313.0
56.4472 195.0
56.5124 187.0
56.5776 120.0
56.6428 33.0
56.708 29.0
56.7732 17.0
56.8384 13.0
56.9036 6.0
56.9687 11.0
57.0339 8.0
57.0991 17.0
57.1643 8.0
57.2295 10.0
57.2947 7.0
57.3599 9.0
57.4251 3.0
57.4903 3.0
57.5555 10.0
57.6207 9.0
57.6859 13.0
57.7511 9.0
57.8163 6.0
57.8815 10.0
57.9467 10.0
58.0119 6.0
58.0771 10.0
58.1423 2.0
58.2075 7.0
58.2727 12.0
58.3379 3.0
58.4031 13.0
58.4683 11.0
58.5335 7.0
58.5987 9.0
58.6639 5.0
58.7291 10.0
58.7943 5.0
58.8595 11.0
58.9247 19.0
58.9899 21.0
59.0551 43.0
59.1203 62.0
59.1855 32.0
59.2507 31.0
59.3159 39.0
59.3811 13.0
59.4463 14.0
59.5115 7.0
59.5767 6.0
59.6419 11.0
59.7071 8.0
59.7723 9.0
59.8375 6.0
59.9027 6.0
59.9679 4.0
60.0331 9.0
60.0983 3.0
60.1635 5.0
60.2287 9.0
60.2939 5.0
60.3591 8.0
60.4243 7.0
60.4895 4.0
60.5547 8.0
60.6199 5.0
60.6851 5.0
60.7503 9.0
60.8155 5.0
60.8807 11.0
60.9459 8.0
61.0111 9.0
61.0763 5.0
61.1415 8.0
61.2067 1.0
61.2719 14.0
61.3371 12.0
61.4023 5.0
61.4675 11.0
61.5327 11.0
61.5979 11.0
61.6631 7.0
61.7283 4.0
61.7934 4.0
61.8586 4.0
61.9238 7.0
61.989 5.0
62.0542 10.0
62.1194 7.0
62.1846 4.0
62.2498 4.0
62.315 8.0
62.3802 9.0
62.4454 3.0
62.5106 4.0
62.5758 8.0
62.641 10.0
62.7062 5.0
62.7714 2.0
62.8366 11.0
62.9018 7.0
62.967 6.0
63.0322 5.0
63.0974 4.0
63.1626 12.0
63.2278 2.0
63.293 10.0
63.3582 9.0
63.4234 8.0
63.4886 7.0
63.5538 10.0
63.619 9.0
63.6842 8.0
63.7494 9.0
63.8146 8.0
63.8798 3.0
63.945 11.0
64.0102 8.0
64.0754 11.0
64.1406 7.0
64.2058 6.0
64.271 13.0
64.3362 8.0
64.4014 8.0
64.4666 8.0
64.5318 9.0
64.597 5.0
64.6622 3.0
64.7274 7.0
64.7926 6.0
64.8578 4.0
64.923 6.0
64.9882 7.0
65.0534 10.0
65.1186 4.0
65.1838 8.0
65.249 10.0
65.3142 9.0
65.3794 1.0
65.4446 12.0
65.5098 7.0
65.575 4.0
65.6402 4.0
65.7054 5.0
65.7706 2.0
65.8358 8.0
65.901 4.0
65.9662 7.0
66.0314 1.0
66.0966 13.0
66.1618 2.0
66.227 7.0
66.2922 5.0
66.3574 9.0
66.4226 9.0
66.4878 6.0
66.5529 1.0
66.6181 4.0
66.6833 12.0
66.7485 12.0
66.8137 7.0
66.8789 6.0
66.9441 5.0
67.0093 7.0
67.0745 8.0
67.1397 6.0
67.2049 4.0
67.2701 7.0
67.3353 5.0
67.4005 9.0
67.4657 3.0
67.5309 8.0
67.5961 7.0
67.6613 6.0
67.7265 6.0
67.7917 9.0
67.8569 5.0
67.9221 3.0
67.9873 7.0
68.0525 13.0
68.1177 11.0
68.1829 2.0
68.2481 12.0
68.3133 5.0
68.3785 5.0
68.4437 4.0
68.5089 6.0
68.5741 5.0
68.6393 4.0
68.7045 7.0
68.7697 10.0
68.8349 3.0
68.9001 7.0
68.9653 7.0
69.0305 10.0
69.0957 9.0
69.1609 14.0
69.2261 8.0
69.2913 12.0
69.3565 32.0
69.4217 64.0
69.4869 37.0
69.5521 22.0
69.6173 44.0
69.6825 33.0
69.7477 10.0
69.8129 14.0
69.8781 5.0
69.9433 3.0
70.0085 9.0
70.0737 10.0
70.1389 4.0
70.2041 3.0
70.2693 9.0
70.3345 2.0
70.3997 5.0
70.4649 6.0
70.5301 5.0
70.5953 7.0
70.6605 9.0
70.7257 8.0
70.7909 6.0
70.8561 7.0
70.9213 5.0
70.9865 9.0
71.0517 9.0
71.1169 3.0
71.1821 4.0
71.2473 4.0
71.3125 1.0
71.3776 8.0
71.4428 5.0
71.508 4.0
71.5732 6.0
71.6384 5.0
71.7036 3.0
71.7688 9.0
71.834 6.0
71.8992 10.0
71.9644 8.0
72.0296 8.0
72.0948 4.0
72.16 10.0
72.2252 8.0
72.2904 5.0
72.3556 7.0
72.4208 10.0
72.486 10.0
72.5512 4.0
72.6164 8.0
72.6816 11.0
72.7468 8.0
72.812 8.0
72.8772 3.0
72.9424 6.0
73.0076 2.0
73.0728 11.0
73.138 8.0
73.2032 9.0
73.2684 8.0
73.3336 4.0
73.3988 6.0
73.464 7.0
73.5292 7.0
73.5944 5.0
73.6596 3.0
73.7248 5.0
73.79 10.0
73.8552 4.0
73.9204 4.0
73.9856 7.0
74.0508 10.0
74.116 6.0
74.1812 5.0
74.2464 10.0
74.3116 5.0
74.3768 4.0
74.442 4.0
74.5072 9.0
74.5724 6.0
74.6376 4.0
74.7028 4.0
74.768 6.0
74.8332 6.0
74.8984 5.0
74.9636 6.0
75.0288 12.0
75.094 5.0
75.1592 9.0
75.2244 4.0
75.2896 6.0
75.3548 3.0
75.42 3.0
75.4852 6.0
75.5504 5.0
75.6156 7.0
75.6808 4.0
75.746 8.0
75.8112 6.0
75.8764 6.0
75.9416 6.0
76.0068 4.0
76.072 5.0
76.1371 13.0
76.2023 2.0
76.2675 13.0
76.3327 17.0
76.3979 13.0
76.4631 17.0
76.5283 24.0
76.5935 37.0
76.6587 63.0
76.7239 135.0
76.7891 74.0
76.8543 48.0
76.9195 72.0
76.9847 50.0
77.0499 15.0
77.1151 18.0
77.1803 15.0
77.2455 16.0
77.3107 10.0
77.3759 9.0
77.4411 6.0
77.5063 7.0
77.5715 12.0
77.6367 7.0
77.7019 5.0
77.7671 2.0
77.8323 11.0
77.8975 3.0
77.9627 5.0
78.0279 6.0
78.0931 9.0
78.1583 7.0
78.2235 5.0
78.2887 3.0
78.3539 6.0
78.4191 11.0
78.4843 9.0
78.5495 7.0
78.6147 8.0
78.6799 14.0
78.7451 6.0
78.8103 7.0
78.8755 13.0
78.9407 16.0
79.0059 41.0
79.0711 79.0
79.1363 67.0
79.2015 31.0
79.2667 28.0
79.3319 48.0
79.3971 29.0
79.4623 11.0
79.5275 12.0
79.5927 12.0
79.6579 3.0
79.7231 2.0
79.7883 9.0
79.8535 8.0
79.9187 6.0
79.9839 10.0
80.0491 7.0
80.1143 5.0
80.1795 8.0
80.2447 7.0
80.3099 6.0
80.3751 5.0
80.4403 6.0
80.5055 14.0
80.5707 2.0
80.6359 4.0
80.7011 15.0
80.7663 8.0
80.8315 8.0
80.8967 10.0
80.9618 7.0
81.027 9.0
81.0922 4.0
81.1574 10.0
81.2226 10.0
81.2878 4.0
81.353 4.0
81.4182 7.0
81.4834 14.0
81.5486 7.0
81.6138 5.0
81.679 3.0
81.7442 5.0
81.8094 10.0
81.8746 4.0
81.9398 5.0
82.005 0.0
82.0702 11.0
82.1354 9.0
82.2006 6.0
82.2658 5.0
82.331 9.0
82.3962 6.0
82.4614 5.0
82.5266 5.0
82.5918 7.0
82.657 3.0
82.7222 9.0
82.7874 8.0
82.8526 7.0
82.9178 3.0
82.983 8.0
83.0482 0.0
83.1134 4.0
83.1786 5.0
83.2438 5.0
83.309 4.0
83.3742 3.0
83.4394 5.0
83.5046 3.0
83.5698 5.0
83.635 4.0
83.7002 6.0
83.7654 9.0
83.8306 4.0
83.8958 10.0
83.961 2.0
84.0262 9.0
84.0914 2.0
84.1566 7.0
84.2218 11.0
84.287 7.0
84.3522 7.0
84.4174 3.0
84.4826 8.0
84.5478 7.0
84.613 9.0
84.6782 9.0
84.7434 3.0
84.8086 5.0
84.8738 5.0
84.939 6.0
85.0042 5.0
85.0694 3.0
85.1346 7.0
85.1998 10.0
85.265 5.0
85.3302 4.0
85.3954 9.0
85.4606 7.0
85.5258 3.0
85.591 5.0
85.6562 8.0
85.7213 6.0
85.7865 9.0
85.8517 8.0
85.9169 11.0
85.9821 4.0
86.0473 5.0
86.1125 7.0
86.1777 1.0
86.2429 3.0
86.3081 11.0
86.3733 9.0
86.4385 8.0
86.5037 11.0
86.5689 5.0
86.6341 4.0
86.6993 1.0
86.7645 5.0
86.8297 2.0
86.8949 2.0
86.9601 7.0
87.0253 4.0
87.0905 10.0
87.1557 3.0
87.2209 8.0
87.2861 4.0
87.3513 6.0
87.4165 6.0
87.4817 3.0
87.5469 10.0
87.6121 8.0
87.6773 8.0
87.7425 5.0
87.8077 4.0
87.8729 6.0
87.9381 13.0
88.0033 15.0
88.0685 12.0
88.1337 12.0
88.1989 14.0
88.2641 5.0
88.3293 32.0
88.3945 73.0
88.4597 125.0
88.5249 61.0
88.5901 24.0
88.6553 42.0
88.7205 61.0
88.7857 42.0
88.8509 15.0
88.9161 17.0
88.9813 19.0
89.0465 9.0
89.1117 14.0
89.1769 5.0
89.2421 7.0
89.3073 4.0
89.3725 6.0
89.4377 6.0
89.5029 6.0
89.5681 9.0
89.6333 6.0
89.6985 9.0
89.7637 2.0
89.8289 4.0
89.8941 4.0
89.9593 5.0
89.9919 11.0