File: XRD/2025_06_03_CBD_Sorbic_Acid_Slurry.xy
10.0054 1697.0
10.0598 1770.0
10.1141 1953.0
10.1684 2053.0
10.2228 2258.0
10.2771 2601.0
10.3314 2826.0
10.3858 3153.0
10.4401 3684.0
10.4944 4137.0
10.5488 4265.0
10.6031 4039.0
10.6574 3527.0
10.7118 2914.0
10.7661 2525.0
10.8204 2650.0
10.8747 3086.0
10.9291 3511.0
10.9834 4063.0
11.0377 4750.0
11.0921 5107.0
11.1464 5159.0
11.2007 5478.0
11.2551 6314.0
11.3094 6963.0
11.3637 7629.0
11.4181 7638.0
11.4724 7237.0
11.5267 6859.0
11.5811 6790.0
11.6354 6486.0
11.6897 5512.0
11.7441 4320.0
11.7984 3157.0
11.8527 2465.0
11.9071 2470.0
11.9614 2726.0
12.0157 3144.0
12.0701 3733.0
12.1244 4397.0
12.1787 5040.0
12.2331 5229.0
12.2874 4680.0
12.3417 3737.0
12.3961 3049.0
12.4504 2717.0
12.5047 2630.0
12.559 2632.0
12.6134 2431.0
12.6677 2296.0
12.722 2081.0
12.7764 2054.0
12.8307 2147.0
12.885 2151.0
12.9394 2067.0
12.9937 1996.0
13.048 1817.0
13.1024 1604.0
13.1567 1659.0
13.211 1564.0
13.2654 1562.0
13.3197 1655.0
13.374 1672.0
13.4284 1651.0
13.4827 1743.0
13.537 1739.0
13.5914 1741.0
13.6457 1762.0
13.7 1527.0
13.7544 1537.0
13.8087 1345.0
13.863 1411.0
13.9174 1442.0
13.9717 1412.0
14.026 1479.0
14.0803 1527.0
14.1347 1637.0
14.189 1732.0
14.2433 1800.0
14.2977 1922.0
14.352 2053.0
14.4063 2398.0
14.4607 2783.0
14.515 3118.0
14.5693 3403.0
14.6237 3675.0
14.678 3689.0
14.7323 3453.0
14.7867 2941.0
14.841 2523.0
14.8953 2369.0
14.9497 2560.0
15.004 3109.0
15.0583 3752.0
15.1127 4530.0
15.167 4857.0
15.2213 5193.0
15.2757 5067.0
15.33 4896.0
15.3843 5066.0
15.4387 5910.0
15.493 7755.0
15.5473 10154.0
15.6016 12271.0
15.656 13405.0
15.7103 12999.0
15.7646 10991.0
15.819 8167.0
15.8733 5331.0
15.9276 3734.0
15.982 3458.0
16.0363 3748.0
16.0906 4520.0
16.145 5588.0
16.1993 6411.0
16.2536 6999.0
16.308 7209.0
16.3623 7029.0
16.4166 6404.0
16.471 5803.0
16.5253 5517.0
16.5796 5091.0
16.634 4803.0
16.6883 4117.0
16.7426 3681.0
16.797 3301.0
16.8513 3116.0
16.9056 3247.0
16.96 3478.0
17.0143 4143.0
17.0686 5083.0
17.123 5894.0
17.1773 6911.0
17.2316 7338.0
17.2859 7213.0
17.3403 6817.0
17.3946 5883.0
17.4489 4810.0
17.5033 3640.0
17.5576 2957.0
17.6119 2589.0
17.6663 2402.0
17.7206 2389.0
17.7749 2446.0
17.8293 2422.0
17.8836 2618.0
17.9379 2705.0
17.9923 2797.0
18.0466 2759.0
18.1009 2996.0
18.1553 3589.0
18.2096 4362.0
18.2639 5419.0
18.3183 6701.0
18.3726 8155.0
18.4269 9750.0
18.4813 11360.0
18.5356 13105.0
18.5899 14394.0
18.6443 14136.0
18.6986 12955.0
18.7529 11457.0
18.8072 9221.0
18.8616 7636.0
18.9159 7101.0
18.9702 7381.0
19.0246 8073.0
19.0789 8674.0
19.1332 9099.0
19.1876 9122.0
19.2419 8602.0
19.2962 8149.0
19.3506 7443.0
19.4049 6324.0
19.4592 4975.0
19.5136 3995.0
19.5679 3234.0
19.6222 2980.0
19.6766 2922.0
19.7309 3075.0
19.7852 3326.0
19.8396 3597.0
19.8939 3661.0
19.9482 3684.0
20.0026 3418.0
20.0569 3090.0
20.1112 2936.0
20.1656 3175.0
20.2199 3370.0
20.2742 3777.0
20.3286 4095.0
20.3829 4544.0
20.4372 5711.0
20.4915 7007.0
20.5459 8455.0
20.6002 9214.0
20.6545 10035.0
20.7089 9870.0
20.7632 9392.0
20.8175 9410.0
20.8719 10756.0
20.9262 13077.0
20.9805 15272.0
21.0349 17028.0
21.0892 17216.0
21.1435 15659.0
21.1979 12850.0
21.2522 9459.0
21.3065 6927.0
21.3609 5085.0
21.4152 4087.0
21.4695 3459.0
21.5239 3112.0
21.5782 2856.0
21.6325 2668.0
21.6869 2558.0
21.7412 2477.0
21.7955 2510.0
21.8499 2680.0
21.9042 2873.0
21.9585 3206.0
22.0128 3653.0
22.0672 3966.0
22.1215 4051.0
22.1758 3766.0
22.2302 3609.0
22.2845 3207.0
22.3388 2923.0
22.3932 2691.0
22.4475 2801.0
22.5018 2792.0
22.5562 2796.0
22.6105 2731.0
22.6648 2760.0
22.7192 3111.0
22.7735 3389.0
22.8278 3993.0
22.8822 4233.0
22.9365 4563.0
22.9908 4453.0
23.0452 4109.0
23.0995 3517.0
23.1538 3325.0
23.2082 3289.0
23.2625 3466.0
23.3168 3618.0
23.3712 3837.0
23.4255 3957.0
23.4798 3919.0
23.5342 3869.0
23.5885 3445.0
23.6428 3111.0
23.6971 2659.0
23.7515 2488.0
23.8058 2275.0
23.8601 2197.0
23.9145 2152.0
23.9688 2327.0
24.0231 2644.0
24.0775 3076.0
24.1318 3849.0
24.1861 4579.0
24.2405 5031.0
24.2948 5175.0
24.3491 4985.0
24.4035 4074.0
24.4578 3201.0
24.5121 2818.0
24.5665 2454.0
24.6208 2478.0
24.6751 2156.0
24.7295 1998.0
24.7838 1798.0
24.8381 1699.0
24.8925 1613.0
24.9468 1624.0
25.0011 1596.0
25.0555 1734.0
25.1098 1851.0
25.1641 2006.0
25.2184 2059.0
25.2728 2279.0
25.3271 2152.0
25.3814 2320.0
25.4358 2241.0
25.4901 2216.0
25.5444 2422.0
25.5988 2671.0
25.6531 3029.0
25.7074 3200.0
25.7618 3378.0
25.8161 3489.0
25.8704 3620.0
25.9248 3759.0
25.9791 3606.0
26.0334 3815.0
26.0878 3946.0
26.1421 4084.0
26.1964 4053.0
26.2508 3961.0
26.3051 3877.0
26.3594 3275.0
26.4138 2893.0
26.4681 2489.0
26.5224 2265.0
26.5768 1987.0
26.6311 1648.0
26.6854 1594.0
26.7398 1655.0
26.7941 1615.0
26.8484 1551.0
26.9027 1554.0
26.9571 1575.0
27.0114 1573.0
27.0657 1617.0
27.1201 1700.0
27.1744 1825.0
27.2287 2092.0
27.2831 2239.0
27.3374 2367.0
27.3917 2280.0
27.4461 2212.0
27.5004 2055.0
27.5547 1850.0
27.6091 1799.0
27.6634 1959.0
27.7177 2000.0
27.7721 2173.0
27.8264 2314.0
27.8807 2313.0
27.9351 2311.0
27.9894 2340.0
28.0437 2136.0
28.0981 2306.0
28.1524 2370.0
28.2067 2409.0
28.2611 2465.0
28.3154 2696.0
28.3697 2838.0
28.424 2811.0
28.4784 2700.0
28.5327 2780.0
28.587 2361.0
28.6414 2196.0
28.6957 1994.0
28.75 2139.0
28.8044 2332.0
28.8587 2428.0
28.913 2494.0
28.9674 2470.0
29.0217 2415.0
29.076 2258.0
29.1304 2137.0
29.1847 2107.0
29.239 1974.0
29.2934 1908.0
29.3477 1792.0
29.402 1599.0
29.4564 1434.0
29.5107 1443.0
29.565 1464.0
29.6194 1569.0
29.6737 1551.0
29.728 1726.0
29.7824 1805.0
29.8367 1602.0
29.891 1655.0
29.9454 1648.0
29.9997 1651.0
30.054 1793.0
30.1083 1835.0
30.1627 1867.0
30.217 1780.0
30.2713 1750.0
30.3257 1696.0
30.38 1649.0
30.4343 1651.0
30.4887 1563.0
30.543 1582.0
30.5973 1658.0
30.6517 1728.0
30.706 1832.0
30.7603 1948.0
30.8147 1883.0
30.869 1843.0
30.9233 1794.0
30.9777 1769.0
31.032 1733.0
31.0863 1771.0
31.1407 1909.0
31.195 2085.0
31.2493 2282.0
31.3037 2344.0
31.358 2329.0
31.4123 2124.0
31.4667 2058.0
31.521 1994.0
31.5753 1926.0
31.6296 1818.0
31.684 2069.0
31.7383 2093.0
31.7926 2142.0
31.847 2294.0
31.9013 2287.0
31.9556 2323.0
32.01 2317.0
32.0643 2183.0
32.1186 1962.0
32.173 1778.0
32.2273 1578.0
32.2816 1491.0
32.336 1425.0
32.3903 1335.0
32.4446 1433.0
32.499 1408.0
32.5533 1300.0
32.6076 1349.0
32.662 1386.0
32.7163 1367.0
32.7706 1526.0
32.825 1571.0
32.8793 1721.0
32.9336 1907.0
32.988 1973.0
33.0423 2098.0
33.0966 2148.0
33.151 2014.0
33.2053 1992.0
33.2596 1887.0
33.3139 1829.0
33.3683 1786.0
33.4226 1980.0
33.4769 1996.0
33.5313 1990.0
33.5856 2040.0
33.6399 1872.0
33.6943 1864.0
33.7486 1813.0
33.8029 1721.0
33.8573 1561.0
33.9116 1488.0
33.9659 1425.0
34.0203 1384.0
34.0746 1349.0
34.1289 1300.0
34.1833 1446.0
34.2376 1356.0
34.2919 1443.0
34.3463 1465.0
34.4006 1436.0
34.4549 1264.0
34.5093 1344.0
34.5636 1280.0
34.6179 1332.0
34.6723 1328.0
34.7266 1244.0
34.7809 1230.0
34.8352 1244.0
34.8896 1231.0
34.9439 1243.0
34.9982 1237.0
35.0526 1261.0
35.1069 1264.0
35.1612 1297.0
35.2156 1315.0
35.2699 1397.0
35.3242 1403.0
35.3786 1535.0
35.4329 1542.0
35.4872 1535.0
35.5416 1434.0
35.5959 1433.0
35.6502 1327.0
35.7046 1228.0
35.7589 1211.0
35.8132 1188.0
35.8676 1154.0
35.9219 1174.0
35.9762 1089.0
36.0306 1110.0
36.0849 1116.0
36.1392 1256.0
36.1936 1230.0
36.2479 1278.0
36.3022 1327.0
36.3566 1317.0
36.4109 1404.0
36.4652 1406.0
36.5195 1434.0
36.5739 1515.0
36.6282 1594.0
36.6825 1548.0
36.7369 1555.0
36.7912 1555.0
36.8455 1540.0
36.8999 1563.0
36.9542 1573.0
37.0085 1566.0
37.0629 1559.0
37.1172 1488.0
37.1715 1418.0
37.2259 1384.0
37.2802 1452.0
37.3345 1281.0
37.3889 1339.0
37.4432 1318.0
37.4975 1349.0
37.5519 1389.0
37.6062 1309.0
37.6605 1330.0
37.7149 1335.0
37.7692 1263.0
37.8235 1358.0
37.8779 1345.0
37.9322 1393.0
37.9865 1427.0
38.0408 1568.0
38.0952 1539.0
38.1495 1557.0
38.2038 1627.0
38.2582 1561.0
38.3125 1553.0
38.3668 1440.0
38.4212 1430.0
38.4755 1299.0
38.5298 1367.0
38.5842 1317.0
38.6385 1369.0
38.6928 1404.0
38.7472 1432.0
38.8015 1437.0
38.8558 1440.0
38.9102 1417.0
38.9645 1465.0
39.0188 1503.0
39.0732 1386.0
39.1275 1369.0
39.1818 1378.0
39.2362 1268.0
39.2905 1293.0
39.3448 1251.0
39.3992 1246.0
39.4535 1194.0
39.5078 1252.0
39.5622 1252.0
39.6165 1350.0
39.6708 1183.0
39.7251 1225.0
39.7795 1156.0
39.8338 1154.0
39.8881 1119.0
39.9425 1188.0
39.9968 1179.0
40.0511 1264.0
40.1055 1252.0
40.1598 1263.0
40.2141 1289.0
40.2685 1299.0
40.3228 1192.0
40.3771 1183.0
40.4315 1120.0
40.4858 1088.0
40.5401 1164.0
40.5945 1164.0
40.6488 1053.0
40.7031 1189.0
40.7575 1141.0
40.8118 1071.0
40.8661 1105.0
40.9205 1067.0
40.9748 1071.0
41.0291 1049.0
41.0835 1087.0
41.1378 1078.0
41.1921 1119.0
41.2464 1099.0
41.3008 1180.0
41.3551 1146.0
41.4094 1304.0
41.4638 1278.0
41.5181 1209.0
41.5724 1200.0
41.6268 1306.0
41.6811 1300.0
41.7354 1207.0
41.7898 1229.0
41.8441 1185.0
41.8984 1190.0
41.9528 1128.0
42.0071 1184.0
42.0614 1147.0
42.1158 1146.0
42.1701 1126.0
42.2244 1085.0
42.2788 1063.0
42.3331 1121.0
42.3874 1022.0
42.4418 1057.0
42.4961 1088.0
42.5504 961.0
42.6048 985.0
42.6591 1098.0
42.7134 979.0
42.7677 1102.0
42.8221 1116.0
42.8764 1159.0
42.9307 1122.0
42.9851 1094.0
43.0394 1060.0
43.0937 1070.0
43.1481 1097.0
43.2024 1167.0
43.2567 1135.0
43.3111 1138.0
43.3654 1117.0
43.4197 1160.0
43.4741 1120.0
43.5284 1234.0
43.5827 1157.0
43.6371 1134.0
43.6914 1121.0
43.7457 1046.0
43.8001 1112.0
43.8544 1125.0
43.9087 1100.0
43.9631 1052.0
44.0174 1076.0
44.0717 1033.0
44.1261 1146.0
44.1804 1163.0
44.2347 1164.0
44.2891 1205.0
44.3434 1176.0
44.3977 1111.0
44.452 1039.0
44.5064 1104.0
44.5607 1050.0
44.615 954.0
44.6694 982.0
44.7237 951.0
44.778 991.0
44.8324 836.0
44.8867 910.0
44.941 847.0
44.9954 951.0
45.0497 941.0
45.104 1002.0
45.1584 952.0
45.2127 962.0
45.267 1023.0
45.3214 966.0
45.3757 1014.0
45.43 993.0
45.4844 980.0
45.5387 929.0
45.593 973.0
45.6474 943.0
45.7017 957.0
45.756 932.0
45.8104 894.0
45.8647 869.0
45.919 897.0
45.9733 925.0
46.0277 907.0
46.082 954.0
46.1363 954.0
46.1907 991.0
46.245 980.0
46.2993 991.0
46.3537 1026.0
46.408 1035.0
46.4623 998.0
46.5167 957.0
46.571 1000.0
46.6253 902.0
46.6797 926.0
46.734 950.0
46.7883 982.0
46.8427 896.0
46.897 952.0
46.9513 1074.0
47.0057 1046.0
47.06 1005.0
47.1143 1075.0
47.1687 1121.0
47.223 1070.0
47.2773 1044.0
47.3317 1061.0
47.386 973.0
47.4403 930.0
47.4947 979.0
47.549 973.0
47.6033 934.0
47.6576 887.0
47.712 918.0
47.7663 888.0
47.8206 879.0
47.875 928.0
47.9293 970.0
47.9836 949.0
48.038 912.0
48.0923 921.0
48.1466 936.0
48.201 950.0
48.2553 899.0
48.3096 999.0
48.364 947.0
48.4183 924.0
48.4726 954.0
48.527 929.0
48.5813 1050.0
48.6356 940.0
48.69 988.0
48.7443 898.0
48.7986 877.0
48.853 1003.0
48.9073 910.0
48.9616 969.0
49.016 934.0
49.0703 947.0
49.1246 925.0
49.1789 883.0
49.2333 920.0
49.2876 875.0
49.3419 863.0
49.3963 901.0
49.4506 874.0
49.5049 884.0
49.5593 899.0
49.6136 927.0
49.6679 959.0
49.7223 896.0
49.7766 870.0
49.8309 945.0
49.8853 956.0
49.9396 1022.0
49.9939 940.0
50.0483 946.0
50.1026 967.0
50.1569 904.0
50.2113 939.0
50.2656 900.0
50.3199 822.0
50.3743 879.0
50.4286 873.0
50.4829 853.0
50.5373 891.0
50.5916 823.0
50.6459 866.0
50.7003 831.0
50.7546 913.0
50.8089 882.0
50.8632 884.0
50.9176 867.0
50.9719 835.0
51.0262 807.0
51.0806 830.0
51.1349 871.0
51.1892 799.0
51.2436 813.0
51.2979 829.0
51.3522 742.0
51.4066 845.0
51.4609 807.0
51.5152 815.0
51.5696 814.0
51.6239 835.0
51.6782 786.0
51.7326 785.0
51.7869 773.0
51.8412 765.0
51.8956 843.0
51.9499 784.0
52.0042 788.0
52.0586 781.0
52.1129 771.0
52.1672 747.0
52.2216 775.0
52.2759 800.0
52.3302 808.0
52.3845 738.0
52.4389 727.0
52.4932 774.0
52.5475 816.0
52.6019 822.0
52.6562 825.0
52.7105 788.0
52.7649 809.0
52.8192 831.0
52.8735 794.0
52.9279 821.0
52.9822 817.0
53.0365 802.0
53.0909 755.0
53.1452 770.0
53.1995 736.0
53.2539 774.0
53.3082 753.0
53.3625 807.0
53.4169 771.0
53.4712 823.0
53.5255 823.0
53.5799 822.0
53.6342 795.0
53.6885 835.0
53.7429 801.0
53.7972 783.0
53.8515 771.0
53.9059 798.0
53.9602 761.0
54.0145 760.0
54.0688 758.0
54.1232 770.0
54.1775 780.0
54.2318 767.0
54.2862 742.0
54.3405 748.0
54.3948 772.0
54.4492 732.0
54.5035 725.0
54.5578 748.0
54.6122 730.0
54.6665 706.0
54.7208 719.0
54.7752 750.0
54.8295 716.0
54.8838 699.0
54.9382 671.0
54.9925 692.0
55.0468 726.0
55.1012 679.0
55.1555 698.0
55.2098 701.0
55.2642 643.0
55.3185 702.0
55.3728 687.0
55.4272 759.0
55.4815 716.0
55.5358 730.0
55.5901 792.0
55.6445 751.0
55.6988 731.0
55.7531 858.0
55.8075 906.0
55.8618 858.0
55.9161 834.0
55.9705 832.0
56.0248 805.0
56.0791 759.0
56.1335 777.0
56.1878 716.0
56.2421 734.0
56.2965 740.0
56.3508 702.0
56.4051 744.0
56.4595 699.0
56.5138 708.0
56.5681 728.0
56.6225 725.0
56.6768 636.0
56.7311 744.0
56.7855 673.0
56.8398 675.0
56.8941 647.0
56.9485 663.0
57.0028 662.0
57.0571 658.0
57.1115 667.0
57.1658 658.0
57.2201 638.0
57.2744 619.0
57.3288 649.0
57.3831 652.0
57.4374 643.0
57.4918 602.0
57.5461 682.0
57.6004 647.0
57.6548 635.0
57.7091 570.0
57.7634 674.0
57.8178 648.0
57.8721 657.0
57.9264 650.0
57.9808 668.0
58.0351 674.0
58.0894 582.0
58.1438 630.0
58.1981 613.0
58.2524 690.0
58.3068 598.0
58.3611 606.0
58.4154 596.0
58.4698 677.0
58.5241 662.0
58.5784 635.0
58.6328 618.0
58.6871 592.0
58.7414 556.0
58.7957 641.0
58.8501 652.0
58.9044 644.0
58.9587 551.0
59.0131 631.0
59.0674 594.0
59.1217 659.0
59.1761 611.0
59.2304 559.0
59.2847 608.0
59.3391 555.0
59.3934 615.0
59.4477 593.0
59.5021 555.0
59.5564 573.0
59.6107 534.0
59.6651 565.0
59.7194 573.0
59.7737 566.0
59.8281 560.0
59.8824 544.0
59.9367 585.0
59.9911 585.0
60.0454 543.0
60.0997 533.0
60.1541 585.0
60.2084 542.0
60.2627 625.0
60.3171 542.0
60.3714 544.0
60.4257 554.0
60.48 523.0
60.5344 584.0
60.5887 578.0
60.643 552.0
60.6974 542.0
60.7517 534.0
60.806 544.0
60.8604 539.0
60.9147 530.0
60.969 558.0
61.0234 526.0
61.0777 552.0
61.132 584.0
61.1864 544.0
61.2407 569.0
61.295 545.0
61.3494 558.0
61.4037 530.0
61.458 517.0
61.5124 569.0
61.5667 548.0
61.621 555.0
61.6754 551.0
61.7297 537.0
61.784 523.0
61.8384 516.0
61.8927 533.0
61.947 527.0
62.0013 525.0
62.0557 523.0
62.11 558.0
62.1643 514.0
62.2187 527.0
62.273 566.0
62.3273 486.0
62.3817 485.0
62.436 560.0
62.4903 540.0
62.5447 545.0
62.599 525.0
62.6533 517.0
62.7077 525.0
62.762 463.0
62.8163 513.0
62.8707 522.0
62.925 543.0
62.9793 541.0
63.0337 506.0
63.088 535.0
63.1423 539.0
63.1967 488.0
63.251 504.0
63.3053 484.0
63.3597 540.0
63.414 527.0
63.4683 466.0
63.5227 497.0
63.577 521.0
63.6313 501.0
63.6856 486.0
63.74 506.0
63.7943 465.0
63.8486 520.0
63.903 514.0
63.9573 501.0
64.0116 504.0
64.066 520.0
64.1203 485.0
64.1746 521.0
64.229 491.0
64.2833 504.0
64.3376 513.0
64.392 461.0
64.4463 470.0
64.5006 488.0
64.555 499.0
64.6093 505.0
64.6636 467.0
64.718 527.0
64.7723 511.0
64.8266 458.0
64.881 447.0
64.9353 447.0
64.9896 491.0
65.044 478.0
65.0983 494.0
65.1526 503.0
65.2069 511.0
65.2613 500.0
65.3156 523.0
65.3699 484.0
65.4243 488.0
65.4786 479.0
65.5329 465.0
65.5873 524.0
65.6416 491.0
65.6959 494.0
65.7503 476.0
65.8046 486.0
65.8589 473.0
65.9133 458.0
65.9676 446.0
66.0219 507.0
66.0763 473.0
66.1306 515.0
66.1849 459.0
66.2393 465.0
66.2936 462.0
66.3479 487.0
66.4023 503.0
66.4566 511.0
66.5109 559.0
66.5653 461.0
66.6196 475.0
66.6739 516.0
66.7283 476.0
66.7826 461.0
66.8369 494.0
66.8912 473.0
66.9456 481.0
66.9999 472.0
67.0542 446.0
67.1086 442.0
67.1629 492.0
67.2172 449.0
67.2716 472.0
67.3259 470.0
67.3802 443.0
67.4346 459.0
67.4889 508.0
67.5432 455.0
67.5976 456.0
67.6519 467.0
67.7062 461.0
67.7606 453.0
67.8149 472.0
67.8692 492.0
67.9236 461.0
67.9779 463.0
68.0322 448.0
68.0866 470.0
68.1409 469.0
68.1952 441.0
68.2496 416.0
68.3039 427.0
68.3582 415.0
68.4125 429.0
68.4669 444.0
68.5212 499.0
68.5755 456.0
68.6299 480.0
68.6842 435.0
68.7385 480.0
68.7929 450.0
68.8472 487.0
68.9015 418.0
68.9559 437.0
69.0102 497.0
69.0645 470.0
69.1189 458.0
69.1732 458.0
69.2275 440.0
69.2819 454.0
69.3362 440.0
69.3905 445.0
69.4449 395.0
69.4992 475.0
69.5535 431.0
69.6079 433.0
69.6622 443.0
69.7165 467.0
69.7709 444.0
69.8252 495.0
69.8795 447.0
69.9338 450.0
69.9882 416.0
70.0425 440.0
70.0968 448.0
70.1512 456.0
70.2055 441.0
70.2598 458.0
70.3142 433.0
70.3685 449.0
70.4228 474.0
70.4772 460.0
70.5315 401.0
70.5858 433.0
70.6402 488.0
70.6945 456.0
70.7488 456.0
70.8032 450.0
70.8575 445.0
70.9118 434.0
70.9662 451.0
71.0205 432.0
71.0748 447.0
71.1292 402.0
71.1835 444.0
71.2378 467.0
71.2922 450.0
71.3465 423.0
71.4008 441.0
71.4552 507.0
71.5095 424.0
71.5638 451.0
71.6181 432.0
71.6725 436.0
71.7268 401.0
71.7811 470.0
71.8355 427.0
71.8898 398.0
71.9441 432.0
71.9985 427.0
72.0528 412.0
72.1071 462.0
72.1615 427.0
72.2158 430.0
72.2701 427.0
72.3245 462.0
72.3788 464.0
72.4331 426.0
72.4875 431.0
72.5418 456.0
72.5961 445.0
72.6505 417.0
72.7048 444.0
72.7591 458.0
72.8135 444.0
72.8678 434.0
72.9221 427.0
72.9765 468.0
73.0308 437.0
73.0851 457.0
73.1394 409.0
73.1938 423.0
73.2481 440.0
73.3024 468.0
73.3568 457.0
73.4111 465.0
73.4654 427.0
73.5198 451.0
73.5741 437.0
73.6284 449.0
73.6828 427.0
73.7371 448.0
73.7914 413.0
73.8458 440.0
73.9001 469.0
73.9544 420.0
74.0088 450.0
74.0631 435.0
74.1174 416.0
74.1718 463.0
74.2261 462.0
74.2804 391.0
74.3348 472.0
74.3891 462.0
74.4434 444.0
74.4978 432.0
74.5521 442.0
74.6064 454.0
74.6608 437.0
74.7151 464.0
74.7694 463.0
74.8237 451.0
74.8781 425.0
74.9324 431.0
74.9867 444.0
75.0411 422.0
75.0954 483.0
75.1497 428.0
75.2041 466.0
75.2584 414.0
75.3127 418.0
75.3671 478.0
75.4214 414.0
75.4757 448.0
75.5301 455.0
75.5844 407.0
75.6387 398.0
75.6931 428.0
75.7474 438.0
75.8017 456.0
75.8561 455.0
75.9104 458.0
75.9647 445.0
76.0191 419.0
76.0734 439.0
76.1277 439.0
76.1821 491.0
76.2364 428.0
76.2907 467.0
76.345 474.0
76.3994 460.0
76.4537 458.0
76.508 456.0
76.5624 493.0
76.6167 423.0
76.671 450.0
76.7254 453.0
76.7797 421.0
76.834 428.0
76.8884 454.0
76.9427 477.0
76.997 447.0
77.0514 399.0
77.1057 443.0
77.16 428.0
77.2144 423.0
77.2687 453.0
77.323 440.0
77.3774 407.0
77.4317 459.0
77.486 469.0
77.5404 404.0
77.5947 432.0
77.649 429.0
77.7034 449.0
77.7577 445.0
77.812 434.0
77.8664 380.0
77.9207 451.0
77.975 435.0
78.0293 420.0
78.0837 454.0
78.138 412.0
78.1923 454.0
78.2467 415.0
78.301 432.0
78.3553 472.0
78.4097 413.0
78.464 407.0
78.5183 428.0
78.5727 439.0
78.627 459.0
78.6813 437.0
78.7357 434.0
78.79 440.0
78.8443 437.0
78.8987 452.0
78.953 468.0
79.0073 407.0
79.0617 454.0
79.116 427.0
79.1703 400.0
79.2247 421.0
79.279 446.0
79.3333 413.0
79.3877 455.0
79.442 431.0
79.4963 468.0
79.5506 452.0
79.605 450.0
79.6593 415.0
79.7136 432.0
79.768 442.0
79.8223 422.0
79.8766 431.0
79.931 425.0
79.9853 440.0
79.9962 398.0