File: XRD/2025_06_03_CBN_3_60_8min.xy
3.00043 43532.0
3.0439 41193.0
3.08736 39576.0
3.13083 37475.0
3.1743 35420.0
3.21776 33548.0
3.26123 31759.0
3.30469 30074.0
3.34816 28396.0
3.39163 26560.0
3.43509 24994.0
3.47856 23669.0
3.52202 22265.0
3.56549 20820.0
3.60895 19817.0
3.65242 18584.0
3.69589 17454.0
3.73935 16271.0
3.78282 15015.0
3.82628 14239.0
3.86975 13175.0
3.91321 12311.0
3.95668 11641.0
4.00015 10673.0
4.04361 9985.0
4.08708 9148.0
4.13054 8496.0
4.17401 7971.0
4.21747 7402.0
4.26094 6885.0
4.30441 6319.0
4.34787 5791.0
4.39134 5586.0
4.4348 4943.0
4.47827 4643.0
4.52173 4209.0
4.5652 3931.0
4.60867 3622.0
4.65213 3343.0
4.6956 3201.0
4.73906 3012.0
4.78253 2857.0
4.826 2839.0
4.86946 2712.0
4.91293 2702.0
4.95639 2715.0
4.99986 2638.0
5.04332 2680.0
5.08679 2627.0
5.13026 2688.0
5.17372 2918.0
5.21719 3170.0
5.26065 3288.0
5.30412 3452.0
5.34758 3903.0
5.39105 4516.0
5.43452 4926.0
5.47798 5784.0
5.52145 6896.0
5.56491 8446.0
5.60838 10772.0
5.65184 14857.0
5.69531 21561.0
5.73878 33226.0
5.78224 46342.0
5.82571 57260.0
5.86917 66350.0
5.91264 80770.0
5.9561 115872.0
5.99957 140618.0
6.04304 105026.0
6.0865 53526.0
6.12997 13392.0
6.17343 8167.0
6.2169 5295.0
6.26037 4573.0
6.30383 4215.0
6.3473 3673.0
6.39076 3232.0
6.43423 2906.0
6.47769 2618.0
6.52116 2469.0
6.56463 2272.0
6.60809 2263.0
6.65156 2154.0
6.69502 2067.0
6.73849 2060.0
6.78195 1977.0
6.82542 1894.0
6.86889 1844.0
6.91235 1813.0
6.95582 1752.0
6.99928 1689.0
7.04275 1681.0
7.08621 1505.0
7.12968 1481.0
7.17315 1418.0
7.21661 1465.0
7.26008 1320.0
7.30354 1349.0
7.34701 1334.0
7.39047 1290.0
7.43394 1301.0
7.47741 1283.0
7.52087 1214.0
7.56434 1144.0
7.6078 1259.0
7.65127 1195.0
7.69474 1124.0
7.7382 1038.0
7.78167 1058.0
7.82513 1052.0
7.8686 1054.0
7.91206 976.0
7.95553 1047.0
7.999 969.0
8.04246 1105.0
8.08593 1001.0
8.12939 1041.0
8.17286 1019.0
8.21632 973.0
8.25979 910.0
8.30326 852.0
8.34672 852.0
8.39019 774.0
8.43365 857.0
8.47712 781.0
8.52058 810.0
8.56405 792.0
8.60752 762.0
8.65098 739.0
8.69445 761.0
8.73791 750.0
8.78138 713.0
8.82485 780.0
8.86831 751.0
8.91178 768.0
8.95524 747.0
8.99871 801.0
9.04217 747.0
9.08564 745.0
9.12911 785.0
9.17257 824.0
9.21604 842.0
9.2595 867.0
9.30297 914.0
9.34643 923.0
9.3899 1005.0
9.43337 1105.0
9.47683 1238.0
9.5203 1364.0
9.56376 1456.0
9.60723 1684.0
9.65069 2009.0
9.69416 2632.0
9.73763 3383.0
9.78109 4168.0
9.82456 4699.0
9.86802 4928.0
9.91149 4608.0
9.95495 4005.0
9.99842 3119.0
10.0419 2440.0
10.0854 1945.0
10.1288 1607.0
10.1723 1415.0
10.2157 1425.0
10.2592 1372.0
10.3027 1366.0
10.3461 1221.0
10.3896 1137.0
10.4331 919.0
10.4765 911.0
10.52 882.0
10.5635 877.0
10.6069 857.0
10.6504 817.0
10.6939 821.0
10.7373 820.0
10.7808 818.0
10.8243 822.0
10.8677 829.0
10.9112 859.0
10.9547 842.0
10.9981 899.0
11.0416 1017.0
11.0851 1061.0
11.1285 1220.0
11.172 1419.0
11.2155 1789.0
11.2589 2270.0
11.3024 2622.0
11.3459 2842.0
11.3893 2806.0
11.4328 2893.0
11.4763 2939.0
11.5197 3291.0
11.5632 4623.0
11.6067 7333.0
11.6501 9720.0
11.6936 10531.0
11.7371 10827.0
11.7805 10534.0
11.824 12175.0
11.8674 17581.0
11.9109 21059.0
11.9544 14511.0
11.9978 8369.0
12.0413 2627.0
12.0848 1580.0
12.1282 1262.0
12.1717 1244.0
12.2152 1102.0
12.2586 1109.0
12.3021 1058.0
12.3456 1024.0
12.389 1082.0
12.4325 1147.0
12.476 1179.0
12.5194 1339.0
12.5629 1579.0
12.6064 1799.0
12.6498 2180.0
12.6933 2451.0
12.7368 2759.0
12.7802 2882.0
12.8237 2921.0
12.8672 2720.0
12.9106 2165.0
12.9541 1617.0
12.9976 1408.0
13.041 1377.0
13.0845 1405.0
13.128 1497.0
13.1714 1498.0
13.2149 1664.0
13.2584 1672.0
13.3018 1608.0
13.3453 1451.0
13.3887 1326.0
13.4322 1129.0
13.4757 1069.0
13.5191 909.0
13.5626 871.0
13.6061 972.0
13.6495 1061.0
13.693 992.0
13.7365 1043.0
13.7799 1158.0
13.8234 1357.0
13.8669 1517.0
13.9103 1957.0
13.9538 2384.0
13.9973 3043.0
14.0407 3520.0
14.0842 3784.0
14.1277 3583.0
14.1711 3105.0
14.2146 2802.0
14.2581 2413.0
14.3015 1984.0
14.345 1904.0
14.3885 2492.0
14.4319 3517.0
14.4754 4879.0
14.5189 6257.0
14.5623 7467.0
14.6058 7761.0
14.6493 7287.0
14.6927 6406.0
14.7362 5432.0
14.7797 4083.0
14.8231 2758.0
14.8666 1834.0
14.9101 1329.0
14.9535 1274.0
14.997 1253.0
15.0404 1137.0
15.0839 1219.0
15.1274 1264.0
15.1708 1343.0
15.2143 1542.0
15.2578 1653.0
15.3012 1867.0
15.3447 1764.0
15.3882 1645.0
15.4316 1485.0
15.4751 1285.0
15.5186 1210.0
15.562 1107.0
15.6055 1226.0
15.649 1289.0
15.6924 1371.0
15.7359 1464.0
15.7794 1423.0
15.8228 1338.0
15.8663 1300.0
15.9098 1177.0
15.9532 1027.0
15.9967 1045.0
16.0402 1028.0
16.0836 1081.0
16.1271 1104.0
16.1706 1096.0
16.214 1254.0
16.2575 1374.0
16.301 1523.0
16.3444 1773.0
16.3879 2008.0
16.4314 2028.0
16.4748 1902.0
16.5183 1561.0
16.5618 1334.0
16.6052 1220.0
16.6487 1160.0
16.6921 1199.0
16.7356 1284.0
16.7791 1427.0
16.8225 1664.0
16.866 1812.0
16.9095 1835.0
16.9529 1738.0
16.9964 1621.0
17.0399 1507.0
17.0833 1500.0
17.1268 1379.0
17.1703 1391.0
17.2137 1412.0
17.2572 1330.0
17.3007 1290.0
17.3441 1272.0
17.3876 1271.0
17.4311 1464.0
17.4745 1813.0
17.518 2466.0
17.5615 3685.0
17.6049 4660.0
17.6484 4867.0
17.6919 4755.0
17.7353 4486.0
17.7788 5049.0
17.8223 7376.0
17.8657 8689.0
17.9092 6215.0
17.9527 3611.0
17.9961 2081.0
18.0396 1780.0
18.0831 1939.0
18.1265 2362.0
18.17 3122.0
18.2134 4670.0
18.2569 7049.0
18.3004 8912.0
18.3438 9880.0
18.3873 10235.0
18.4308 10227.0
18.4742 9572.0
18.5177 8602.0
18.5612 7814.0
18.6046 6694.0
18.6481 7146.0
18.6916 9115.0
18.735 11123.0
18.7785 11756.0
18.822 11847.0
18.8654 10857.0
18.9089 8567.0
18.9524 5548.0
18.9958 3545.0
19.0393 2517.0
19.0828 1903.0
19.1262 1817.0
19.1697 1774.0
19.2132 1770.0
19.2566 1685.0
19.3001 1580.0
19.3436 1541.0
19.387 1554.0
19.4305 1486.0
19.474 1441.0
19.5174 1395.0
19.5609 1506.0
19.6044 1694.0
19.6478 1924.0
19.6913 2362.0
19.7348 2498.0
19.7782 2489.0
19.8217 2232.0
19.8651 2059.0
19.9086 1908.0
19.9521 1831.0
19.9955 1930.0
20.039 2249.0
20.0825 2431.0
20.1259 2341.0
20.1694 2341.0
20.2129 2258.0
20.2563 1933.0
20.2998 1830.0
20.3433 1787.0
20.3867 2077.0
20.4302 2354.0
20.4737 2848.0
20.5171 3408.0
20.5606 4077.0
20.6041 4035.0
20.6475 3858.0
20.691 4028.0
20.7345 3826.0
20.7779 3697.0
20.8214 3750.0
20.8649 4594.0
20.9083 6382.0
20.9518 8004.0
20.9953 9036.0
21.0387 9368.0
21.0822 8743.0
21.1257 7735.0
21.1691 5792.0
21.2126 4089.0
21.2561 2777.0
21.2995 2151.0
21.343 1757.0
21.3864 1688.0
21.4299 1686.0
21.4734 1963.0
21.5168 2171.0
21.5603 2199.0
21.6038 2113.0
21.6472 1931.0
21.6907 1775.0
21.7342 1518.0
21.7776 1406.0
21.8211 1321.0
21.8646 1234.0
21.908 1263.0
21.9515 1267.0
21.995 1286.0
22.0384 1351.0
22.0819 1331.0
22.1254 1461.0
22.1688 1402.0
22.2123 1329.0
22.2558 1298.0
22.2992 1271.0
22.3427 1248.0
22.3862 1213.0
22.4296 1303.0
22.4731 1529.0
22.5166 1706.0
22.56 1921.0
22.6035 2158.0
22.647 2311.0
22.6904 2151.0
22.7339 2062.0
22.7774 1941.0
22.8208 1843.0
22.8643 1817.0
22.9078 1927.0
22.9512 2138.0
22.9947 2360.0
23.0381 2414.0
23.0816 2551.0
23.1251 2534.0
23.1685 2710.0
23.212 2913.0
23.2555 3269.0
23.2989 3738.0
23.3424 4259.0
23.3859 4733.0
23.4293 5284.0
23.4728 6429.0
23.5163 9464.0
23.5597 14399.0
23.6032 18661.0
23.6467 20906.0
23.6901 19105.0
23.7336 17049.0
23.7771 21001.0
23.8205 31675.0
23.864 32417.0
23.9075 22657.0
23.9509 10816.0
23.9944 5341.0
24.0379 2917.0
24.0813 2479.0
24.1248 2282.0
24.1683 2077.0
24.2117 2113.0
24.2552 1929.0
24.2987 1884.0
24.3421 1734.0
24.3856 1567.0
24.4291 1402.0
24.4725 1325.0
24.516 1373.0
24.5595 1419.0
24.6029 1523.0
24.6464 1678.0
24.6898 1862.0
24.7333 1839.0
24.7768 1776.0
24.8202 1654.0
24.8637 1775.0
24.9072 1695.0
24.9506 1520.0
24.9941 1288.0
25.0376 1084.0
25.081 1121.0
25.1245 1044.0
25.168 1042.0
25.2114 1112.0
25.2549 1028.0
25.2984 1091.0
25.3418 1180.0
25.3853 1318.0
25.4288 1445.0
25.4722 1760.0
25.5157 1796.0
25.5592 1879.0
25.6026 1871.0
25.6461 1798.0
25.6896 1652.0
25.733 1419.0
25.7765 1367.0
25.82 1252.0
25.8634 1072.0
25.9069 1044.0
25.9504 957.0
25.9938 901.0
26.0373 913.0
26.0808 964.0
26.1242 926.0
26.1677 928.0
26.2111 973.0
26.2546 914.0
26.2981 933.0
26.3415 1001.0
26.385 929.0
26.4285 1032.0
26.4719 1074.0
26.5154 1070.0
26.5589 1055.0
26.6023 1051.0
26.6458 1014.0
26.6893 1021.0
26.7327 1127.0
26.7762 1185.0
26.8197 1100.0
26.8631 1199.0
26.9066 1129.0
26.9501 1127.0
26.9935 1176.0
27.037 1090.0
27.0805 1151.0
27.1239 976.0
27.1674 1033.0
27.2109 1100.0
27.2543 992.0
27.2978 970.0
27.3413 918.0
27.3847 859.0
27.4282 849.0
27.4717 836.0
27.5151 856.0
27.5586 887.0
27.6021 933.0
27.6455 1083.0
27.689 1299.0
27.7325 1574.0
27.7759 1774.0
27.8194 1996.0
27.8628 2054.0
27.9063 1839.0
27.9498 1671.0
27.9932 1377.0
28.0367 1162.0
28.0802 1213.0
28.1236 1084.0
28.1671 1096.0
28.2106 1047.0
28.254 1076.0
28.2975 1016.0
28.341 1066.0
28.3844 978.0
28.4279 950.0
28.4714 940.0
28.5148 897.0
28.5583 864.0
28.6018 854.0
28.6452 793.0
28.6887 821.0
28.7322 825.0
28.7756 820.0
28.8191 830.0
28.8626 910.0
28.906 1011.0
28.9495 1239.0
28.993 1373.0
29.0364 1409.0
29.0799 1468.0
29.1234 1383.0
29.1668 1175.0
29.2103 1091.0
29.2538 942.0
29.2972 900.0
29.3407 846.0
29.3841 900.0
29.4276 976.0
29.4711 1028.0
29.5145 1139.0
29.558 1383.0
29.6015 2092.0
29.6449 2665.0
29.6884 3146.0
29.7319 3140.0
29.7753 2624.0
29.8188 2964.0
29.8623 4093.0
29.9057 4898.0
29.9492 3961.0
29.9927 3161.0
30.0361 1650.0
30.0796 1204.0
30.1231 1008.0
30.1665 937.0
30.21 949.0
30.2535 913.0
30.2969 868.0
30.3404 876.0
30.3839 894.0
30.4273 870.0
30.4708 811.0
30.5143 882.0
30.5577 811.0
30.6012 868.0
30.6447 892.0
30.6881 871.0
30.7316 830.0
30.7751 927.0
30.8185 949.0
30.862 936.0
30.9055 904.0
30.9489 924.0
30.9924 927.0
31.0358 895.0
31.0793 963.0
31.1228 991.0
31.1662 1068.0
31.2097 1164.0
31.2532 1128.0
31.2966 1132.0
31.3401 1108.0
31.3836 1073.0
31.427 1006.0
31.4705 980.0
31.514 837.0
31.5574 834.0
31.6009 789.0
31.6444 841.0
31.6878 873.0
31.7313 875.0
31.7748 963.0
31.8182 952.0
31.8617 909.0
31.9052 892.0
31.9486 803.0
31.9921 784.0
32.0356 755.0
32.079 738.0
32.1225 719.0
32.166 724.0
32.2094 776.0
32.2529 717.0
32.2964 755.0
32.3398 753.0
32.3833 673.0
32.4268 779.0
32.4702 736.0
32.5137 686.0
32.5572 662.0
32.6006 645.0
32.6441 707.0
32.6875 705.0
32.731 684.0
32.7745 654.0
32.8179 698.0
32.8614 618.0
32.9049 627.0
32.9483 642.0
32.9918 597.0
33.0353 606.0
33.0787 631.0
33.1222 686.0
33.1657 783.0
33.2091 759.0
33.2526 784.0
33.2961 838.0
33.3395 885.0
33.383 843.0
33.4265 877.0
33.4699 867.0
33.5134 725.0
33.5569 667.0
33.6003 654.0
33.6438 650.0
33.6873 646.0
33.7307 656.0
33.7742 634.0
33.8177 687.0
33.8611 678.0
33.9046 650.0
33.9481 659.0
33.9915 579.0
34.035 573.0
34.0785 559.0
34.1219 566.0
34.1654 596.0
34.2088 574.0
34.2523 603.0
34.2958 581.0
34.3392 582.0
34.3827 629.0
34.4262 662.0
34.4696 651.0
34.5131 700.0
34.5566 728.0
34.6 736.0
34.6435 835.0
34.687 834.0
34.7304 917.0
34.7739 932.0
34.8174 898.0
34.8608 775.0
34.9043 678.0
34.9478 749.0
34.9912 700.0
35.0347 639.0
35.0782 717.0
35.1216 724.0
35.1651 665.0
35.2086 687.0
35.252 632.0
35.2955 716.0
35.339 669.0
35.3824 703.0
35.4259 762.0
35.4694 668.0
35.5128 748.0
35.5563 661.0
35.5998 734.0
35.6432 828.0
35.6867 896.0
35.7302 1168.0
35.7736 1669.0
35.8171 2037.0
35.8605 2217.0
35.904 2009.0
35.9475 1894.0
35.9909 2443.0
36.0344 3103.0
36.0779 2767.0
36.1213 2466.0
36.1648 1794.0
36.2083 1211.0
36.2517 999.0
36.2952 800.0
36.3387 888.0
36.3821 807.0
36.4256 884.0
36.4691 895.0
36.5125 876.0
36.556 839.0
36.5995 794.0
36.6429 812.0
36.6864 792.0
36.7299 779.0
36.7733 746.0
36.8168 745.0
36.8603 635.0
36.9037 701.0
36.9472 648.0
36.9907 667.0
37.0341 720.0
37.0776 730.0
37.1211 775.0
37.1645 861.0
37.208 847.0
37.2515 843.0
37.2949 852.0
37.3384 877.0
37.3818 866.0
37.4253 837.0
37.4688 847.0
37.5122 787.0
37.5557 757.0
37.5992 701.0
37.6426 754.0
37.6861 720.0
37.7296 676.0
37.773 619.0
37.8165 651.0
37.86 677.0
37.9034 692.0
37.9469 655.0
37.9904 712.0
38.0338 701.0
38.0773 704.0
38.1208 734.0
38.1642 708.0
38.2077 687.0
38.2512 738.0
38.2946 759.0
38.3381 672.0
38.3816 667.0
38.425 685.0
38.4685 717.0
38.512 707.0
38.5554 740.0
38.5989 636.0
38.6424 681.0
38.6858 700.0
38.7293 728.0
38.7728 693.0
38.8162 794.0
38.8597 881.0
38.9032 1050.0
38.9466 1192.0
38.9901 1288.0
39.0335 1388.0
39.077 1465.0
39.1205 1255.0
39.1639 1227.0
39.2074 1058.0
39.2509 926.0
39.2943 861.0
39.3378 776.0
39.3813 640.0
39.4247 706.0
39.4682 628.0
39.5117 668.0
39.5551 657.0
39.5986 665.0
39.6421 705.0
39.6855 667.0
39.729 762.0
39.7725 706.0
39.8159 740.0
39.8594 785.0
39.9029 747.0
39.9463 807.0
39.9898 722.0
40.0333 679.0
40.0767 728.0
40.1202 696.0
40.1637 648.0
40.2071 696.0
40.2506 626.0
40.2941 582.0
40.3375 653.0
40.381 694.0
40.4245 672.0
40.4679 684.0
40.5114 707.0
40.5548 715.0
40.5983 793.0
40.6418 770.0
40.6852 916.0
40.7287 838.0
40.7722 777.0
40.8156 781.0
40.8591 734.0
40.9026 719.0
40.946 625.0
40.9895 662.0
41.033 682.0
41.0764 689.0
41.1199 657.0
41.1634 654.0
41.2068 694.0
41.2503 641.0
41.2938 656.0
41.3372 682.0
41.3807 638.0
41.4242 749.0
41.4676 741.0
41.5111 700.0
41.5546 786.0
41.598 792.0
41.6415 811.0
41.685 841.0
41.7284 764.0
41.7719 732.0
41.8154 794.0
41.8588 769.0
41.9023 773.0
41.9458 766.0
41.9892 743.0
42.0327 739.0
42.0762 763.0
42.1196 734.0
42.1631 631.0
42.2065 720.0
42.25 694.0
42.2935 662.0
42.3369 705.0
42.3804 705.0
42.4239 706.0
42.4673 752.0
42.5108 826.0
42.5543 1024.0
42.5977 1054.0
42.6412 1091.0
42.6847 1074.0
42.7281 1114.0
42.7716 1091.0
42.8151 1108.0
42.8585 1012.0
42.902 899.0
42.9455 839.0
42.9889 820.0
43.0324 801.0
43.0759 775.0
43.1193 789.0
43.1628 831.0
43.2063 815.0
43.2497 808.0
43.2932 918.0
43.3367 989.0
43.3801 1031.0
43.4236 1077.0
43.4671 1099.0
43.5105 1077.0
43.554 1085.0
43.5975 1098.0
43.6409 1033.0
43.6844 913.0
43.7279 971.0
43.7713 884.0
43.8148 852.0
43.8582 836.0
43.9017 807.0
43.9452 813.0
43.9886 908.0
44.0321 879.0
44.0756 962.0
44.119 1028.0
44.1625 1214.0
44.206 1192.0
44.2494 1253.0
44.2929 1195.0
44.3364 1171.0
44.3798 1170.0
44.4233 995.0
44.4668 940.0
44.5102 763.0
44.5537 745.0
44.5972 720.0
44.6406 670.0
44.6841 685.0
44.7276 751.0
44.771 663.0
44.8145 666.0
44.858 679.0
44.9014 644.0
44.9449 668.0
44.9884 659.0
45.0318 596.0
45.0753 642.0
45.1188 639.0
45.1622 635.0
45.2057 613.0
45.2492 581.0
45.2926 626.0
45.3361 648.0
45.3795 632.0
45.423 611.0
45.4665 620.0
45.5099 596.0
45.5534 618.0
45.5969 600.0
45.6403 556.0
45.6838 619.0
45.7273 565.0
45.7707 665.0
45.8142 617.0
45.8577 591.0
45.9011 590.0
45.9446 597.0
45.9881 577.0
46.0315 624.0
46.075 598.0
46.1185 574.0
46.1619 588.0
46.2054 592.0
46.2489 634.0
46.2923 616.0
46.3358 624.0
46.3793 553.0
46.4227 609.0
46.4662 568.0
46.5097 635.0
46.5531 646.0
46.5966 661.0
46.6401 620.0
46.6835 648.0
46.727 605.0
46.7705 681.0
46.8139 660.0
46.8574 690.0
46.9009 688.0
46.9443 700.0
46.9878 690.0
47.0312 655.0
47.0747 680.0
47.1182 660.0
47.1616 597.0
47.2051 619.0
47.2486 589.0
47.292 638.0
47.3355 642.0
47.379 591.0
47.4224 598.0
47.4659 600.0
47.5094 629.0
47.5528 652.0
47.5963 587.0
47.6398 693.0
47.6832 638.0
47.7267 648.0
47.7702 630.0
47.8136 690.0
47.8571 641.0
47.9006 577.0
47.944 599.0
47.9875 583.0
48.031 550.0
48.0744 561.0
48.1179 558.0
48.1614 585.0
48.2048 622.0
48.2483 590.0
48.2918 615.0
48.3352 648.0
48.3787 711.0
48.4222 721.0
48.4656 708.0
48.5091 752.0
48.5525 751.0
48.596 775.0
48.6395 908.0
48.6829 996.0
48.7264 944.0
48.7699 807.0
48.8133 898.0
48.8568 871.0
48.9003 821.0
48.9437 747.0
48.9872 729.0
49.0307 627.0
49.0741 663.0
49.1176 593.0
49.1611 606.0
49.2045 615.0
49.248 609.0
49.2915 595.0
49.3349 569.0
49.3784 619.0
49.4219 633.0
49.4653 702.0
49.5088 783.0
49.5523 975.0
49.5957 1069.0
49.6392 1034.0
49.6827 1075.0
49.7261 1008.0
49.7696 993.0
49.8131 893.0
49.8565 789.0
49.9 736.0
49.9435 665.0
49.9869 664.0
50.0304 590.0
50.0739 561.0
50.1173 584.0
50.1608 584.0
50.2042 580.0
50.2477 590.0
50.2912 608.0
50.3346 623.0
50.3781 654.0
50.4216 654.0
50.465 681.0
50.5085 608.0
50.552 636.0
50.5954 630.0
50.6389 632.0
50.6824 581.0
50.7258 525.0
50.7693 535.0
50.8128 568.0
50.8562 585.0
50.8997 600.0
50.9432 561.0
50.9866 569.0
51.0301 553.0
51.0736 579.0
51.117 563.0
51.1605 530.0
51.204 528.0
51.2474 559.0
51.2909 524.0
51.3344 548.0
51.3778 551.0
51.4213 529.0
51.4648 531.0
51.5082 493.0
51.5517 530.0
51.5952 511.0
51.6386 533.0
51.6821 506.0
51.7256 515.0
51.769 561.0
51.8125 535.0
51.8559 518.0
51.8994 553.0
51.9429 472.0
51.9863 579.0
52.0298 557.0
52.0733 550.0
52.1167 505.0
52.1602 570.0
52.2037 582.0
52.2471 530.0
52.2906 589.0
52.3341 587.0
52.3775 557.0
52.421 563.0
52.4645 526.0
52.5079 487.0
52.5514 513.0
52.5949 486.0
52.6383 497.0
52.6818 469.0
52.7253 505.0
52.7687 487.0
52.8122 495.0
52.8557 465.0
52.8991 476.0
52.9426 474.0
52.9861 471.0
53.0295 473.0
53.073 479.0
53.1165 470.0
53.1599 425.0
53.2034 473.0
53.2469 511.0
53.2903 444.0
53.3338 475.0
53.3772 488.0
53.4207 496.0
53.4642 468.0
53.5076 457.0
53.5511 492.0
53.5946 483.0
53.638 452.0
53.6815 463.0
53.725 484.0
53.7684 472.0
53.8119 495.0
53.8554 472.0
53.8988 452.0
53.9423 441.0
53.9858 480.0
54.0292 449.0
54.0727 480.0
54.1162 445.0
54.1596 485.0
54.2031 468.0
54.2466 482.0
54.29 447.0
54.3335 457.0
54.377 434.0
54.4204 449.0
54.4639 427.0
54.5074 416.0
54.5508 472.0
54.5943 483.0
54.6378 408.0
54.6812 455.0
54.7247 449.0
54.7682 456.0
54.8116 462.0
54.8551 488.0
54.8986 492.0
54.942 461.0
54.9855 499.0
55.0289 542.0
55.0724 517.0
55.1159 505.0
55.1593 596.0
55.2028 678.0
55.2463 767.0
55.2897 699.0
55.3332 706.0
55.3767 797.0
55.4201 789.0
55.4636 811.0
55.5071 715.0
55.5505 621.0
55.594 633.0
55.6375 616.0
55.6809 570.0
55.7244 508.0
55.7679 443.0
55.8113 472.0
55.8548 501.0
55.8983 510.0
55.9417 471.0
55.9852 466.0
56.0287 494.0
56.0721 479.0
56.1156 482.0
56.1591 495.0
56.2025 523.0
56.246 540.0
56.2895 508.0
56.3329 471.0
56.3764 502.0
56.4199 511.0
56.4633 483.0
56.5068 501.0
56.5502 449.0
56.5937 443.0
56.6372 435.0
56.6806 437.0
56.7241 421.0
56.7676 412.0
56.811 387.0
56.8545 383.0
56.898 414.0
56.9414 442.0
56.9849 403.0
57.0284 419.0
57.0718 398.0
57.1153 443.0
57.1588 398.0
57.2022 408.0
57.2457 454.0
57.2892 432.0
57.3326 422.0
57.3761 435.0
57.4196 421.0
57.463 417.0
57.5065 412.0
57.55 421.0
57.5934 382.0
57.6369 358.0
57.6804 405.0
57.7238 406.0
57.7673 412.0
57.8108 421.0
57.8542 398.0
57.8977 419.0
57.9412 445.0
57.9846 418.0
58.0281 400.0
58.0716 401.0
58.115 412.0
58.1585 444.0
58.2019 434.0
58.2454 456.0
58.2889 393.0
58.3323 397.0
58.3758 397.0
58.4193 399.0
58.4627 438.0
58.5062 417.0
58.5497 389.0
58.5931 417.0
58.6366 393.0
58.6801 422.0
58.7235 362.0
58.767 372.0
58.8105 361.0
58.8539 418.0
58.8974 378.0
58.9409 361.0
58.9843 356.0
59.0278 383.0
59.0713 379.0
59.1147 382.0
59.1582 380.0
59.2017 334.0
59.2451 362.0
59.2886 370.0
59.3321 406.0
59.3755 405.0
59.419 392.0
59.4625 401.0
59.5059 336.0
59.5494 366.0
59.5929 366.0
59.6363 385.0
59.6798 411.0
59.7233 392.0
59.7667 395.0
59.8102 383.0
59.8536 409.0
59.8971 411.0
59.9406 385.0
59.984 388.0
59.9949 379.0