File: XRD/2025_06_12_NaCl_3_60_8m_pXRD.xy
3.00043 43180.0
3.0439 41945.0
3.08736 39672.0
3.13083 37825.0
3.1743 35464.0
3.21776 33490.0
3.26123 31751.0
3.30469 30239.0
3.34816 28364.0
3.39163 26949.0
3.43509 25398.0
3.47856 23769.0
3.52202 22316.0
3.56549 20883.0
3.60895 19640.0
3.65242 18359.0
3.69589 16999.0
3.73935 16329.0
3.78282 15091.0
3.82628 14250.0
3.86975 13123.0
3.91321 12295.0
3.95668 11392.0
4.00015 10671.0
4.04361 9907.0
4.08708 8923.0
4.13054 8579.0
4.17401 7897.0
4.21747 7204.0
4.26094 6677.0
4.30441 6237.0
4.34787 5549.0
4.39134 5190.0
4.4348 4763.0
4.47827 4303.0
4.52173 3996.0
4.5652 3795.0
4.60867 3443.0
4.65213 3072.0
4.6956 3043.0
4.73906 2619.0
4.78253 2501.0
4.826 2506.0
4.86946 2256.0
4.91293 2275.0
4.95639 2165.0
4.99986 2104.0
5.04332 1974.0
5.08679 2079.0
5.13026 2012.0
5.17372 1931.0
5.21719 2103.0
5.26065 2004.0
5.30412 1938.0
5.34758 1976.0
5.39105 1854.0
5.43452 1778.0
5.47798 1674.0
5.52145 1520.0
5.56491 1382.0
5.60838 1352.0
5.65184 1266.0
5.69531 1180.0
5.73878 1126.0
5.78224 1070.0
5.82571 1000.0
5.86917 981.0
5.91264 938.0
5.9561 930.0
5.99957 954.0
6.04304 965.0
6.0865 860.0
6.12997 894.0
6.17343 879.0
6.2169 827.0
6.26037 833.0
6.30383 794.0
6.3473 818.0
6.39076 821.0
6.43423 697.0
6.47769 814.0
6.52116 735.0
6.56463 704.0
6.60809 733.0
6.65156 778.0
6.69502 691.0
6.73849 715.0
6.78195 729.0
6.82542 638.0
6.86889 693.0
6.91235 712.0
6.95582 737.0
6.99928 680.0
7.04275 661.0
7.08621 726.0
7.12968 707.0
7.17315 708.0
7.21661 702.0
7.26008 682.0
7.30354 754.0
7.34701 726.0
7.39047 697.0
7.43394 716.0
7.47741 750.0
7.52087 760.0
7.56434 725.0
7.6078 778.0
7.65127 722.0
7.69474 777.0
7.7382 755.0
7.78167 828.0
7.82513 791.0
7.8686 817.0
7.91206 852.0
7.95553 884.0
7.999 847.0
8.04246 821.0
8.08593 833.0
8.12939 890.0
8.17286 880.0
8.21632 920.0
8.25979 858.0
8.30326 957.0
8.34672 896.0
8.39019 945.0
8.43365 914.0
8.47712 860.0
8.52058 936.0
8.56405 914.0
8.60752 990.0
8.65098 1034.0
8.69445 985.0
8.73791 989.0
8.78138 1045.0
8.82485 1009.0
8.86831 1046.0
8.91178 1044.0
8.95524 1023.0
8.99871 1051.0
9.04217 1039.0
9.08564 1075.0
9.12911 1098.0
9.17257 1121.0
9.21604 1152.0
9.2595 1139.0
9.30297 1127.0
9.34643 1169.0
9.3899 1163.0
9.43337 1167.0
9.47683 1138.0
9.5203 1177.0
9.56376 1252.0
9.60723 1237.0
9.65069 1250.0
9.69416 1256.0
9.73763 1257.0
9.78109 1261.0
9.82456 1193.0
9.86802 1271.0
9.91149 1206.0
9.95495 1266.0
9.99842 1255.0
10.0419 1291.0
10.0854 1292.0
10.1288 1261.0
10.1723 1285.0
10.2157 1312.0
10.2592 1319.0
10.3027 1357.0
10.3461 1323.0
10.3896 1338.0
10.4331 1359.0
10.4765 1437.0
10.52 1369.0
10.5635 1381.0
10.6069 1339.0
10.6504 1375.0
10.6939 1441.0
10.7373 1434.0
10.7808 1444.0
10.8243 1441.0
10.8677 1385.0
10.9112 1424.0
10.9547 1370.0
10.9981 1406.0
11.0416 1513.0
11.0851 1443.0
11.1285 1473.0
11.172 1440.0
11.2155 1471.0
11.2589 1479.0
11.3024 1523.0
11.3459 1478.0
11.3893 1484.0
11.4328 1436.0
11.4763 1578.0
11.5197 1502.0
11.5632 1600.0
11.6067 1478.0
11.6501 1568.0
11.6936 1551.0
11.7371 1566.0
11.7805 1545.0
11.824 1621.0
11.8674 1499.0
11.9109 1554.0
11.9544 1610.0
11.9978 1482.0
12.0413 1573.0
12.0848 1630.0
12.1282 1617.0
12.1717 1629.0
12.2152 1524.0
12.2586 1570.0
12.3021 1568.0
12.3456 1534.0
12.389 1474.0
12.4325 1594.0
12.476 1558.0
12.5194 1653.0
12.5629 1510.0
12.6064 1548.0
12.6498 1505.0
12.6933 1677.0
12.7368 1513.0
12.7802 1533.0
12.8237 1595.0
12.8672 1527.0
12.9106 1615.0
12.9541 1549.0
12.9976 1583.0
13.041 1559.0
13.0845 1526.0
13.128 1594.0
13.1714 1620.0
13.2149 1607.0
13.2584 1600.0
13.3018 1570.0
13.3453 1623.0
13.3887 1563.0
13.4322 1604.0
13.4757 1592.0
13.5191 1563.0
13.5626 1511.0
13.6061 1568.0
13.6495 1576.0
13.693 1584.0
13.7365 1508.0
13.7799 1552.0
13.8234 1579.0
13.8669 1543.0
13.9103 1460.0
13.9538 1566.0
13.9973 1572.0
14.0407 1524.0
14.0842 1559.0
14.1277 1476.0
14.1711 1519.0
14.2146 1422.0
14.2581 1413.0
14.3015 1453.0
14.345 1432.0
14.3885 1456.0
14.4319 1499.0
14.4754 1546.0
14.5189 1452.0
14.5623 1455.0
14.6058 1367.0
14.6493 1482.0
14.6927 1405.0
14.7362 1409.0
14.7797 1425.0
14.8231 1489.0
14.8666 1437.0
14.9101 1419.0
14.9535 1422.0
14.997 1412.0
15.0404 1448.0
15.0839 1388.0
15.1274 1450.0
15.1708 1401.0
15.2143 1315.0
15.2578 1383.0
15.3012 1341.0
15.3447 1363.0
15.3882 1379.0
15.4316 1394.0
15.4751 1320.0
15.5186 1296.0
15.562 1334.0
15.6055 1350.0
15.649 1263.0
15.6924 1297.0
15.7359 1202.0
15.7794 1276.0
15.8228 1195.0
15.8663 1285.0
15.9098 1217.0
15.9532 1319.0
15.9967 1205.0
16.0402 1265.0
16.0836 1278.0
16.1271 1172.0
16.1706 1167.0
16.214 1204.0
16.2575 1228.0
16.301 1188.0
16.3444 1180.0
16.3879 1222.0
16.4314 1116.0
16.4748 1145.0
16.5183 1150.0
16.5618 1160.0
16.6052 1179.0
16.6487 1176.0
16.6921 1124.0
16.7356 1119.0
16.7791 1062.0
16.8225 1107.0
16.866 1156.0
16.9095 1087.0
16.9529 1092.0
16.9964 1039.0
17.0399 1018.0
17.0833 1053.0
17.1268 1045.0
17.1703 1042.0
17.2137 1054.0
17.2572 1030.0
17.3007 1024.0
17.3441 1012.0
17.3876 1035.0
17.4311 956.0
17.4745 1044.0
17.518 1040.0
17.5615 983.0
17.6049 961.0
17.6484 904.0
17.6919 987.0
17.7353 992.0
17.7788 1009.0
17.8223 966.0
17.8657 966.0
17.9092 993.0
17.9527 971.0
17.9961 953.0
18.0396 922.0
18.0831 902.0
18.1265 882.0
18.17 861.0
18.2134 848.0
18.2569 850.0
18.3004 856.0
18.3438 873.0
18.3873 888.0
18.4308 827.0
18.4742 830.0
18.5177 871.0
18.5612 796.0
18.6046 797.0
18.6481 794.0
18.6916 823.0
18.735 807.0
18.7785 816.0
18.822 772.0
18.8654 786.0
18.9089 819.0
18.9524 826.0
18.9958 786.0
19.0393 736.0
19.0828 749.0
19.1262 732.0
19.1697 790.0
19.2132 733.0
19.2566 728.0
19.3001 675.0
19.3436 696.0
19.387 733.0
19.4305 731.0
19.474 711.0
19.5174 702.0
19.5609 721.0
19.6044 702.0
19.6478 685.0
19.6913 725.0
19.7348 723.0
19.7782 659.0
19.8217 688.0
19.8651 725.0
19.9086 689.0
19.9521 706.0
19.9955 765.0
20.039 672.0
20.0825 675.0
20.1259 694.0
20.1694 712.0
20.2129 709.0
20.2563 677.0
20.2998 657.0
20.3433 699.0
20.3867 647.0
20.4302 660.0
20.4737 656.0
20.5171 646.0
20.5606 636.0
20.6041 649.0
20.6475 626.0
20.691 615.0
20.7345 642.0
20.7779 620.0
20.8214 636.0
20.8649 626.0
20.9083 660.0
20.9518 645.0
20.9953 600.0
21.0387 603.0
21.0822 576.0
21.1257 642.0
21.1691 620.0
21.2126 581.0
21.2561 569.0
21.2995 582.0
21.343 585.0
21.3864 574.0
21.4299 544.0
21.4734 532.0
21.5168 547.0
21.5603 562.0
21.6038 574.0
21.6472 518.0
21.6907 581.0
21.7342 521.0
21.7776 555.0
21.8211 528.0
21.8646 537.0
21.908 535.0
21.9515 569.0
21.995 547.0
22.0384 520.0
22.0819 570.0
22.1254 502.0
22.1688 569.0
22.2123 511.0
22.2558 511.0
22.2992 512.0
22.3427 501.0
22.3862 560.0
22.4296 540.0
22.4731 546.0
22.5166 515.0
22.56 514.0
22.6035 488.0
22.647 531.0
22.6904 430.0
22.7339 469.0
22.7774 482.0
22.8208 471.0
22.8643 461.0
22.9078 457.0
22.9512 429.0
22.9947 447.0
23.0381 459.0
23.0816 481.0
23.1251 451.0
23.1685 446.0
23.212 425.0
23.2555 418.0
23.2989 425.0
23.3424 477.0
23.3859 433.0
23.4293 409.0
23.4728 369.0
23.5163 393.0
23.5597 444.0
23.6032 446.0
23.6467 414.0
23.6901 421.0
23.7336 444.0
23.7771 434.0
23.8205 428.0
23.864 388.0
23.9075 406.0
23.9509 407.0
23.9944 389.0
24.0379 415.0
24.0813 397.0
24.1248 423.0
24.1683 399.0
24.2117 416.0
24.2552 421.0
24.2987 415.0
24.3421 398.0
24.3856 414.0
24.4291 404.0
24.4725 362.0
24.516 414.0
24.5595 405.0
24.6029 382.0
24.6464 406.0
24.6898 383.0
24.7333 416.0
24.7768 387.0
24.8202 403.0
24.8637 395.0
24.9072 341.0
24.9506 389.0
24.9941 371.0
25.0376 407.0
25.081 394.0
25.1245 382.0
25.168 374.0
25.2114 374.0
25.2549 354.0
25.2984 386.0
25.3418 398.0
25.3853 409.0
25.4288 354.0
25.4722 384.0
25.5157 375.0
25.5592 374.0
25.6026 390.0
25.6461 382.0
25.6896 387.0
25.733 335.0
25.7765 360.0
25.82 351.0
25.8634 352.0
25.9069 367.0
25.9504 386.0
25.9938 361.0
26.0373 392.0
26.0808 349.0
26.1242 398.0
26.1677 415.0
26.2111 402.0
26.2546 376.0
26.2981 415.0
26.3415 373.0
26.385 386.0
26.4285 361.0
26.4719 338.0
26.5154 367.0
26.5589 344.0
26.6023 368.0
26.6458 356.0
26.6893 389.0
26.7327 382.0
26.7762 341.0
26.8197 380.0
26.8631 351.0
26.9066 371.0
26.9501 392.0
26.9935 432.0
27.037 353.0
27.0805 417.0
27.1239 372.0
27.1674 370.0
27.2109 412.0
27.2543 442.0
27.2978 478.0
27.3413 494.0
27.3847 450.0
27.4282 423.0
27.4717 415.0
27.5151 393.0
27.5586 387.0
27.6021 406.0
27.6455 395.0
27.689 366.0
27.7325 359.0
27.7759 412.0
27.8194 406.0
27.8628 379.0
27.9063 376.0
27.9498 369.0
27.9932 364.0
28.0367 387.0
28.0802 381.0
28.1236 416.0
28.1671 389.0
28.2106 399.0
28.254 387.0
28.2975 432.0
28.341 392.0
28.3844 420.0
28.4279 531.0
28.4714 631.0
28.5148 692.0
28.5583 742.0
28.6018 688.0
28.6452 516.0
28.6887 403.0
28.7322 368.0
28.7756 373.0
28.8191 406.0
28.8626 360.0
28.906 385.0
28.9495 385.0
28.993 393.0
29.0364 417.0
29.0799 355.0
29.1234 333.0
29.1668 395.0
29.2103 364.0
29.2538 349.0
29.2972 369.0
29.3407 402.0
29.3841 359.0
29.4276 333.0
29.4711 368.0
29.5145 357.0
29.558 353.0
29.6015 388.0
29.6449 365.0
29.6884 348.0
29.7319 376.0
29.7753 385.0
29.8188 348.0
29.8623 347.0
29.9057 332.0
29.9492 380.0
29.9927 394.0
30.0361 362.0
30.0796 402.0
30.1231 363.0
30.1665 358.0
30.21 389.0
30.2535 396.0
30.2969 379.0
30.3404 363.0
30.3839 400.0
30.4273 438.0
30.4708 455.0
30.5143 636.0
30.5577 685.0
30.6012 886.0
30.6447 976.0
30.6881 964.0
30.7316 1039.0
30.7751 1070.0
30.8185 1082.0
30.862 1065.0
30.9055 1029.0
30.9489 1042.0
30.9924 1128.0
31.0358 1204.0
31.0793 1232.0
31.1228 1510.0
31.1662 1741.0
31.2097 2082.0
31.2532 2416.0
31.2966 2747.0
31.3401 3049.0
31.3836 3936.0
31.427 5318.0
31.4705 9077.0
31.514 19963.0
31.5574 42034.0
31.6009 79967.0
31.6444 112739.0
31.6878 150386.0
31.7313 135082.0
31.7748 87998.0
31.8182 52866.0
31.8617 19192.0
31.9052 9021.0
31.9486 5065.0
31.9921 3368.0
32.0356 2646.0
32.079 2119.0
32.1225 1697.0
32.166 1467.0
32.2094 1220.0
32.2529 1075.0
32.2964 1038.0
32.3398 919.0
32.3833 884.0
32.4268 891.0
32.4702 824.0
32.5137 907.0
32.5572 798.0
32.6006 801.0
32.6441 820.0
32.6875 736.0
32.731 739.0
32.7745 754.0
32.8179 721.0
32.8614 690.0
32.9049 684.0
32.9483 677.0
32.9918 713.0
33.0353 634.0
33.0787 639.0
33.1222 654.0
33.1657 631.0
33.2091 613.0
33.2526 607.0
33.2961 638.0
33.3395 562.0
33.383 604.0
33.4265 552.0
33.4699 574.0
33.5134 552.0
33.5569 619.0
33.6003 569.0
33.6438 537.0
33.6873 537.0
33.7307 498.0
33.7742 511.0
33.8177 502.0
33.8611 504.0
33.9046 537.0
33.9481 544.0
33.9915 492.0
34.035 545.0
34.0785 512.0
34.1219 506.0
34.1654 483.0
34.2088 548.0
34.2523 494.0
34.2958 483.0
34.3392 450.0
34.3827 457.0
34.4262 489.0
34.4696 506.0
34.5131 490.0
34.5566 519.0
34.6 487.0
34.6435 519.0
34.687 462.0
34.7304 487.0
34.7739 453.0
34.8174 454.0
34.8608 407.0
34.9043 430.0
34.9478 438.0
34.9912 416.0
35.0347 431.0
35.0782 404.0
35.1216 374.0
35.1651 369.0
35.2086 380.0
35.252 421.0
35.2955 389.0
35.339 397.0
35.3824 407.0
35.4259 387.0
35.4694 383.0
35.5128 405.0
35.5563 383.0
35.5998 351.0
35.6432 362.0
35.6867 345.0
35.7302 355.0
35.7736 342.0
35.8171 384.0
35.8605 374.0
35.904 330.0
35.9475 368.0
35.9909 344.0
36.0344 350.0
36.0779 346.0
36.1213 375.0
36.1648 352.0
36.2083 318.0
36.2517 341.0
36.2952 326.0
36.3387 348.0
36.3821 364.0
36.4256 350.0
36.4691 367.0
36.5125 329.0
36.556 306.0
36.5995 313.0
36.6429 286.0
36.6864 308.0
36.7299 335.0
36.7733 330.0
36.8168 317.0
36.8603 328.0
36.9037 293.0
36.9472 295.0
36.9907 321.0
37.0341 298.0
37.0776 317.0
37.1211 281.0
37.1645 277.0
37.208 323.0
37.2515 316.0
37.2949 286.0
37.3384 291.0
37.3818 292.0
37.4253 308.0
37.4688 282.0
37.5122 300.0
37.5557 279.0
37.5992 286.0
37.6426 289.0
37.6861 261.0
37.7296 292.0
37.773 274.0
37.8165 279.0
37.86 266.0
37.9034 246.0
37.9469 243.0
37.9904 278.0
38.0338 270.0
38.0773 259.0
38.1208 280.0
38.1642 271.0
38.2077 249.0
38.2512 262.0
38.2946 256.0
38.3381 258.0
38.3816 271.0
38.425 228.0
38.4685 243.0
38.512 262.0
38.5554 251.0
38.5989 243.0
38.6424 230.0
38.6858 244.0
38.7293 201.0
38.7728 220.0
38.8162 260.0
38.8597 241.0
38.9032 233.0
38.9466 257.0
38.9901 219.0
39.0335 251.0
39.077 260.0
39.1205 230.0
39.1639 245.0
39.2074 228.0
39.2509 233.0
39.2943 224.0
39.3378 241.0
39.3813 264.0
39.4247 210.0
39.4682 222.0
39.5117 257.0
39.5551 262.0
39.5986 257.0
39.6421 261.0
39.6855 200.0
39.729 245.0
39.7725 206.0
39.8159 224.0
39.8594 236.0
39.9029 221.0
39.9463 225.0
39.9898 216.0
40.0333 209.0
40.0767 191.0
40.1202 204.0
40.1637 233.0
40.2071 235.0
40.2506 223.0
40.2941 211.0
40.3375 219.0
40.381 212.0
40.4245 201.0
40.4679 203.0
40.5114 196.0
40.5548 196.0
40.5983 232.0
40.6418 230.0
40.6852 188.0
40.7287 193.0
40.7722 188.0
40.8156 218.0
40.8591 225.0
40.9026 188.0
40.946 224.0
40.9895 177.0
41.033 189.0
41.0764 210.0
41.1199 209.0
41.1634 185.0
41.2068 198.0
41.2503 202.0
41.2938 190.0
41.3372 191.0
41.3807 185.0
41.4242 173.0
41.4676 205.0
41.5111 208.0
41.5546 194.0
41.598 203.0
41.6415 175.0
41.685 209.0
41.7284 201.0
41.7719 189.0
41.8154 193.0
41.8588 170.0
41.9023 163.0
41.9458 205.0
41.9892 183.0
42.0327 199.0
42.0762 192.0
42.1196 202.0
42.1631 202.0
42.2065 210.0
42.25 175.0
42.2935 147.0
42.3369 157.0
42.3804 192.0
42.4239 171.0
42.4673 187.0
42.5108 184.0
42.5543 178.0
42.5977 167.0
42.6412 175.0
42.6847 176.0
42.7281 193.0
42.7716 188.0
42.8151 149.0
42.8585 165.0
42.902 178.0
42.9455 169.0
42.9889 184.0
43.0324 172.0
43.0759 181.0
43.1193 172.0
43.1628 154.0
43.2063 174.0
43.2497 191.0
43.2932 167.0
43.3367 168.0
43.3801 160.0
43.4236 168.0
43.4671 176.0
43.5105 176.0
43.554 195.0
43.5975 165.0
43.6409 194.0
43.6844 217.0
43.7279 263.0
43.7713 243.0
43.8148 208.0
43.8582 215.0
43.9017 190.0
43.9452 182.0
43.9886 191.0
44.0321 175.0
44.0756 180.0
44.119 204.0
44.1625 176.0
44.206 176.0
44.2494 192.0
44.2929 179.0
44.3364 191.0
44.3798 169.0
44.4233 160.0
44.4668 158.0
44.5102 175.0
44.5537 164.0
44.5972 158.0
44.6406 186.0
44.6841 175.0
44.7276 173.0
44.771 146.0
44.8145 182.0
44.858 194.0
44.9014 162.0
44.9449 179.0
44.9884 196.0
45.0318 207.0
45.0753 212.0
45.1188 230.0
45.1622 296.0
45.2057 305.0
45.2492 424.0
45.2926 539.0
45.3361 1126.0
45.3795 2095.0
45.423 2533.0
45.4665 2702.0
45.5099 3112.0
45.5534 2339.0
45.5969 1427.0
45.6403 1119.0
45.6838 613.0
45.7273 303.0
45.7707 259.0
45.8142 230.0
45.8577 191.0
45.9011 170.0
45.9446 194.0
45.9881 156.0
46.0315 176.0
46.075 178.0
46.1185 140.0
46.1619 187.0
46.2054 163.0
46.2489 145.0
46.2923 153.0
46.3358 160.0
46.3793 172.0
46.4227 168.0
46.4662 152.0
46.5097 163.0
46.5531 137.0
46.5966 156.0
46.6401 153.0
46.6835 148.0
46.727 155.0
46.7705 132.0
46.8139 151.0
46.8574 145.0
46.9009 157.0
46.9443 154.0
46.9878 150.0
47.0312 125.0
47.0747 152.0
47.1182 132.0
47.1616 154.0
47.2051 172.0
47.2486 154.0
47.292 127.0
47.3355 152.0
47.379 176.0
47.4224 136.0
47.4659 147.0
47.5094 149.0
47.5528 140.0
47.5963 141.0
47.6398 156.0
47.6832 127.0
47.7267 139.0
47.7702 148.0
47.8136 134.0
47.8571 134.0
47.9006 162.0
47.944 147.0
47.9875 162.0
48.031 127.0
48.0744 141.0
48.1179 136.0
48.1614 140.0
48.2048 148.0
48.2483 142.0
48.2918 161.0
48.3352 128.0
48.3787 160.0
48.4222 135.0
48.4656 136.0
48.5091 161.0
48.5525 152.0
48.596 142.0
48.6395 115.0
48.6829 157.0
48.7264 141.0
48.7699 104.0
48.8133 126.0
48.8568 121.0
48.9003 130.0
48.9437 130.0
48.9872 146.0
49.0307 132.0
49.0741 149.0
49.1176 127.0
49.1611 121.0
49.2045 135.0
49.248 134.0
49.2915 120.0
49.3349 139.0
49.3784 124.0
49.4219 131.0
49.4653 116.0
49.5088 119.0
49.5523 125.0
49.5957 141.0
49.6392 112.0
49.6827 116.0
49.7261 144.0
49.7696 138.0
49.8131 116.0
49.8565 112.0
49.9 118.0
49.9435 123.0
49.9869 114.0
50.0304 119.0
50.0739 131.0
50.1173 131.0
50.1608 118.0
50.2042 112.0
50.2477 144.0
50.2912 103.0
50.3346 132.0
50.3781 134.0
50.4216 124.0
50.465 108.0
50.5085 115.0
50.552 118.0
50.5954 147.0
50.6389 106.0
50.6824 128.0
50.7258 149.0
50.7693 129.0
50.8128 95.0
50.8562 125.0
50.8997 116.0
50.9432 114.0
50.9866 109.0
51.0301 145.0
51.0736 104.0
51.117 121.0
51.1605 123.0
51.204 130.0
51.2474 124.0
51.2909 133.0
51.3344 129.0
51.3778 128.0
51.4213 140.0
51.4648 134.0
51.5082 99.0
51.5517 129.0
51.5952 147.0
51.6386 113.0
51.6821 135.0
51.7256 129.0
51.769 123.0
51.8125 103.0
51.8559 104.0
51.8994 101.0
51.9429 93.0
51.9863 139.0
52.0298 95.0
52.0733 116.0
52.1167 115.0
52.1602 119.0
52.2037 124.0
52.2471 125.0
52.2906 145.0
52.3341 140.0
52.3775 134.0
52.421 110.0
52.4645 127.0
52.5079 115.0
52.5514 126.0
52.5949 109.0
52.6383 128.0
52.6818 125.0
52.7253 124.0
52.7687 112.0
52.8122 109.0
52.8557 120.0
52.8991 125.0
52.9426 132.0
52.9861 119.0
53.0295 121.0
53.073 115.0
53.1165 117.0
53.1599 105.0
53.2034 123.0
53.2469 123.0
53.2903 109.0
53.3338 125.0
53.3772 113.0
53.4207 123.0
53.4642 132.0
53.5076 122.0
53.5511 112.0
53.5946 119.0
53.638 127.0
53.6815 147.0
53.725 149.0
53.7684 178.0
53.8119 218.0
53.8554 273.0
53.8988 294.0
53.9423 233.0
53.9858 222.0
54.0292 184.0
54.0727 162.0
54.1162 120.0
54.1596 117.0
54.2031 131.0
54.2466 117.0
54.29 87.0
54.3335 120.0
54.377 108.0
54.4204 123.0
54.4639 78.0
54.5074 109.0
54.5508 112.0
54.5943 110.0
54.6378 107.0
54.6812 125.0
54.7247 115.0
54.7682 108.0
54.8116 101.0
54.8551 111.0
54.8986 129.0
54.942 102.0
54.9855 108.0
55.0289 111.0
55.0724 125.0
55.1159 104.0
55.1593 91.0
55.2028 114.0
55.2463 124.0
55.2897 106.0
55.3332 121.0
55.3767 102.0
55.4201 107.0
55.4636 137.0
55.5071 96.0
55.5505 93.0
55.594 104.0
55.6375 102.0
55.6809 118.0
55.7244 112.0
55.7679 101.0
55.8113 130.0
55.8548 120.0
55.8983 133.0
55.9417 145.0
55.9852 121.0
56.0287 134.0
56.0721 121.0
56.1156 137.0
56.1591 127.0
56.2025 131.0
56.246 148.0
56.2895 190.0
56.3329 246.0
56.3764 429.0
56.4199 564.0
56.4633 423.0
56.5068 316.0
56.5502 382.0
56.5937 360.0
56.6372 181.0
56.6806 156.0
56.7241 170.0
56.7676 124.0
56.811 114.0
56.8545 113.0
56.898 122.0
56.9414 121.0
56.9849 123.0
57.0284 92.0
57.0718 113.0
57.1153 106.0
57.1588 107.0
57.2022 115.0
57.2457 105.0
57.2892 109.0
57.3326 99.0
57.3761 99.0
57.4196 96.0
57.463 118.0
57.5065 106.0
57.55 111.0
57.5934 111.0
57.6369 120.0
57.6804 92.0
57.7238 119.0
57.7673 114.0
57.8108 114.0
57.8542 104.0
57.8977 96.0
57.9412 109.0
57.9846 106.0
58.0281 117.0
58.0716 101.0
58.115 100.0
58.1585 125.0
58.2019 109.0
58.2454 121.0
58.2889 107.0
58.3323 115.0
58.3758 97.0
58.4193 114.0
58.4627 106.0
58.5062 111.0
58.5497 127.0
58.5931 121.0
58.6366 111.0
58.6801 120.0
58.7235 117.0
58.767 99.0
58.8105 119.0
58.8539 122.0
58.8974 117.0
58.9409 119.0
58.9843 118.0
59.0278 140.0
59.0713 162.0
59.1147 149.0
59.1582 135.0
59.2017 121.0
59.2451 102.0
59.2886 115.0
59.3321 109.0
59.3755 102.0
59.419 119.0
59.4625 101.0
59.5059 109.0
59.5494 99.0
59.5929 120.0
59.6363 121.0
59.6798 112.0
59.7233 121.0
59.7667 124.0
59.8102 116.0
59.8536 100.0
59.8971 105.0
59.9406 97.0
59.984 94.0
59.9949 110.0