File: XRD/2025_06_03_CBD_Sorbic_Acid_MC15.xy
10.0054 6618.0
10.0598 8663.0
10.1141 11014.0
10.1684 13865.0
10.2228 16163.0
10.2771 15803.0
10.3314 10857.0
10.3858 5014.0
10.4401 2990.0
10.4944 2697.0
10.5488 2581.0
10.6031 2563.0
10.6574 2552.0
10.7118 2622.0
10.7661 2543.0
10.8204 2666.0
10.8747 2667.0
10.9291 3016.0
10.9834 3194.0
11.0377 3666.0
11.0921 4365.0
11.1464 5279.0
11.2007 7115.0
11.2551 9868.0
11.3094 13022.0
11.3637 16152.0
11.4181 17850.0
11.4724 16092.0
11.5267 10538.0
11.5811 7845.0
11.6354 8471.0
11.6897 10246.0
11.7441 11798.0
11.7984 11746.0
11.8527 8370.0
11.9071 4509.0
11.9614 3077.0
12.0157 2702.0
12.0701 2947.0
12.1244 3061.0
12.1787 3223.0
12.2331 3529.0
12.2874 4259.0
12.3417 5361.0
12.3961 7182.0
12.4504 8727.0
12.5047 10166.0
12.559 10607.0
12.6134 8557.0
12.6677 6362.0
12.722 6932.0
12.7764 9531.0
12.8307 12973.0
12.885 16884.0
12.9394 20312.0
12.9937 22491.0
13.048 19462.0
13.1024 16253.0
13.1567 15630.0
13.211 14109.0
13.2654 9544.0
13.3197 5169.0
13.374 3628.0
13.4284 3414.0
13.4827 3640.0
13.537 4105.0
13.5914 5124.0
13.6457 7356.0
13.7 9256.0
13.7544 10911.0
13.8087 11672.0
13.863 9913.0
13.9174 5823.0
13.9717 3251.0
14.026 2724.0
14.0803 2518.0
14.1347 2542.0
14.189 2484.0
14.2433 2535.0
14.2977 2370.0
14.352 2491.0
14.4063 2497.0
14.4607 2515.0
14.515 2515.0
14.5693 2605.0
14.6237 2667.0
14.678 2920.0
14.7323 3063.0
14.7867 3568.0
14.841 4372.0
14.8953 5909.0
14.9497 8439.0
15.004 10986.0
15.0583 13343.0
15.1127 14345.0
15.167 11983.0
15.2213 7125.0
15.2757 4463.0
15.33 3974.0
15.3843 3892.0
15.4387 3895.0
15.493 3105.0
15.5473 2627.0
15.6016 2562.0
15.656 2472.0
15.7103 2500.0
15.7646 2595.0
15.819 2683.0
15.8733 2930.0
15.9276 3223.0
15.982 3736.0
16.0363 4326.0
16.0906 4308.0
16.145 4219.0
16.1993 3552.0
16.2536 2791.0
16.308 2658.0
16.3623 2750.0
16.4166 3070.0
16.471 3724.0
16.5253 4099.0
16.5796 4707.0
16.634 4719.0
16.6883 4592.0
16.7426 3951.0
16.797 3467.0
16.8513 3902.0
16.9056 4307.0
16.96 4755.0
17.0143 5370.0
17.0686 5652.0
17.123 5861.0
17.1773 7114.0
17.2316 10627.0
17.2859 15365.0
17.3403 19466.0
17.3946 22002.0
17.4489 21401.0
17.5033 14863.0
17.5576 7602.0
17.6119 4137.0
17.6663 3321.0
17.7206 3463.0
17.7749 3924.0
17.8293 4556.0
17.8836 4855.0
17.9379 5302.0
17.9923 4982.0
18.0466 4660.0
18.1009 4392.0
18.1553 4759.0
18.2096 5100.0
18.2639 5189.0
18.3183 4730.0
18.3726 4081.0
18.4269 3960.0
18.4813 4692.0
18.5356 6489.0
18.5899 9199.0
18.6443 13024.0
18.6986 17028.0
18.7529 19280.0
18.8072 21079.0
18.8616 19406.0
18.9159 15843.0
18.9702 13577.0
19.0246 12174.0
19.0789 9294.0
19.1332 7241.0
19.1876 6330.0
19.2419 5267.0
19.2962 4981.0
19.3506 5634.0
19.4049 6630.0
19.4592 7700.0
19.5136 8374.0
19.5679 8487.0
19.6222 7229.0
19.6766 5390.0
19.7309 4571.0
19.7852 4487.0
19.8396 4499.0
19.8939 3707.0
19.9482 3416.0
20.0026 3414.0
20.0569 3416.0
20.1112 3435.0
20.1656 3490.0
20.2199 3717.0
20.2742 4402.0
20.3286 5777.0
20.3829 8393.0
20.4372 11356.0
20.4915 13995.0
20.5459 15432.0
20.6002 15428.0
20.6545 11677.0
20.7089 7510.0
20.7632 6160.0
20.8175 7027.0
20.8719 7696.0
20.9262 7759.0
20.9805 7050.0
21.0349 5234.0
21.0892 3787.0
21.1435 3528.0
21.1979 3402.0
21.2522 3465.0
21.3065 3741.0
21.3609 4037.0
21.4152 4887.0
21.4695 6783.0
21.5239 10269.0
21.5782 13522.0
21.6325 16051.0
21.6869 16876.0
21.7412 14699.0
21.7955 10249.0
21.8499 7497.0
21.9042 8923.0
21.9585 13077.0
22.0128 18792.0
22.0672 24062.0
22.1215 26361.0
22.1758 25481.0
22.2302 21461.0
22.2845 15496.0
22.3388 9718.0
22.3932 7825.0
22.4475 8707.0
22.5018 11750.0
22.5562 18902.0
22.6105 29303.0
22.6648 39617.0
22.7192 47753.0
22.7735 52200.0
22.8278 46480.0
22.8822 32758.0
22.9365 23569.0
22.9908 18051.0
23.0452 12400.0
23.0995 8596.0
23.1538 6975.0
23.2082 7546.0
23.2625 9079.0
23.3168 10509.0
23.3712 11369.0
23.4255 11007.0
23.4798 9454.0
23.5342 7814.0
23.5885 7991.0
23.6428 9037.0
23.6971 9977.0
23.7515 10314.0
23.8058 9723.0
23.8601 7874.0
23.9145 6223.0
23.9688 4829.0
24.0231 3978.0
24.0775 3736.0
24.1318 3893.0
24.1861 4354.0
24.2405 5118.0
24.2948 6422.0
24.3491 7420.0
24.4035 8089.0
24.4578 8666.0
24.5121 9469.0
24.5665 12044.0
24.6208 17201.0
24.6751 21901.0
24.7295 24006.0
24.7838 22740.0
24.8381 15807.0
24.8925 8746.0
24.9468 5119.0
25.0011 4261.0
25.0555 4432.0
25.1098 4966.0
25.1641 5930.0
25.2184 6861.0
25.2728 7062.0
25.3271 6794.0
25.3814 6051.0
25.4358 5162.0
25.4901 4585.0
25.5444 4351.0
25.5988 4310.0
25.6531 4173.0
25.7074 3765.0
25.7618 3311.0
25.8161 3084.0
25.8704 3195.0
25.9248 3060.0
25.9791 3126.0
26.0334 3241.0
26.0878 3327.0
26.1421 3631.0
26.1964 3865.0
26.2508 4073.0
26.3051 4374.0
26.3594 4819.0
26.4138 5377.0
26.4681 5802.0
26.5224 5809.0
26.5768 5641.0
26.6311 5199.0
26.6854 4831.0
26.7398 4423.0
26.7941 4014.0
26.8484 3783.0
26.9027 3517.0
26.9571 3898.0
27.0114 4383.0
27.0657 4830.0
27.1201 5300.0
27.1744 5413.0
27.2287 5386.0
27.2831 5247.0
27.3374 5597.0
27.3917 6503.0
27.4461 8207.0
27.5004 10748.0
27.5547 15084.0
27.6091 19977.0
27.6634 23875.0
27.7177 25190.0
27.7721 22176.0
27.8264 14908.0
27.8807 8321.0
27.9351 4798.0
27.9894 3882.0
28.0437 3559.0
28.0981 3611.0
28.1524 3436.0
28.2067 3414.0
28.2611 3456.0
28.3154 3522.0
28.3697 3730.0
28.424 3778.0
28.4784 3906.0
28.5327 3990.0
28.587 4039.0
28.6414 4226.0
28.6957 4258.0
28.75 4383.0
28.8044 4183.0
28.8587 4109.0
28.913 4867.0
28.9674 5943.0
29.0217 6871.0
29.076 7129.0
29.1304 6701.0
29.1847 5553.0
29.239 4070.0
29.2934 3515.0
29.3477 3240.0
29.402 3364.0
29.4564 3217.0
29.5107 3319.0
29.565 3143.0
29.6194 2947.0
29.6737 2760.0
29.728 2480.0
29.7824 2319.0
29.8367 2303.0
29.891 2294.0
29.9454 2270.0
29.9997 2275.0
30.054 2232.0
30.1083 2233.0
30.1627 2341.0
30.217 2485.0
30.2713 2568.0
30.3257 2729.0
30.38 2896.0
30.4343 2847.0
30.4887 2795.0
30.543 2864.0
30.5973 2832.0
30.6517 2728.0
30.706 2831.0
30.7603 2788.0
30.8147 2665.0
30.869 2549.0
30.9233 2609.0
30.9777 2821.0
31.032 3207.0
31.0863 3712.0
31.1407 3709.0
31.195 3856.0
31.2493 3707.0
31.3037 3380.0
31.358 3224.0
31.4123 3196.0
31.4667 3250.0
31.521 3240.0
31.5753 3145.0
31.6296 2928.0
31.684 2725.0
31.7383 2533.0
31.7926 2729.0
31.847 2812.0
31.9013 3001.0
31.9556 3178.0
32.01 3529.0
32.0643 3788.0
32.1186 4239.0
32.173 4167.0
32.2273 3973.0
32.2816 3173.0
32.336 3169.0
32.3903 3244.0
32.4446 3697.0
32.499 4128.0
32.5533 4040.0
32.6076 3907.0
32.662 3528.0
32.7163 2916.0
32.7706 2648.0
32.825 2651.0
32.8793 2703.0
32.9336 2667.0
32.988 2524.0
33.0423 2533.0
33.0966 2548.0
33.151 2777.0
33.2053 2988.0
33.2596 3042.0
33.3139 3085.0
33.3683 2988.0
33.4226 2687.0
33.4769 2484.0
33.5313 2387.0
33.5856 2373.0
33.6399 2457.0
33.6943 2506.0
33.7486 2544.0
33.8029 2610.0
33.8573 2899.0
33.9116 3404.0
33.9659 3551.0
34.0203 3564.0
34.0746 3561.0
34.1289 2980.0
34.1833 2707.0
34.2376 2482.0
34.2919 2453.0
34.3463 2488.0
34.4006 2575.0
34.4549 2686.0
34.5093 2771.0
34.5636 2817.0
34.6179 2969.0
34.6723 3205.0
34.7266 3359.0
34.7809 3126.0
34.8352 3025.0
34.8896 2841.0
34.9439 2714.0
34.9982 2752.0
35.0526 2776.0
35.1069 2878.0
35.1612 2909.0
35.2156 2897.0
35.2699 3005.0
35.3242 2833.0
35.3786 2678.0
35.4329 2591.0
35.4872 2699.0
35.5416 2794.0
35.5959 2897.0
35.6502 3005.0
35.7046 2858.0
35.7589 3092.0
35.8132 3376.0
35.8676 3441.0
35.9219 3622.0
35.9762 3531.0
36.0306 3056.0
36.0849 2625.0
36.1392 2288.0
36.1936 2235.0
36.2479 2202.0
36.3022 2215.0
36.3566 2349.0
36.4109 2470.0
36.4652 2545.0
36.5195 2721.0
36.5739 2797.0
36.6282 2850.0
36.6825 2685.0
36.7369 2598.0
36.7912 2674.0
36.8455 2780.0
36.8999 2949.0
36.9542 3003.0
37.0085 3042.0
37.0629 2856.0
37.1172 2575.0
37.1715 2360.0
37.2259 2255.0
37.2802 2120.0
37.3345 2111.0
37.3889 2098.0
37.4432 2118.0
37.4975 2090.0
37.5519 2127.0
37.6062 2081.0
37.6605 2041.0
37.7149 2227.0
37.7692 2401.0
37.8235 2422.0
37.8779 2507.0
37.9322 2230.0
37.9865 2236.0
38.0408 2258.0
38.0952 2330.0
38.1495 2268.0
38.2038 2218.0
38.2582 2143.0
38.3125 2073.0
38.3668 1890.0
38.4212 2012.0
38.4755 1873.0
38.5298 1998.0
38.5842 1903.0
38.6385 1946.0
38.6928 1989.0
38.7472 2128.0
38.8015 2264.0
38.8558 2280.0
38.9102 2473.0
38.9645 2431.0
39.0188 2465.0
39.0732 2552.0
39.1275 2631.0
39.1818 2868.0
39.2362 3084.0
39.2905 2970.0
39.3448 3037.0
39.3992 2826.0
39.4535 2627.0
39.5078 2535.0
39.5622 2390.0
39.6165 2441.0
39.6708 2401.0
39.7251 2544.0
39.7795 3000.0
39.8338 3394.0
39.8881 3822.0
39.9425 4067.0
39.9968 4001.0
40.0511 3480.0
40.1055 2950.0
40.1598 2610.0
40.2141 2336.0
40.2685 2409.0
40.3228 2375.0
40.3771 2424.0
40.4315 2518.0
40.4858 2576.0
40.5401 2690.0
40.5945 2661.0
40.6488 2683.0
40.7031 2745.0
40.7575 2733.0
40.8118 2726.0
40.8661 2721.0
40.9205 2514.0
40.9748 2325.0
41.0291 2220.0
41.0835 2318.0
41.1378 2377.0
41.1921 2450.0
41.2464 2429.0
41.3008 2262.0
41.3551 2068.0
41.4094 2033.0
41.4638 1865.0
41.5181 1854.0
41.5724 1882.0
41.6268 1883.0
41.6811 1965.0
41.7354 2036.0
41.7898 2128.0
41.8441 2123.0
41.8984 2112.0
41.9528 1995.0
42.0071 1867.0
42.0614 1760.0
42.1158 1767.0
42.1701 1772.0
42.2244 1814.0
42.2788 1838.0
42.3331 2051.0
42.3874 2114.0
42.4418 2259.0
42.4961 2467.0
42.5504 2516.0
42.6048 2612.0
42.6591 2366.0
42.7134 2353.0
42.7677 2175.0
42.8221 2002.0
42.8764 1942.0
42.9307 2045.0
42.9851 2077.0
43.0394 2174.0
43.0937 2367.0
43.1481 2416.0
43.2024 2455.0
43.2567 2348.0
43.3111 2285.0
43.3654 2163.0
43.4197 2006.0
43.4741 1900.0
43.5284 1829.0
43.5827 1795.0
43.6371 1677.0
43.6914 1721.0
43.7457 1681.0
43.8001 1635.0
43.8544 1694.0
43.9087 1592.0
43.9631 1475.0
44.0174 1602.0
44.0717 1571.0
44.1261 1579.0
44.1804 1691.0
44.2347 1701.0
44.2891 1835.0
44.3434 1717.0
44.3977 1691.0
44.452 1700.0
44.5064 1662.0
44.5607 1691.0
44.615 1696.0
44.6694 1667.0
44.7237 1674.0
44.778 1707.0
44.8324 1720.0
44.8867 1910.0
44.941 1918.0
44.9954 2146.0
45.0497 2256.0
45.104 2338.0
45.1584 2192.0
45.2127 2106.0
45.267 2035.0
45.3214 1955.0
45.3757 1883.0
45.43 1937.0
45.4844 1857.0
45.5387 2035.0
45.593 2079.0
45.6474 2074.0
45.7017 2126.0
45.756 2098.0
45.8104 2101.0
45.8647 2197.0
45.919 2468.0
45.9733 2659.0
46.0277 2796.0
46.082 2752.0
46.1363 2667.0
46.1907 2350.0
46.245 2273.0
46.2993 2071.0
46.3537 1983.0
46.408 2000.0
46.4623 1849.0
46.5167 1916.0
46.571 1959.0
46.6253 1867.0
46.6797 2119.0
46.734 2186.0
46.7883 2270.0
46.8427 2201.0
46.897 2161.0
46.9513 1922.0
47.0057 1783.0
47.06 1635.0
47.1143 1698.0
47.1687 1591.0
47.223 1650.0
47.2773 1626.0
47.3317 1632.0
47.386 1668.0
47.4403 1887.0
47.4947 1835.0
47.549 1938.0
47.6033 1987.0
47.6576 1866.0
47.712 1810.0
47.7663 1788.0
47.8206 1779.0
47.875 1808.0
47.9293 1789.0
47.9836 1824.0
48.038 1789.0
48.0923 1931.0
48.1466 1906.0
48.201 1879.0
48.2553 1834.0
48.3096 1820.0
48.364 1679.0
48.4183 1598.0
48.4726 1520.0
48.527 1529.0
48.5813 1508.0
48.6356 1628.0
48.69 1583.0
48.7443 1438.0
48.7986 1512.0
48.853 1543.0
48.9073 1593.0
48.9616 1619.0
49.016 1697.0
49.0703 1681.0
49.1246 1663.0
49.1789 1742.0
49.2333 1755.0
49.2876 1688.0
49.3419 1606.0
49.3963 1663.0
49.4506 1647.0
49.5049 1560.0
49.5593 1515.0
49.6136 1509.0
49.6679 1528.0
49.7223 1530.0
49.7766 1353.0
49.8309 1451.0
49.8853 1484.0
49.9396 1525.0
49.9939 1607.0
50.0483 1595.0
50.1026 1693.0
50.1569 1596.0
50.2113 1475.0
50.2656 1534.0
50.3199 1488.0
50.3743 1513.0
50.4286 1535.0
50.4829 1499.0
50.5373 1521.0
50.5916 1552.0
50.6459 1451.0
50.7003 1531.0
50.7546 1561.0
50.8089 1528.0
50.8632 1556.0
50.9176 1545.0
50.9719 1626.0
51.0262 1508.0
51.0806 1553.0
51.1349 1499.0
51.1892 1621.0
51.2436 1452.0
51.2979 1374.0
51.3522 1418.0
51.4066 1428.0
51.4609 1539.0
51.5152 1576.0
51.5696 1614.0
51.6239 1690.0
51.6782 1618.0
51.7326 1685.0
51.7869 1578.0
51.8412 1574.0
51.8956 1436.0
51.9499 1447.0
52.0042 1523.0
52.0586 1541.0
52.1129 1575.0
52.1672 1531.0
52.2216 1435.0
52.2759 1417.0
52.3302 1369.0
52.3845 1325.0
52.4389 1370.0
52.4932 1336.0
52.5475 1329.0
52.6019 1340.0
52.6562 1368.0
52.7105 1385.0
52.7649 1353.0
52.8192 1346.0
52.8735 1392.0
52.9279 1380.0
52.9822 1408.0
53.0365 1443.0
53.0909 1328.0
53.1452 1296.0
53.1995 1392.0
53.2539 1305.0
53.3082 1326.0
53.3625 1392.0
53.4169 1386.0
53.4712 1354.0
53.5255 1425.0
53.5799 1413.0
53.6342 1465.0
53.6885 1575.0
53.7429 1692.0
53.7972 1626.0
53.8515 1679.0
53.9059 1646.0
53.9602 1519.0
54.0145 1566.0
54.0688 1416.0
54.1232 1330.0
54.1775 1312.0
54.2318 1324.0
54.2862 1273.0
54.3405 1218.0
54.3948 1236.0
54.4492 1231.0
54.5035 1168.0
54.5578 1219.0
54.6122 1230.0
54.6665 1208.0
54.7208 1169.0
54.7752 1225.0
54.8295 1179.0
54.8838 1230.0
54.9382 1233.0
54.9925 1258.0
55.0468 1182.0
55.1012 1195.0
55.1555 1216.0
55.2098 1218.0
55.2642 1263.0
55.3185 1205.0
55.3728 1247.0
55.4272 1251.0
55.4815 1199.0
55.5358 1192.0
55.5901 1247.0
55.6445 1273.0
55.6988 1242.0
55.7531 1262.0
55.8075 1274.0
55.8618 1260.0
55.9161 1376.0
55.9705 1318.0
56.0248 1277.0
56.0791 1299.0
56.1335 1250.0
56.1878 1279.0
56.2421 1237.0
56.2965 1186.0
56.3508 1239.0
56.4051 1172.0
56.4595 1214.0
56.5138 1235.0
56.5681 1168.0
56.6225 1222.0
56.6768 1204.0
56.7311 1211.0
56.7855 1295.0
56.8398 1291.0
56.8941 1264.0
56.9485 1206.0
57.0028 1236.0
57.0571 1268.0
57.1115 1208.0
57.1658 1261.0
57.2201 1299.0
57.2744 1313.0
57.3288 1290.0
57.3831 1270.0
57.4374 1204.0
57.4918 1147.0
57.5461 1152.0
57.6004 1066.0
57.6548 1046.0
57.7091 1119.0
57.7634 1100.0
57.8178 1053.0
57.8721 1138.0
57.9264 1038.0
57.9808 1026.0
58.0351 1151.0
58.0894 1083.0
58.1438 1100.0
58.1981 1071.0
58.2524 1072.0
58.3068 1061.0
58.3611 1082.0
58.4154 1050.0
58.4698 1077.0
58.5241 1043.0
58.5784 1128.0
58.6328 1044.0
58.6871 1164.0
58.7414 1206.0
58.7957 1191.0
58.8501 1184.0
58.9044 1161.0
58.9587 1149.0
59.0131 1088.0
59.0674 1073.0
59.1217 1040.0
59.1761 998.0
59.2304 1084.0
59.2847 1062.0
59.3391 1083.0
59.3934 1153.0
59.4477 1069.0
59.5021 1161.0
59.5564 1131.0
59.6107 1138.0
59.6651 1006.0
59.7194 1039.0
59.7737 980.0
59.8281 1017.0
59.8824 1041.0
59.9367 939.0
59.9911 1035.0
60.0454 908.0
60.0997 952.0
60.1541 993.0
60.2084 1032.0
60.2627 1018.0
60.3171 1010.0
60.3714 997.0
60.4257 1046.0
60.48 1023.0
60.5344 1016.0
60.5887 1006.0
60.643 1020.0
60.6974 1093.0
60.7517 1111.0
60.806 1154.0
60.8604 1039.0
60.9147 1042.0
60.969 1048.0
61.0234 1044.0
61.0777 983.0
61.132 1060.0
61.1864 1000.0
61.2407 1021.0
61.295 1026.0
61.3494 1043.0
61.4037 944.0
61.458 999.0
61.5124 953.0
61.5667 1001.0
61.621 967.0
61.6754 935.0
61.7297 941.0
61.784 916.0
61.8384 901.0
61.8927 884.0
61.947 875.0
62.0013 874.0
62.0557 894.0
62.11 899.0
62.1643 889.0
62.2187 929.0
62.273 918.0
62.3273 990.0
62.3817 961.0
62.436 924.0
62.4903 1011.0
62.5447 977.0
62.599 1006.0
62.6533 959.0
62.7077 1025.0
62.762 963.0
62.8163 938.0
62.8707 998.0
62.925 971.0
62.9793 909.0
63.0337 951.0
63.088 926.0
63.1423 874.0
63.1967 897.0
63.251 886.0
63.3053 891.0
63.3597 904.0
63.414 917.0
63.4683 918.0
63.5227 909.0
63.577 970.0
63.6313 916.0
63.6856 929.0
63.74 862.0
63.7943 913.0
63.8486 809.0
63.903 882.0
63.9573 912.0
64.0116 869.0
64.066 884.0
64.1203 880.0
64.1746 875.0
64.229 855.0
64.2833 866.0
64.3376 875.0
64.392 866.0
64.4463 871.0
64.5006 876.0
64.555 890.0
64.6093 847.0
64.6636 862.0
64.718 843.0
64.7723 826.0
64.8266 748.0
64.881 836.0
64.9353 883.0
64.9896 838.0
65.044 923.0
65.0983 814.0
65.1526 856.0
65.2069 796.0
65.2613 870.0
65.3156 847.0
65.3699 847.0
65.4243 869.0
65.4786 820.0
65.5329 838.0
65.5873 894.0
65.6416 893.0
65.6959 903.0
65.7503 900.0
65.8046 885.0
65.8589 835.0
65.9133 887.0
65.9676 830.0
66.0219 851.0
66.0763 912.0
66.1306 880.0
66.1849 815.0
66.2393 853.0
66.2936 852.0
66.3479 836.0
66.4023 834.0
66.4566 847.0
66.5109 840.0
66.5653 809.0
66.6196 835.0
66.6739 766.0
66.7283 836.0
66.7826 827.0
66.8369 830.0
66.8912 818.0
66.9456 823.0
66.9999 806.0
67.0542 778.0
67.1086 821.0
67.1629 873.0
67.2172 786.0
67.2716 778.0
67.3259 801.0
67.3802 816.0
67.4346 811.0
67.4889 791.0
67.5432 745.0
67.5976 818.0
67.6519 805.0
67.7062 722.0
67.7606 791.0
67.8149 778.0
67.8692 778.0
67.9236 753.0
67.9779 797.0
68.0322 713.0
68.0866 853.0
68.1409 793.0
68.1952 778.0
68.2496 770.0
68.3039 782.0
68.3582 809.0
68.4125 785.0
68.4669 746.0
68.5212 819.0
68.5755 800.0
68.6299 810.0
68.6842 759.0
68.7385 746.0
68.7929 765.0
68.8472 782.0
68.9015 775.0
68.9559 794.0
69.0102 832.0
69.0645 788.0
69.1189 781.0
69.1732 808.0
69.2275 756.0
69.2819 757.0
69.3362 814.0
69.3905 778.0
69.4449 777.0
69.4992 838.0
69.5535 779.0
69.6079 791.0
69.6622 794.0
69.7165 807.0
69.7709 746.0
69.8252 771.0
69.8795 726.0
69.9338 743.0
69.9882 755.0
70.0425 762.0
70.0968 749.0
70.1512 724.0
70.2055 748.0
70.2598 751.0
70.3142 753.0
70.3685 742.0
70.4228 775.0
70.4772 783.0
70.5315 753.0
70.5858 717.0
70.6402 764.0
70.6945 796.0
70.7488 767.0
70.8032 762.0
70.8575 760.0
70.9118 753.0
70.9662 744.0
71.0205 741.0
71.0748 747.0
71.1292 762.0
71.1835 802.0
71.2378 755.0
71.2922 801.0
71.3465 755.0
71.4008 787.0
71.4552 819.0
71.5095 812.0
71.5638 762.0
71.6181 764.0
71.6725 726.0
71.7268 770.0
71.7811 747.0
71.8355 782.0
71.8898 754.0
71.9441 739.0
71.9985 736.0
72.0528 756.0
72.1071 766.0
72.1615 727.0
72.2158 725.0
72.2701 750.0
72.3245 766.0
72.3788 712.0
72.4331 786.0
72.4875 736.0
72.5418 761.0
72.5961 732.0
72.6505 806.0
72.7048 715.0
72.7591 735.0
72.8135 737.0
72.8678 697.0
72.9221 761.0
72.9765 758.0
73.0308 717.0
73.0851 791.0
73.1394 743.0
73.1938 758.0
73.2481 775.0
73.3024 780.0
73.3568 770.0
73.4111 809.0
73.4654 728.0
73.5198 763.0
73.5741 745.0
73.6284 741.0
73.6828 756.0
73.7371 714.0
73.7914 795.0
73.8458 702.0
73.9001 757.0
73.9544 736.0
74.0088 765.0
74.0631 769.0
74.1174 684.0
74.1718 734.0
74.2261 734.0
74.2804 689.0
74.3348 755.0
74.3891 746.0
74.4434 697.0
74.4978 765.0
74.5521 746.0
74.6064 743.0
74.6608 748.0
74.7151 762.0
74.7694 788.0
74.8237 728.0
74.8781 745.0
74.9324 767.0
74.9867 749.0
75.0411 733.0
75.0954 733.0
75.1497 714.0
75.2041 770.0
75.2584 740.0
75.3127 752.0
75.3671 774.0
75.4214 777.0
75.4757 678.0
75.5301 715.0
75.5844 749.0
75.6387 748.0
75.6931 744.0
75.7474 756.0
75.8017 765.0
75.8561 763.0
75.9104 738.0
75.9647 686.0
76.0191 787.0
76.0734 729.0
76.1277 770.0
76.1821 729.0
76.2364 779.0
76.2907 755.0
76.345 730.0
76.3994 731.0
76.4537 729.0
76.508 740.0
76.5624 811.0
76.6167 714.0
76.671 773.0
76.7254 754.0
76.7797 754.0
76.834 753.0
76.8884 753.0
76.9427 739.0
76.997 788.0
77.0514 739.0
77.1057 727.0
77.16 758.0
77.2144 781.0
77.2687 749.0
77.323 770.0
77.3774 712.0
77.4317 729.0
77.486 747.0
77.5404 755.0
77.5947 694.0
77.649 704.0
77.7034 721.0
77.7577 719.0
77.812 763.0
77.8664 738.0
77.9207 752.0
77.975 729.0
78.0293 836.0
78.0837 761.0
78.138 741.0
78.1923 721.0
78.2467 754.0
78.301 743.0
78.3553 726.0
78.4097 757.0
78.464 748.0
78.5183 730.0
78.5727 771.0
78.627 792.0
78.6813 801.0
78.7357 837.0
78.79 833.0
78.8443 755.0
78.8987 780.0
78.953 753.0
79.0073 754.0
79.0617 719.0
79.116 721.0
79.1703 756.0
79.2247 735.0
79.279 728.0
79.3333 735.0
79.3877 703.0
79.442 696.0
79.4963 772.0
79.5506 780.0
79.605 716.0
79.6593 748.0
79.7136 754.0
79.768 703.0
79.8223 738.0
79.8766 788.0
79.931 742.0
79.9853 777.0
79.9962 751.0