File: XRD/2025_06_07_aHIF_Lyoph_Powder_5_90_2m.xy
5.00543 108.0
5.07063 112.0
5.13583 108.0
5.20103 100.0
5.26623 108.0
5.33143 118.0
5.39663 122.0
5.46182 112.0
5.52702 89.0
5.59222 84.0
5.65742 77.0
5.72262 74.0
5.78782 73.0
5.85302 73.0
5.91821 73.0
5.98341 82.0
6.04861 67.0
6.11381 82.0
6.17901 68.0
6.24421 64.0
6.30941 61.0
6.3746 78.0
6.4398 54.0
6.505 71.0
6.5702 68.0
6.6354 65.0
6.7006 62.0
6.7658 50.0
6.831 60.0
6.89619 49.0
6.96139 63.0
7.02659 62.0
7.09179 62.0
7.15699 64.0
7.22219 62.0
7.28739 51.0
7.35258 53.0
7.41778 68.0
7.48298 58.0
7.54818 49.0
7.61338 64.0
7.67858 63.0
7.74378 59.0
7.80897 67.0
7.87417 56.0
7.93937 64.0
8.00457 65.0
8.06977 64.0
8.13497 68.0
8.20017 62.0
8.26537 64.0
8.33056 60.0
8.39576 77.0
8.46096 80.0
8.52616 49.0
8.59136 65.0
8.65656 67.0
8.72176 76.0
8.78695 64.0
8.85215 60.0
8.91735 82.0
8.98255 64.0
9.04775 60.0
9.11295 76.0
9.17815 64.0
9.24334 60.0
9.30854 70.0
9.37374 60.0
9.43894 83.0
9.50414 68.0
9.56934 54.0
9.63454 58.0
9.69974 54.0
9.76493 59.0
9.83013 71.0
9.89533 62.0
9.96053 63.0
10.0257 45.0
10.0909 58.0
10.1561 60.0
10.2213 71.0
10.2865 51.0
10.3517 59.0
10.4169 65.0
10.4821 57.0
10.5473 60.0
10.6125 62.0
10.6777 72.0
10.7429 58.0
10.8081 44.0
10.8733 57.0
10.9385 61.0
11.0037 80.0
11.0689 59.0
11.1341 57.0
11.1993 57.0
11.2645 55.0
11.3297 54.0
11.3949 64.0
11.4601 64.0
11.5253 52.0
11.5905 50.0
11.6557 50.0
11.7209 63.0
11.7861 47.0
11.8513 55.0
11.9165 77.0
11.9817 58.0
12.0469 55.0
12.1121 47.0
12.1773 49.0
12.2425 48.0
12.3077 47.0
12.3729 48.0
12.4381 70.0
12.5033 75.0
12.5685 58.0
12.6337 53.0
12.6989 70.0
12.7641 70.0
12.8293 46.0
12.8945 53.0
12.9597 47.0
13.0249 57.0
13.0901 65.0
13.1553 54.0
13.2205 64.0
13.2857 59.0
13.3509 46.0
13.4161 56.0
13.4813 61.0
13.5465 58.0
13.6117 44.0
13.6769 54.0
13.7421 64.0
13.8072 64.0
13.8724 53.0
13.9376 56.0
14.0028 60.0
14.068 65.0
14.1332 61.0
14.1984 69.0
14.2636 65.0
14.3288 58.0
14.394 58.0
14.4592 40.0
14.5244 56.0
14.5896 49.0
14.6548 67.0
14.72 64.0
14.7852 70.0
14.8504 65.0
14.9156 55.0
14.9808 61.0
15.046 58.0
15.1112 59.0
15.1764 65.0
15.2416 66.0
15.3068 74.0
15.372 61.0
15.4372 62.0
15.5024 53.0
15.5676 72.0
15.6328 65.0
15.698 76.0
15.7632 69.0
15.8284 75.0
15.8936 71.0
15.9588 70.0
16.024 76.0
16.0892 69.0
16.1544 91.0
16.2196 93.0
16.2848 80.0
16.35 69.0
16.4152 69.0
16.4804 84.0
16.5456 92.0
16.6108 79.0
16.676 67.0
16.7412 72.0
16.8064 63.0
16.8716 84.0
16.9368 78.0
17.002 78.0
17.0672 101.0
17.1324 74.0
17.1976 70.0
17.2628 79.0
17.328 85.0
17.3932 88.0
17.4584 79.0
17.5236 81.0
17.5888 120.0
17.654 79.0
17.7192 102.0
17.7844 94.0
17.8496 104.0
17.9148 100.0
17.98 95.0
18.0452 102.0
18.1104 94.0
18.1756 99.0
18.2408 94.0
18.306 114.0
18.3712 103.0
18.4364 108.0
18.5016 126.0
18.5668 108.0
18.6319 94.0
18.6971 109.0
18.7623 99.0
18.8275 105.0
18.8927 113.0
18.9579 123.0
19.0231 117.0
19.0883 125.0
19.1535 110.0
19.2187 133.0
19.2839 109.0
19.3491 95.0
19.4143 111.0
19.4795 132.0
19.5447 114.0
19.6099 117.0
19.6751 109.0
19.7403 114.0
19.8055 98.0
19.8707 109.0
19.9359 114.0
20.0011 122.0
20.0663 108.0
20.1315 131.0
20.1967 102.0
20.2619 112.0
20.3271 119.0
20.3923 94.0
20.4575 91.0
20.5227 87.0
20.5879 112.0
20.6531 93.0
20.7183 110.0
20.7835 111.0
20.8487 113.0
20.9139 101.0
20.9791 109.0
21.0443 96.0
21.1095 109.0
21.1747 101.0
21.2399 101.0
21.3051 83.0
21.3703 94.0
21.4355 102.0
21.5007 96.0
21.5659 109.0
21.6311 91.0
21.6963 99.0
21.7615 82.0
21.8267 94.0
21.8919 85.0
21.9571 93.0
22.0223 104.0
22.0875 88.0
22.1527 116.0
22.2179 94.0
22.2831 94.0
22.3483 93.0
22.4135 83.0
22.4787 68.0
22.5439 86.0
22.6091 95.0
22.6743 107.0
22.7395 82.0
22.8047 91.0
22.8699 97.0
22.9351 92.0
23.0003 77.0
23.0655 92.0
23.1307 90.0
23.1959 78.0
23.2611 88.0
23.3263 92.0
23.3914 84.0
23.4566 89.0
23.5218 78.0
23.587 75.0
23.6522 99.0
23.7174 97.0
23.7826 84.0
23.8478 81.0
23.913 71.0
23.9782 80.0
24.0434 81.0
24.1086 93.0
24.1738 102.0
24.239 83.0
24.3042 61.0
24.3694 76.0
24.4346 73.0
24.4998 81.0
24.565 85.0
24.6302 78.0
24.6954 72.0
24.7606 86.0
24.8258 59.0
24.891 62.0
24.9562 82.0
25.0214 68.0
25.0866 95.0
25.1518 83.0
25.217 52.0
25.2822 58.0
25.3474 68.0
25.4126 71.0
25.4778 57.0
25.543 68.0
25.6082 63.0
25.6734 75.0
25.7386 74.0
25.8038 62.0
25.869 54.0
25.9342 71.0
25.9994 51.0
26.0646 64.0
26.1298 79.0
26.195 67.0
26.2602 53.0
26.3254 74.0
26.3906 73.0
26.4558 63.0
26.521 68.0
26.5862 55.0
26.6514 63.0
26.7166 55.0
26.7818 56.0
26.847 60.0
26.9122 61.0
26.9774 63.0
27.0426 66.0
27.1078 61.0
27.173 70.0
27.2382 66.0
27.3034 49.0
27.3686 65.0
27.4338 54.0
27.499 55.0
27.5642 53.0
27.6294 58.0
27.6946 48.0
27.7598 71.0
27.825 73.0
27.8902 42.0
27.9554 44.0
28.0206 58.0
28.0858 52.0
28.151 68.0
28.2161 54.0
28.2813 42.0
28.3465 58.0
28.4117 59.0
28.4769 62.0
28.5421 57.0
28.6073 52.0
28.6725 46.0
28.7377 53.0
28.8029 45.0
28.8681 54.0
28.9333 60.0
28.9985 65.0
29.0637 60.0
29.1289 55.0
29.1941 46.0
29.2593 51.0
29.3245 60.0
29.3897 58.0
29.4549 40.0
29.5201 50.0
29.5853 71.0
29.6505 60.0
29.7157 40.0
29.7809 45.0
29.8461 52.0
29.9113 49.0
29.9765 50.0
30.0417 37.0
30.1069 68.0
30.1721 47.0
30.2373 48.0
30.3025 36.0
30.3677 44.0
30.4329 51.0
30.4981 43.0
30.5633 50.0
30.6285 47.0
30.6937 51.0
30.7589 44.0
30.8241 38.0
30.8893 54.0
30.9545 43.0
31.0197 54.0
31.0849 44.0
31.1501 41.0
31.2153 38.0
31.2805 44.0
31.3457 43.0
31.4109 43.0
31.4761 43.0
31.5413 35.0
31.6065 46.0
31.6717 38.0
31.7369 32.0
31.8021 37.0
31.8673 40.0
31.9325 57.0
31.9977 49.0
32.0629 53.0
32.1281 34.0
32.1933 38.0
32.2585 44.0
32.3237 35.0
32.3889 52.0
32.4541 45.0
32.5193 45.0
32.5845 39.0
32.6497 41.0
32.7149 34.0
32.7801 31.0
32.8453 51.0
32.9105 45.0
32.9756 42.0
33.0408 51.0
33.106 34.0
33.1712 52.0
33.2364 45.0
33.3016 41.0
33.3668 50.0
33.432 42.0
33.4972 49.0
33.5624 35.0
33.6276 37.0
33.6928 53.0
33.758 41.0
33.8232 45.0
33.8884 40.0
33.9536 47.0
34.0188 41.0
34.084 38.0
34.1492 40.0
34.2144 37.0
34.2796 26.0
34.3448 36.0
34.41 39.0
34.4752 44.0
34.5404 31.0
34.6056 41.0
34.6708 25.0
34.736 41.0
34.8012 32.0
34.8664 33.0
34.9316 34.0
34.9968 38.0
35.062 54.0
35.1272 28.0
35.1924 35.0
35.2576 38.0
35.3228 36.0
35.388 43.0
35.4532 29.0
35.5184 27.0
35.5836 26.0
35.6488 38.0
35.714 38.0
35.7792 38.0
35.8444 39.0
35.9096 35.0
35.9748 40.0
36.04 45.0
36.1052 29.0
36.1704 31.0
36.2356 29.0
36.3008 25.0
36.366 41.0
36.4312 36.0
36.4964 37.0
36.5616 30.0
36.6268 43.0
36.692 38.0
36.7572 44.0
36.8224 44.0
36.8876 38.0
36.9528 37.0
37.018 28.0
37.0832 44.0
37.1484 33.0
37.2136 38.0
37.2788 33.0
37.344 41.0
37.4092 41.0
37.4744 29.0
37.5396 42.0
37.6048 35.0
37.67 48.0
37.7352 32.0
37.8003 41.0
37.8655 32.0
37.9307 33.0
37.9959 36.0
38.0611 30.0
38.1263 39.0
38.1915 55.0
38.2567 27.0
38.3219 39.0
38.3871 33.0
38.4523 34.0
38.5175 29.0
38.5827 33.0
38.6479 35.0
38.7131 39.0
38.7783 33.0
38.8435 22.0
38.9087 33.0
38.9739 28.0
39.0391 40.0
39.1043 27.0
39.1695 31.0
39.2347 30.0
39.2999 26.0
39.3651 34.0
39.4303 37.0
39.4955 37.0
39.5607 32.0
39.6259 36.0
39.6911 27.0
39.7563 31.0
39.8215 43.0
39.8867 32.0
39.9519 45.0
40.0171 38.0
40.0823 35.0
40.1475 21.0
40.2127 37.0
40.2779 30.0
40.3431 30.0
40.4083 40.0
40.4735 34.0
40.5387 28.0
40.6039 39.0
40.6691 37.0
40.7343 31.0
40.7995 25.0
40.8647 31.0
40.9299 38.0
40.9951 32.0
41.0603 37.0
41.1255 34.0
41.1907 27.0
41.2559 34.0
41.3211 36.0
41.3863 22.0
41.4515 20.0
41.5167 27.0
41.5819 26.0
41.6471 37.0
41.7123 27.0
41.7775 33.0
41.8427 30.0
41.9079 32.0
41.9731 30.0
42.0383 20.0
42.1035 30.0
42.1687 37.0
42.2339 34.0
42.2991 22.0
42.3643 25.0
42.4295 27.0
42.4947 39.0
42.5598 25.0
42.625 31.0
42.6902 33.0
42.7554 26.0
42.8206 30.0
42.8858 30.0
42.951 35.0
43.0162 30.0
43.0814 31.0
43.1466 29.0
43.2118 40.0
43.277 30.0
43.3422 37.0
43.4074 32.0
43.4726 29.0
43.5378 25.0
43.603 24.0
43.6682 30.0
43.7334 29.0
43.7986 32.0
43.8638 30.0
43.929 25.0
43.9942 32.0
44.0594 31.0
44.1246 36.0
44.1898 32.0
44.255 23.0
44.3202 26.0
44.3854 22.0
44.4506 24.0
44.5158 27.0
44.581 27.0
44.6462 33.0
44.7114 26.0
44.7766 29.0
44.8418 29.0
44.907 31.0
44.9722 24.0
45.0374 36.0
45.1026 28.0
45.1678 29.0
45.233 32.0
45.2982 32.0
45.3634 24.0
45.4286 22.0
45.4938 28.0
45.559 31.0
45.6242 28.0
45.6894 20.0
45.7546 14.0
45.8198 19.0
45.885 26.0
45.9502 25.0
46.0154 24.0
46.0806 24.0
46.1458 16.0
46.211 29.0
46.2762 33.0
46.3414 27.0
46.4066 28.0
46.4718 24.0
46.537 24.0
46.6022 23.0
46.6674 23.0
46.7326 34.0
46.7978 33.0
46.863 26.0
46.9282 25.0
46.9934 23.0
47.0586 23.0
47.1238 18.0
47.189 29.0
47.2542 29.0
47.3194 22.0
47.3845 26.0
47.4497 27.0
47.5149 16.0
47.5801 34.0
47.6453 26.0
47.7105 17.0
47.7757 25.0
47.8409 18.0
47.9061 27.0
47.9713 31.0
48.0365 16.0
48.1017 20.0
48.1669 33.0
48.2321 20.0
48.2973 17.0
48.3625 18.0
48.4277 23.0
48.4929 18.0
48.5581 23.0
48.6233 17.0
48.6885 24.0
48.7537 23.0
48.8189 17.0
48.8841 23.0
48.9493 23.0
49.0145 14.0
49.0797 22.0
49.1449 20.0
49.2101 27.0
49.2753 25.0
49.3405 19.0
49.4057 22.0
49.4709 16.0
49.5361 19.0
49.6013 28.0
49.6665 25.0
49.7317 24.0
49.7969 13.0
49.8621 28.0
49.9273 20.0
49.9925 16.0
50.0577 20.0
50.1229 17.0
50.1881 12.0
50.2533 22.0
50.3185 13.0
50.3837 19.0
50.4489 18.0
50.5141 15.0
50.5793 24.0
50.6445 17.0
50.7097 22.0
50.7749 13.0
50.8401 18.0
50.9053 12.0
50.9705 25.0
51.0357 24.0
51.1009 16.0
51.1661 15.0
51.2313 18.0
51.2965 12.0
51.3617 17.0
51.4269 23.0
51.4921 24.0
51.5573 17.0
51.6225 19.0
51.6877 14.0
51.7529 21.0
51.8181 12.0
51.8833 19.0
51.9485 20.0
52.0137 15.0
52.0789 16.0
52.144 13.0
52.2092 13.0
52.2744 26.0
52.3396 16.0
52.4048 17.0
52.47 17.0
52.5352 14.0
52.6004 23.0
52.6656 16.0
52.7308 25.0
52.796 16.0
52.8612 14.0
52.9264 19.0
52.9916 16.0
53.0568 13.0
53.122 16.0
53.1872 22.0
53.2524 21.0
53.3176 12.0
53.3828 14.0
53.448 18.0
53.5132 19.0
53.5784 15.0
53.6436 8.0
53.7088 15.0
53.774 15.0
53.8392 17.0
53.9044 16.0
53.9696 16.0
54.0348 22.0
54.1 19.0
54.1652 27.0
54.2304 14.0
54.2956 15.0
54.3608 28.0
54.426 15.0
54.4912 19.0
54.5564 16.0
54.6216 17.0
54.6868 17.0
54.752 12.0
54.8172 16.0
54.8824 15.0
54.9476 17.0
55.0128 14.0
55.078 14.0
55.1432 18.0
55.2084 17.0
55.2736 22.0
55.3388 19.0
55.404 18.0
55.4692 18.0
55.5344 14.0
55.5996 16.0
55.6648 14.0
55.73 15.0
55.7952 12.0
55.8604 14.0
55.9256 18.0
55.9908 16.0
56.056 20.0
56.1212 16.0
56.1864 25.0
56.2516 14.0
56.3168 18.0
56.382 16.0
56.4472 14.0
56.5124 11.0
56.5776 19.0
56.6428 8.0
56.708 13.0
56.7732 25.0
56.8384 21.0
56.9036 14.0
56.9687 16.0
57.0339 14.0
57.0991 23.0
57.1643 12.0
57.2295 13.0
57.2947 12.0
57.3599 15.0
57.4251 22.0
57.4903 16.0
57.5555 12.0
57.6207 19.0
57.6859 17.0
57.7511 15.0
57.8163 13.0
57.8815 16.0
57.9467 11.0
58.0119 5.0
58.0771 11.0
58.1423 9.0
58.2075 12.0
58.2727 15.0
58.3379 15.0
58.4031 13.0
58.4683 14.0
58.5335 16.0
58.5987 12.0
58.6639 11.0
58.7291 12.0
58.7943 12.0
58.8595 12.0
58.9247 15.0
58.9899 20.0
59.0551 15.0
59.1203 10.0
59.1855 14.0
59.2507 13.0
59.3159 19.0
59.3811 13.0
59.4463 14.0
59.5115 20.0
59.5767 18.0
59.6419 16.0
59.7071 9.0
59.7723 10.0
59.8375 11.0
59.9027 13.0
59.9679 21.0
60.0331 9.0
60.0983 15.0
60.1635 13.0
60.2287 17.0
60.2939 14.0
60.3591 6.0
60.4243 8.0
60.4895 19.0
60.5547 9.0
60.6199 9.0
60.6851 14.0
60.7503 15.0
60.8155 12.0
60.8807 15.0
60.9459 19.0
61.0111 19.0
61.0763 14.0
61.1415 8.0
61.2067 16.0
61.2719 14.0
61.3371 14.0
61.4023 8.0
61.4675 9.0
61.5327 13.0
61.5979 20.0
61.6631 18.0
61.7283 14.0
61.7934 19.0
61.8586 12.0
61.9238 12.0
61.989 14.0
62.0542 18.0
62.1194 11.0
62.1846 10.0
62.2498 17.0
62.315 10.0
62.3802 6.0
62.4454 7.0
62.5106 12.0
62.5758 11.0
62.641 8.0
62.7062 14.0
62.7714 12.0
62.8366 10.0
62.9018 11.0
62.967 8.0
63.0322 12.0
63.0974 8.0
63.1626 13.0
63.2278 10.0
63.293 8.0
63.3582 20.0
63.4234 12.0
63.4886 14.0
63.5538 5.0
63.619 13.0
63.6842 8.0
63.7494 6.0
63.8146 9.0
63.8798 14.0
63.945 9.0
64.0102 15.0
64.0754 11.0
64.1406 14.0
64.2058 6.0
64.271 13.0
64.3362 7.0
64.4014 10.0
64.4666 12.0
64.5318 13.0
64.597 20.0
64.6622 10.0
64.7274 12.0
64.7926 8.0
64.8578 12.0
64.923 8.0
64.9882 10.0
65.0534 9.0
65.1186 21.0
65.1838 8.0
65.249 6.0
65.3142 12.0
65.3794 7.0
65.4446 9.0
65.5098 7.0
65.575 13.0
65.6402 5.0
65.7054 7.0
65.7706 11.0
65.8358 15.0
65.901 16.0
65.9662 10.0
66.0314 14.0
66.0966 7.0
66.1618 9.0
66.227 13.0
66.2922 14.0
66.3574 7.0
66.4226 13.0
66.4878 12.0
66.5529 7.0
66.6181 19.0
66.6833 5.0
66.7485 6.0
66.8137 8.0
66.8789 9.0
66.9441 12.0
67.0093 12.0
67.0745 16.0
67.1397 12.0
67.2049 14.0
67.2701 10.0
67.3353 9.0
67.4005 9.0
67.4657 7.0
67.5309 11.0
67.5961 13.0
67.6613 14.0
67.7265 12.0
67.7917 10.0
67.8569 13.0
67.9221 8.0
67.9873 8.0
68.0525 16.0
68.1177 11.0
68.1829 10.0
68.2481 15.0
68.3133 6.0
68.3785 9.0
68.4437 19.0
68.5089 8.0
68.5741 8.0
68.6393 9.0
68.7045 7.0
68.7697 10.0
68.8349 7.0
68.9001 11.0
68.9653 5.0
69.0305 12.0
69.0957 4.0
69.1609 10.0
69.2261 15.0
69.2913 13.0
69.3565 11.0
69.4217 17.0
69.4869 10.0
69.5521 8.0
69.6173 12.0
69.6825 14.0
69.7477 13.0
69.8129 6.0
69.8781 12.0
69.9433 13.0
70.0085 13.0
70.0737 4.0
70.1389 9.0
70.2041 2.0
70.2693 8.0
70.3345 12.0
70.3997 19.0
70.4649 17.0
70.5301 5.0
70.5953 5.0
70.6605 11.0
70.7257 8.0
70.7909 9.0
70.8561 10.0
70.9213 9.0
70.9865 10.0
71.0517 9.0
71.1169 5.0
71.1821 12.0
71.2473 8.0
71.3125 3.0
71.3776 14.0
71.4428 7.0
71.508 16.0
71.5732 7.0
71.6384 14.0
71.7036 11.0
71.7688 7.0
71.834 12.0
71.8992 15.0
71.9644 10.0
72.0296 7.0
72.0948 9.0
72.16 8.0
72.2252 13.0
72.2904 21.0
72.3556 10.0
72.4208 11.0
72.486 9.0
72.5512 13.0
72.6164 7.0
72.6816 5.0
72.7468 12.0
72.812 8.0
72.8772 6.0
72.9424 11.0
73.0076 14.0
73.0728 7.0
73.138 13.0
73.2032 12.0
73.2684 8.0
73.3336 16.0
73.3988 9.0
73.464 10.0
73.5292 12.0
73.5944 8.0
73.6596 16.0
73.7248 7.0
73.79 10.0
73.8552 9.0
73.9204 6.0
73.9856 10.0
74.0508 7.0
74.116 7.0
74.1812 12.0
74.2464 2.0
74.3116 17.0
74.3768 7.0
74.442 8.0
74.5072 13.0
74.5724 4.0
74.6376 10.0
74.7028 11.0
74.768 11.0
74.8332 9.0
74.8984 6.0
74.9636 10.0
75.0288 4.0
75.094 11.0
75.1592 4.0
75.2244 9.0
75.2896 10.0
75.3548 11.0
75.42 7.0
75.4852 4.0
75.5504 14.0
75.6156 12.0
75.6808 6.0
75.746 7.0
75.8112 19.0
75.8764 7.0
75.9416 12.0
76.0068 13.0
76.072 3.0
76.1371 8.0
76.2023 3.0
76.2675 5.0
76.3327 7.0
76.3979 11.0
76.4631 8.0
76.5283 6.0
76.5935 7.0
76.6587 11.0
76.7239 11.0
76.7891 11.0
76.8543 10.0
76.9195 14.0
76.9847 12.0
77.0499 8.0
77.1151 8.0
77.1803 11.0
77.2455 4.0
77.3107 10.0
77.3759 7.0
77.4411 11.0
77.5063 11.0
77.5715 11.0
77.6367 16.0
77.7019 7.0
77.7671 11.0
77.8323 12.0
77.8975 10.0
77.9627 7.0
78.0279 9.0
78.0931 11.0
78.1583 6.0
78.2235 11.0
78.2887 7.0
78.3539 9.0
78.4191 13.0
78.4843 11.0
78.5495 8.0
78.6147 14.0
78.6799 11.0
78.7451 12.0
78.8103 8.0
78.8755 9.0
78.9407 7.0
79.0059 8.0
79.0711 16.0
79.1363 5.0
79.2015 9.0
79.2667 15.0
79.3319 15.0
79.3971 13.0
79.4623 3.0
79.5275 5.0
79.5927 5.0
79.6579 15.0
79.7231 9.0
79.7883 7.0
79.8535 8.0
79.9187 9.0
79.9839 11.0
80.0491 10.0
80.1143 8.0
80.1795 10.0
80.2447 11.0
80.3099 16.0
80.3751 10.0
80.4403 7.0
80.5055 15.0
80.5707 11.0
80.6359 9.0
80.7011 9.0
80.7663 1.0
80.8315 9.0
80.8967 6.0
80.9618 12.0
81.027 8.0
81.0922 10.0
81.1574 11.0
81.2226 10.0
81.2878 10.0
81.353 10.0
81.4182 7.0
81.4834 11.0
81.5486 9.0
81.6138 11.0
81.679 8.0
81.7442 10.0
81.8094 8.0
81.8746 8.0
81.9398 6.0
82.005 12.0
82.0702 15.0
82.1354 7.0
82.2006 7.0
82.2658 8.0
82.331 13.0
82.3962 10.0
82.4614 10.0
82.5266 9.0
82.5918 5.0
82.657 11.0
82.7222 10.0
82.7874 7.0
82.8526 10.0
82.9178 8.0
82.983 7.0
83.0482 11.0
83.1134 4.0
83.1786 7.0
83.2438 3.0
83.309 11.0
83.3742 5.0
83.4394 7.0
83.5046 12.0
83.5698 6.0
83.635 10.0
83.7002 9.0
83.7654 16.0
83.8306 8.0
83.8958 5.0
83.961 10.0
84.0262 12.0
84.0914 9.0
84.1566 5.0
84.2218 16.0
84.287 8.0
84.3522 10.0
84.4174 11.0
84.4826 2.0
84.5478 13.0
84.613 12.0
84.6782 12.0
84.7434 13.0
84.8086 9.0
84.8738 8.0
84.939 5.0
85.0042 6.0
85.0694 10.0
85.1346 9.0
85.1998 4.0
85.265 7.0
85.3302 7.0
85.3954 8.0
85.4606 8.0
85.5258 9.0
85.591 6.0
85.6562 14.0
85.7213 5.0
85.7865 5.0
85.8517 20.0
85.9169 11.0
85.9821 8.0
86.0473 5.0
86.1125 6.0
86.1777 6.0
86.2429 10.0
86.3081 6.0
86.3733 3.0
86.4385 10.0
86.5037 11.0
86.5689 4.0
86.6341 5.0
86.6993 7.0
86.7645 15.0
86.8297 6.0
86.8949 10.0
86.9601 9.0
87.0253 7.0
87.0905 13.0
87.1557 9.0
87.2209 9.0
87.2861 14.0
87.3513 10.0
87.4165 11.0
87.4817 5.0
87.5469 10.0
87.6121 5.0
87.6773 6.0
87.7425 9.0
87.8077 6.0
87.8729 6.0
87.9381 9.0
88.0033 10.0
88.0685 7.0
88.1337 7.0
88.1989 9.0
88.2641 8.0
88.3293 8.0
88.3945 11.0
88.4597 8.0
88.5249 10.0
88.5901 8.0
88.6553 5.0
88.7205 9.0
88.7857 9.0
88.8509 6.0
88.9161 6.0
88.9813 9.0
89.0465 9.0
89.1117 5.0
89.1769 9.0
89.2421 7.0
89.3073 7.0
89.3725 9.0
89.4377 5.0
89.5029 6.0
89.5681 7.0
89.6333 2.0
89.6985 12.0
89.7637 19.0
89.8289 17.0
89.8941 4.0
89.9593 9.0
89.9919 10.0