File: XRD/2025_06_07_aHIF_Lyoph_3_60_22min_XRD.xy
3.00043 135534.0
3.0439 129350.0
3.08736 122904.0
3.13083 116083.0
3.1743 110204.0
3.21776 103929.0
3.26123 98238.0
3.30469 93031.0
3.34816 87826.0
3.39163 82723.0
3.43509 77927.0
3.47856 73156.0
3.52202 69115.0
3.56549 65121.0
3.60895 60860.0
3.65242 57280.0
3.69589 53769.0
3.73935 50142.0
3.78282 46898.0
3.82628 43932.0
3.86975 40929.0
3.91321 38016.0
3.95668 35527.0
4.00015 33222.0
4.04361 30606.0
4.08708 28340.0
4.13054 26432.0
4.17401 24578.0
4.21747 22736.0
4.26094 21155.0
4.30441 19468.0
4.34787 18013.0
4.39134 16433.0
4.4348 14986.0
4.47827 14171.0
4.52173 12764.0
4.5652 12114.0
4.60867 11094.0
4.65213 10316.0
4.6956 9727.0
4.73906 9073.0
4.78253 8689.0
4.826 8258.0
4.86946 7755.0
4.91293 7626.0
4.95639 7257.0
4.99986 7336.0
5.04332 7234.0
5.08679 6957.0
5.13026 7200.0
5.17372 7259.0
5.21719 7116.0
5.26065 7186.0
5.30412 7096.0
5.34758 6900.0
5.39105 6890.0
5.43452 6477.0
5.47798 6145.0
5.52145 5861.0
5.56491 5711.0
5.60838 5423.0
5.65184 5106.0
5.69531 5010.0
5.73878 4675.0
5.78224 4559.0
5.82571 4468.0
5.86917 4529.0
5.91264 4396.0
5.9561 4563.0
5.99957 4487.0
6.04304 4264.0
6.0865 4248.0
6.12997 4321.0
6.17343 4176.0
6.2169 4172.0
6.26037 4218.0
6.30383 4028.0
6.3473 4057.0
6.39076 4132.0
6.43423 3983.0
6.47769 4040.0
6.52116 3854.0
6.56463 3924.0
6.60809 3840.0
6.65156 3908.0
6.69502 3903.0
6.73849 3865.0
6.78195 3756.0
6.82542 3775.0
6.86889 3883.0
6.91235 3851.0
6.95582 3739.0
6.99928 3728.0
7.04275 3666.0
7.08621 3742.0
7.12968 3612.0
7.17315 3701.0
7.21661 3748.0
7.26008 3728.0
7.30354 3729.0
7.34701 3764.0
7.39047 3745.0
7.43394 3728.0
7.47741 3769.0
7.52087 3685.0
7.56434 3868.0
7.6078 3664.0
7.65127 3843.0
7.69474 3713.0
7.7382 3778.0
7.78167 3872.0
7.82513 3878.0
7.8686 3878.0
7.91206 3958.0
7.95553 3875.0
7.999 3920.0
8.04246 3731.0
8.08593 3715.0
8.12939 3896.0
8.17286 3850.0
8.21632 3970.0
8.25979 3986.0
8.30326 3896.0
8.34672 3963.0
8.39019 3951.0
8.43365 4074.0
8.47712 4001.0
8.52058 4024.0
8.56405 4027.0
8.60752 4050.0
8.65098 4117.0
8.69445 4062.0
8.73791 3973.0
8.78138 3987.0
8.82485 4007.0
8.86831 4114.0
8.91178 4119.0
8.95524 3988.0
8.99871 3962.0
9.04217 3965.0
9.08564 4034.0
9.12911 4110.0
9.17257 4064.0
9.21604 4093.0
9.2595 3989.0
9.30297 4076.0
9.34643 4148.0
9.3899 4105.0
9.43337 4055.0
9.47683 4162.0
9.5203 3902.0
9.56376 4017.0
9.60723 4026.0
9.65069 4011.0
9.69416 3918.0
9.73763 3917.0
9.78109 4103.0
9.82456 3995.0
9.86802 3935.0
9.91149 4016.0
9.95495 3966.0
9.99842 3946.0
10.0419 3964.0
10.0854 3744.0
10.1288 3842.0
10.1723 3776.0
10.2157 3874.0
10.2592 3788.0
10.3027 3884.0
10.3461 3844.0
10.3896 3825.0
10.4331 3774.0
10.4765 3808.0
10.52 3667.0
10.5635 3710.0
10.6069 3686.0
10.6504 3652.0
10.6939 3597.0
10.7373 3681.0
10.7808 3645.0
10.8243 3660.0
10.8677 3695.0
10.9112 3579.0
10.9547 3599.0
10.9981 3660.0
11.0416 3631.0
11.0851 3640.0
11.1285 3640.0
11.172 3564.0
11.2155 3606.0
11.2589 3508.0
11.3024 3580.0
11.3459 3525.0
11.3893 3481.0
11.4328 3551.0
11.4763 3569.0
11.5197 3491.0
11.5632 3533.0
11.6067 3600.0
11.6501 3535.0
11.6936 3452.0
11.7371 3441.0
11.7805 3346.0
11.824 3426.0
11.8674 3429.0
11.9109 3324.0
11.9544 3300.0
11.9978 3497.0
12.0413 3448.0
12.0848 3378.0
12.1282 3357.0
12.1717 3277.0
12.2152 3470.0
12.2586 3293.0
12.3021 3448.0
12.3456 3331.0
12.389 3464.0
12.4325 3204.0
12.476 3354.0
12.5194 3312.0
12.5629 3326.0
12.6064 3356.0
12.6498 3362.0
12.6933 3448.0
12.7368 3346.0
12.7802 3315.0
12.8237 3318.0
12.8672 3370.0
12.9106 3331.0
12.9541 3342.0
12.9976 3382.0
13.041 3403.0
13.0845 3458.0
13.128 3468.0
13.1714 3295.0
13.2149 3440.0
13.2584 3411.0
13.3018 3409.0
13.3453 3562.0
13.3887 3322.0
13.4322 3380.0
13.4757 3422.0
13.5191 3413.0
13.5626 3414.0
13.6061 3412.0
13.6495 3315.0
13.693 3436.0
13.7365 3315.0
13.7799 3610.0
13.8234 3412.0
13.8669 3480.0
13.9103 3416.0
13.9538 3449.0
13.9973 3496.0
14.0407 3574.0
14.0842 3532.0
14.1277 3427.0
14.1711 3488.0
14.2146 3494.0
14.2581 3540.0
14.3015 3528.0
14.345 3571.0
14.3885 3578.0
14.4319 3557.0
14.4754 3534.0
14.5189 3549.0
14.5623 3701.0
14.6058 3577.0
14.6493 3608.0
14.6927 3633.0
14.7362 3638.0
14.7797 3708.0
14.8231 3663.0
14.8666 3726.0
14.9101 3733.0
14.9535 3677.0
14.997 3883.0
15.0404 3765.0
15.0839 3683.0
15.1274 3837.0
15.1708 3760.0
15.2143 3811.0
15.2578 3795.0
15.3012 3853.0
15.3447 3928.0
15.3882 3949.0
15.4316 3901.0
15.4751 3950.0
15.5186 3965.0
15.562 3973.0
15.6055 4091.0
15.649 4094.0
15.6924 4069.0
15.7359 4092.0
15.7794 4085.0
15.8228 4132.0
15.8663 4087.0
15.9098 4250.0
15.9532 4163.0
15.9967 4173.0
16.0402 4239.0
16.0836 4268.0
16.1271 4262.0
16.1706 4259.0
16.214 4322.0
16.2575 4317.0
16.301 4474.0
16.3444 4478.0
16.3879 4397.0
16.4314 4559.0
16.4748 4387.0
16.5183 4645.0
16.5618 4413.0
16.6052 4568.0
16.6487 4627.0
16.6921 4606.0
16.7356 4621.0
16.7791 4832.0
16.8225 4724.0
16.866 4803.0
16.9095 4794.0
16.9529 4863.0
16.9964 4803.0
17.0399 4837.0
17.0833 4856.0
17.1268 5063.0
17.1703 4893.0
17.2137 5048.0
17.2572 5176.0
17.3007 5192.0
17.3441 5164.0
17.3876 5193.0
17.4311 5236.0
17.4745 5228.0
17.518 5296.0
17.5615 5288.0
17.6049 5236.0
17.6484 5470.0
17.6919 5331.0
17.7353 5512.0
17.7788 5436.0
17.8223 5479.0
17.8657 5548.0
17.9092 5568.0
17.9527 5568.0
17.9961 5802.0
18.0396 5799.0
18.0831 5866.0
18.1265 5804.0
18.17 5974.0
18.2134 5994.0
18.2569 6020.0
18.3004 6030.0
18.3438 6107.0
18.3873 6171.0
18.4308 6250.0
18.4742 6210.0
18.5177 6307.0
18.5612 6500.0
18.6046 6355.0
18.6481 6547.0
18.6916 6603.0
18.735 6689.0
18.7785 6844.0
18.822 6716.0
18.8654 6816.0
18.9089 6837.0
18.9524 6812.0
18.9958 6823.0
19.0393 6901.0
19.0828 6959.0
19.1262 6828.0
19.1697 6971.0
19.2132 6982.0
19.2566 6853.0
19.3001 6971.0
19.3436 7057.0
19.387 6865.0
19.4305 6644.0
19.474 6854.0
19.5174 6902.0
19.5609 6850.0
19.6044 6828.0
19.6478 6932.0
19.6913 6689.0
19.7348 6727.0
19.7782 6565.0
19.8217 6510.0
19.8651 6560.0
19.9086 6628.0
19.9521 6521.0
19.9955 6564.0
20.039 6367.0
20.0825 6374.0
20.1259 6334.0
20.1694 6335.0
20.2129 6391.0
20.2563 6313.0
20.2998 6073.0
20.3433 6241.0
20.3867 6203.0
20.4302 6194.0
20.4737 6279.0
20.5171 6104.0
20.5606 6232.0
20.6041 6046.0
20.6475 6070.0
20.691 6003.0
20.7345 6186.0
20.7779 6028.0
20.8214 5867.0
20.8649 5850.0
20.9083 5856.0
20.9518 6010.0
20.9953 5983.0
21.0387 5919.0
21.0822 5986.0
21.1257 5838.0
21.1691 5961.0
21.2126 5840.0
21.2561 5983.0
21.2995 5835.0
21.343 5712.0
21.3864 5597.0
21.4299 5808.0
21.4734 5781.0
21.5168 5774.0
21.5603 5705.0
21.6038 5637.0
21.6472 5548.0
21.6907 5594.0
21.7342 5521.0
21.7776 5535.0
21.8211 5486.0
21.8646 5431.0
21.908 5435.0
21.9515 5434.0
21.995 5429.0
22.0384 5439.0
22.0819 5289.0
22.1254 5307.0
22.1688 5203.0
22.2123 5343.0
22.2558 5181.0
22.2992 5189.0
22.3427 5102.0
22.3862 5143.0
22.4296 5121.0
22.4731 5004.0
22.5166 5028.0
22.56 5009.0
22.6035 5269.0
22.647 5113.0
22.6904 5134.0
22.7339 5079.0
22.7774 5011.0
22.8208 4922.0
22.8643 4858.0
22.9078 4966.0
22.9512 5009.0
22.9947 4990.0
23.0381 4864.0
23.0816 4917.0
23.1251 5195.0
23.1685 5014.0
23.212 4869.0
23.2555 4928.0
23.2989 4910.0
23.3424 4948.0
23.3859 4869.0
23.4293 4882.0
23.4728 4844.0
23.5163 4944.0
23.5597 4828.0
23.6032 4824.0
23.6467 4796.0
23.6901 4774.0
23.7336 4700.0
23.7771 4720.0
23.8205 4830.0
23.864 4720.0
23.9075 4697.0
23.9509 4691.0
23.9944 4693.0
24.0379 4586.0
24.0813 4574.0
24.1248 4666.0
24.1683 4574.0
24.2117 4509.0
24.2552 4525.0
24.2987 4463.0
24.3421 4431.0
24.3856 4497.0
24.4291 4398.0
24.4725 4265.0
24.516 4443.0
24.5595 4348.0
24.6029 4248.0
24.6464 4335.0
24.6898 4380.0
24.7333 4293.0
24.7768 4410.0
24.8202 4344.0
24.8637 4333.0
24.9072 4284.0
24.9506 4291.0
24.9941 4201.0
25.0376 4160.0
25.081 4143.0
25.1245 4193.0
25.168 4091.0
25.2114 4093.0
25.2549 4133.0
25.2984 4039.0
25.3418 4043.0
25.3853 4017.0
25.4288 4001.0
25.4722 4068.0
25.5157 4002.0
25.5592 4068.0
25.6026 3947.0
25.6461 4052.0
25.6896 3896.0
25.733 3790.0
25.7765 3989.0
25.82 3891.0
25.8634 3865.0
25.9069 3844.0
25.9504 3778.0
25.9938 3870.0
26.0373 3847.0
26.0808 3850.0
26.1242 3803.0
26.1677 3614.0
26.2111 3726.0
26.2546 3694.0
26.2981 3710.0
26.3415 3715.0
26.385 3799.0
26.4285 3681.0
26.4719 3648.0
26.5154 3692.0
26.5589 3575.0
26.6023 3731.0
26.6458 3446.0
26.6893 3552.0
26.7327 3487.0
26.7762 3484.0
26.8197 3497.0
26.8631 3538.0
26.9066 3575.0
26.9501 3483.0
26.9935 3520.0
27.037 3493.0
27.0805 3431.0
27.1239 3548.0
27.1674 3435.0
27.2109 3417.0
27.2543 3331.0
27.2978 3418.0
27.3413 3346.0
27.3847 3408.0
27.4282 3405.0
27.4717 3322.0
27.5151 3355.0
27.5586 3362.0
27.6021 3314.0
27.6455 3368.0
27.689 3299.0
27.7325 3218.0
27.7759 3302.0
27.8194 3129.0
27.8628 3156.0
27.9063 3303.0
27.9498 3242.0
27.9932 3254.0
28.0367 3117.0
28.0802 3153.0
28.1236 3243.0
28.1671 3215.0
28.2106 3297.0
28.254 3269.0
28.2975 3395.0
28.341 3270.0
28.3844 3099.0
28.4279 3098.0
28.4714 3106.0
28.5148 3118.0
28.5583 3120.0
28.6018 3083.0
28.6452 3033.0
28.6887 3034.0
28.7322 2989.0
28.7756 2967.0
28.8191 3097.0
28.8626 2921.0
28.906 2944.0
28.9495 2856.0
28.993 3097.0
29.0364 2856.0
29.0799 2925.0
29.1234 3002.0
29.1668 2944.0
29.2103 2857.0
29.2538 2946.0
29.2972 2900.0
29.3407 2746.0
29.3841 2843.0
29.4276 2940.0
29.4711 2924.0
29.5145 2753.0
29.558 2885.0
29.6015 2834.0
29.6449 2785.0
29.6884 2764.0
29.7319 2786.0
29.7753 2829.0
29.8188 2839.0
29.8623 2802.0
29.9057 2780.0
29.9492 2734.0
29.9927 2791.0
30.0361 2807.0
30.0796 2763.0
30.1231 2736.0
30.1665 2725.0
30.21 2610.0
30.2535 2640.0
30.2969 2753.0
30.3404 2674.0
30.3839 2722.0
30.4273 2683.0
30.4708 2662.0
30.5143 2570.0
30.5577 2696.0
30.6012 2643.0
30.6447 2665.0
30.6881 2643.0
30.7316 2588.0
30.7751 2569.0
30.8185 2612.0
30.862 2549.0
30.9055 2515.0
30.9489 2716.0
30.9924 2541.0
31.0358 2502.0
31.0793 2592.0
31.1228 2627.0
31.1662 2507.0
31.2097 2599.0
31.2532 2608.0
31.2966 2561.0
31.3401 2620.0
31.3836 2519.0
31.427 2492.0
31.4705 2559.0
31.514 2511.0
31.5574 2570.0
31.6009 2562.0
31.6444 2636.0
31.6878 2523.0
31.7313 2562.0
31.7748 2423.0
31.8182 2477.0
31.8617 2553.0
31.9052 2360.0
31.9486 2504.0
31.9921 2489.0
32.0356 2379.0
32.079 2368.0
32.1225 2441.0
32.166 2509.0
32.2094 2380.0
32.2529 2431.0
32.2964 2504.0
32.3398 2393.0
32.3833 2395.0
32.4268 2368.0
32.4702 2398.0
32.5137 2452.0
32.5572 2481.0
32.6006 2424.0
32.6441 2448.0
32.6875 2459.0
32.731 2334.0
32.7745 2446.0
32.8179 2407.0
32.8614 2377.0
32.9049 2352.0
32.9483 2359.0
32.9918 2374.0
33.0353 2371.0
33.0787 2364.0
33.1222 2346.0
33.1657 2429.0
33.2091 2401.0
33.2526 2428.0
33.2961 2336.0
33.3395 2321.0
33.383 2384.0
33.4265 2303.0
33.4699 2316.0
33.5134 2357.0
33.5569 2305.0
33.6003 2320.0
33.6438 2354.0
33.6873 2372.0
33.7307 2362.0
33.7742 2305.0
33.8177 2388.0
33.8611 2236.0
33.9046 2278.0
33.9481 2280.0
33.9915 2239.0
34.035 2379.0
34.0785 2290.0
34.1219 2281.0
34.1654 2251.0
34.2088 2147.0
34.2523 2355.0
34.2958 2269.0
34.3392 2280.0
34.3827 2306.0
34.4262 2256.0
34.4696 2274.0
34.5131 2286.0
34.5566 2242.0
34.6 2292.0
34.6435 2212.0
34.687 2242.0
34.7304 2246.0
34.7739 2284.0
34.8174 2226.0
34.8608 2134.0
34.9043 2253.0
34.9478 2269.0
34.9912 2163.0
35.0347 2094.0
35.0782 2226.0
35.1216 2135.0
35.1651 2135.0
35.2086 2255.0
35.252 2156.0
35.2955 2217.0
35.339 2153.0
35.3824 2255.0
35.4259 2230.0
35.4694 2246.0
35.5128 2113.0
35.5563 2219.0
35.5998 2112.0
35.6432 2134.0
35.6867 2201.0
35.7302 2110.0
35.7736 2180.0
35.8171 2143.0
35.8605 2177.0
35.904 2119.0
35.9475 2167.0
35.9909 2121.0
36.0344 2120.0
36.0779 2137.0
36.1213 2238.0
36.1648 2075.0
36.2083 2100.0
36.2517 2066.0
36.2952 2163.0
36.3387 2126.0
36.3821 2198.0
36.4256 2177.0
36.4691 2152.0
36.5125 2093.0
36.556 2136.0
36.5995 2094.0
36.6429 2067.0
36.6864 2056.0
36.7299 2027.0
36.7733 2170.0
36.8168 2084.0
36.8603 2100.0
36.9037 2070.0
36.9472 2056.0
36.9907 2193.0
37.0341 2050.0
37.0776 2075.0
37.1211 2141.0
37.1645 1976.0
37.208 2044.0
37.2515 2058.0
37.2949 2037.0
37.3384 2079.0
37.3818 2044.0
37.4253 2125.0
37.4688 1989.0
37.5122 2036.0
37.5557 2093.0
37.5992 2131.0
37.6426 2108.0
37.6861 2073.0
37.7296 2076.0
37.773 2061.0
37.8165 1999.0
37.86 2074.0
37.9034 2076.0
37.9469 2050.0
37.9904 2056.0
38.0338 1992.0
38.0773 2068.0
38.1208 1979.0
38.1642 2007.0
38.2077 2055.0
38.2512 1985.0
38.2946 2023.0
38.3381 2064.0
38.3816 2082.0
38.425 2021.0
38.4685 2054.0
38.512 2094.0
38.5554 2036.0
38.5989 1991.0
38.6424 1958.0
38.6858 2018.0
38.7293 2081.0
38.7728 2047.0
38.8162 2100.0
38.8597 1946.0
38.9032 2002.0
38.9466 1940.0
38.9901 2021.0
39.0335 1934.0
39.077 1856.0
39.1205 1997.0
39.1639 1955.0
39.2074 1951.0
39.2509 2006.0
39.2943 2021.0
39.3378 2006.0
39.3813 1937.0
39.4247 1925.0
39.4682 1998.0
39.5117 1970.0
39.5551 2025.0
39.5986 1932.0
39.6421 1985.0
39.6855 1922.0
39.729 1977.0
39.7725 1963.0
39.8159 1979.0
39.8594 1960.0
39.9029 1931.0
39.9463 1972.0
39.9898 1951.0
40.0333 1861.0
40.0767 1894.0
40.1202 1873.0
40.1637 1911.0
40.2071 1910.0
40.2506 1852.0
40.2941 1943.0
40.3375 1883.0
40.381 1884.0
40.4245 1896.0
40.4679 1933.0
40.5114 1925.0
40.5548 1830.0
40.5983 1926.0
40.6418 1835.0
40.6852 1940.0
40.7287 1888.0
40.7722 1932.0
40.8156 1857.0
40.8591 1988.0
40.9026 1840.0
40.946 1879.0
40.9895 2002.0
41.033 1873.0
41.0764 1921.0
41.1199 1835.0
41.1634 1892.0
41.2068 1836.0
41.2503 1867.0
41.2938 1777.0
41.3372 1914.0
41.3807 1881.0
41.4242 1913.0
41.4676 1817.0
41.5111 1867.0
41.5546 1908.0
41.598 1869.0
41.6415 1891.0
41.685 1867.0
41.7284 1859.0
41.7719 1838.0
41.8154 1776.0
41.8588 1816.0
41.9023 1789.0
41.9458 1749.0
41.9892 1798.0
42.0327 1746.0
42.0762 1841.0
42.1196 1775.0
42.1631 1897.0
42.2065 1738.0
42.25 1775.0
42.2935 1742.0
42.3369 1883.0
42.3804 1704.0
42.4239 1737.0
42.4673 1756.0
42.5108 1705.0
42.5543 1713.0
42.5977 1684.0
42.6412 1737.0
42.6847 1805.0
42.7281 1846.0
42.7716 1784.0
42.8151 1725.0
42.8585 1714.0
42.902 1712.0
42.9455 1712.0
42.9889 1771.0
43.0324 1795.0
43.0759 1673.0
43.1193 1680.0
43.1628 1666.0
43.2063 1735.0
43.2497 1760.0
43.2932 1709.0
43.3367 1701.0
43.3801 1713.0
43.4236 1755.0
43.4671 1684.0
43.5105 1728.0
43.554 1660.0
43.5975 1686.0
43.6409 1711.0
43.6844 1625.0
43.7279 1670.0
43.7713 1727.0
43.8148 1676.0
43.8582 1712.0
43.9017 1684.0
43.9452 1666.0
43.9886 1799.0
44.0321 1804.0
44.0756 1672.0
44.119 1728.0
44.1625 1624.0
44.206 1729.0
44.2494 1571.0
44.2929 1665.0
44.3364 1694.0
44.3798 1727.0
44.4233 1608.0
44.4668 1645.0
44.5102 1639.0
44.5537 1605.0
44.5972 1626.0
44.6406 1730.0
44.6841 1551.0
44.7276 1661.0
44.771 1630.0
44.8145 1595.0
44.858 1591.0
44.9014 1565.0
44.9449 1519.0
44.9884 1632.0
45.0318 1631.0
45.0753 1658.0
45.1188 1574.0
45.1622 1588.0
45.2057 1580.0
45.2492 1619.0
45.2926 1568.0
45.3361 1559.0
45.3795 1627.0
45.423 1605.0
45.4665 1514.0
45.5099 1517.0
45.5534 1529.0
45.5969 1567.0
45.6403 1480.0
45.6838 1542.0
45.7273 1538.0
45.7707 1554.0
45.8142 1505.0
45.8577 1589.0
45.9011 1573.0
45.9446 1524.0
45.9881 1495.0
46.0315 1526.0
46.075 1467.0
46.1185 1513.0
46.1619 1524.0
46.2054 1551.0
46.2489 1513.0
46.2923 1532.0
46.3358 1546.0
46.3793 1459.0
46.4227 1493.0
46.4662 1450.0
46.5097 1607.0
46.5531 1462.0
46.5966 1490.0
46.6401 1542.0
46.6835 1555.0
46.727 1487.0
46.7705 1492.0
46.8139 1470.0
46.8574 1450.0
46.9009 1531.0
46.9443 1483.0
46.9878 1467.0
47.0312 1453.0
47.0747 1522.0
47.1182 1457.0
47.1616 1485.0
47.2051 1448.0
47.2486 1483.0
47.292 1473.0
47.3355 1444.0
47.379 1457.0
47.4224 1505.0
47.4659 1436.0
47.5094 1324.0
47.5528 1378.0
47.5963 1376.0
47.6398 1372.0
47.6832 1470.0
47.7267 1386.0
47.7702 1417.0
47.8136 1410.0
47.8571 1444.0
47.9006 1396.0
47.944 1410.0
47.9875 1394.0
48.031 1388.0
48.0744 1306.0
48.1179 1373.0
48.1614 1408.0
48.2048 1387.0
48.2483 1356.0
48.2918 1365.0
48.3352 1379.0
48.3787 1336.0
48.4222 1315.0
48.4656 1366.0
48.5091 1345.0
48.5525 1348.0
48.596 1428.0
48.6395 1394.0
48.6829 1361.0
48.7264 1358.0
48.7699 1316.0
48.8133 1287.0
48.8568 1288.0
48.9003 1290.0
48.9437 1279.0
48.9872 1314.0
49.0307 1327.0
49.0741 1253.0
49.1176 1260.0
49.1611 1333.0
49.2045 1288.0
49.248 1345.0
49.2915 1333.0
49.3349 1342.0
49.3784 1323.0
49.4219 1315.0
49.4653 1295.0
49.5088 1286.0
49.5523 1326.0
49.5957 1288.0
49.6392 1380.0
49.6827 1377.0
49.7261 1265.0
49.7696 1317.0
49.8131 1263.0
49.8565 1291.0
49.9 1312.0
49.9435 1314.0
49.9869 1313.0
50.0304 1323.0
50.0739 1235.0
50.1173 1280.0
50.1608 1278.0
50.2042 1293.0
50.2477 1280.0
50.2912 1196.0
50.3346 1247.0
50.3781 1292.0
50.4216 1268.0
50.465 1256.0
50.5085 1171.0
50.552 1195.0
50.5954 1270.0
50.6389 1216.0
50.6824 1287.0
50.7258 1285.0
50.7693 1267.0
50.8128 1226.0
50.8562 1270.0
50.8997 1260.0
50.9432 1256.0
50.9866 1232.0
51.0301 1253.0
51.0736 1215.0
51.117 1295.0
51.1605 1221.0
51.204 1263.0
51.2474 1200.0
51.2909 1254.0
51.3344 1301.0
51.3778 1217.0
51.4213 1223.0
51.4648 1184.0
51.5082 1293.0
51.5517 1179.0
51.5952 1243.0
51.6386 1188.0
51.6821 1210.0
51.7256 1176.0
51.769 1137.0
51.8125 1206.0
51.8559 1223.0
51.8994 1262.0
51.9429 1147.0
51.9863 1203.0
52.0298 1256.0
52.0733 1211.0
52.1167 1175.0
52.1602 1216.0
52.2037 1073.0
52.2471 1182.0
52.2906 1146.0
52.3341 1134.0
52.3775 1209.0
52.421 1128.0
52.4645 1124.0
52.5079 1184.0
52.5514 1159.0
52.5949 1095.0
52.6383 1192.0
52.6818 1173.0
52.7253 1084.0
52.7687 1088.0
52.8122 1196.0
52.8557 1139.0
52.8991 1140.0
52.9426 1075.0
52.9861 1055.0
53.0295 1174.0
53.073 1090.0
53.1165 1119.0
53.1599 1173.0
53.2034 1094.0
53.2469 1129.0
53.2903 1118.0
53.3338 1092.0
53.3772 1084.0
53.4207 1083.0
53.4642 1116.0
53.5076 1106.0
53.5511 1103.0
53.5946 1078.0
53.638 1082.0
53.6815 1084.0
53.725 1092.0
53.7684 1049.0
53.8119 1044.0
53.8554 1078.0
53.8988 1086.0
53.9423 1080.0
53.9858 1053.0
54.0292 1078.0
54.0727 1062.0
54.1162 1110.0
54.1596 1059.0
54.2031 1102.0
54.2466 1083.0
54.29 1072.0
54.3335 1036.0
54.377 1089.0
54.4204 1068.0
54.4639 1076.0
54.5074 1052.0
54.5508 1050.0
54.5943 1051.0
54.6378 1065.0
54.6812 1033.0
54.7247 1089.0
54.7682 994.0
54.8116 1054.0
54.8551 985.0
54.8986 996.0
54.942 1022.0
54.9855 1060.0
55.0289 1090.0
55.0724 1029.0
55.1159 1035.0
55.1593 1070.0
55.2028 1010.0
55.2463 1027.0
55.2897 998.0
55.3332 1045.0
55.3767 1025.0
55.4201 1020.0
55.4636 982.0
55.5071 1022.0
55.5505 1038.0
55.594 1009.0
55.6375 1047.0
55.6809 1046.0
55.7244 1001.0
55.7679 1005.0
55.8113 1061.0
55.8548 1039.0
55.8983 1094.0
55.9417 1227.0
55.9852 1145.0
56.0287 1005.0
56.0721 1035.0
56.1156 1073.0
56.1591 1060.0
56.2025 1074.0
56.246 993.0
56.2895 960.0
56.3329 1077.0
56.3764 1010.0
56.4199 960.0
56.4633 1007.0
56.5068 971.0
56.5502 985.0
56.5937 967.0
56.6372 958.0
56.6806 1009.0
56.7241 911.0
56.7676 951.0
56.811 986.0
56.8545 958.0
56.898 880.0
56.9414 962.0
56.9849 984.0
57.0284 950.0
57.0718 896.0
57.1153 907.0
57.1588 956.0
57.2022 925.0
57.2457 958.0
57.2892 915.0
57.3326 944.0
57.3761 886.0
57.4196 1009.0
57.463 1011.0
57.5065 954.0
57.55 901.0
57.5934 926.0
57.6369 894.0
57.6804 932.0
57.7238 931.0
57.7673 918.0
57.8108 905.0
57.8542 893.0
57.8977 895.0
57.9412 968.0
57.9846 903.0
58.0281 898.0
58.0716 941.0
58.115 953.0
58.1585 939.0
58.2019 956.0
58.2454 931.0
58.2889 877.0
58.3323 866.0
58.3758 960.0
58.4193 961.0
58.4627 889.0
58.5062 895.0
58.5497 917.0
58.5931 898.0
58.6366 884.0
58.6801 924.0
58.7235 855.0
58.767 874.0
58.8105 928.0
58.8539 858.0
58.8974 956.0
58.9409 830.0
58.9843 900.0
59.0278 895.0
59.0713 871.0
59.1147 829.0
59.1582 947.0
59.2017 876.0
59.2451 885.0
59.2886 914.0
59.3321 890.0
59.3755 906.0
59.419 805.0
59.4625 895.0
59.5059 865.0
59.5494 905.0
59.5929 857.0
59.6363 891.0
59.6798 889.0
59.7233 845.0
59.7667 896.0
59.8102 870.0
59.8536 858.0
59.8971 851.0
59.9406 846.0
59.984 867.0
59.9949 847.0