File: XRD/2025_06_03_Sorbic_Acid_10_80_50s.xy
10.0054 2760.0
10.0598 2728.0
10.1141 2776.0
10.1684 2970.0
10.2228 2962.0
10.2771 2920.0
10.3314 2900.0
10.3858 3023.0
10.4401 2959.0
10.4944 2821.0
10.5488 2932.0
10.6031 2883.0
10.6574 2909.0
10.7118 3106.0
10.7661 3212.0
10.8204 3398.0
10.8747 3916.0
10.9291 4472.0
10.9834 5564.0
11.0377 6841.0
11.0921 8946.0
11.1464 13325.0
11.2007 25767.0
11.2551 46653.0
11.3094 60113.0
11.3637 71299.0
11.4181 95633.0
11.4724 111980.0
11.5267 94291.0
11.5811 57779.0
11.6354 32601.0
11.6897 21012.0
11.7441 13585.0
11.7984 6866.0
11.8527 5152.0
11.9071 4558.0
11.9614 4365.0
12.0157 4001.0
12.0701 3933.0
12.1244 3790.0
12.1787 3705.0
12.2331 3685.0
12.2874 3685.0
12.3417 3779.0
12.3961 3775.0
12.4504 3833.0
12.5047 4189.0
12.559 4557.0
12.6134 5036.0
12.6677 5983.0
12.722 7478.0
12.7764 10264.0
12.8307 15066.0
12.885 18939.0
12.9394 21203.0
12.9937 24204.0
13.048 31525.0
13.1024 36770.0
13.1567 26434.0
13.211 12710.0
13.2654 5901.0
13.3197 4315.0
13.374 3734.0
13.4284 3505.0
13.4827 3397.0
13.537 3295.0
13.5914 3143.0
13.6457 3077.0
13.7 3097.0
13.7544 3102.0
13.8087 3070.0
13.863 3118.0
13.9174 3050.0
13.9717 3039.0
14.026 2896.0
14.0803 2928.0
14.1347 2861.0
14.189 2905.0
14.2433 2958.0
14.2977 2908.0
14.352 2829.0
14.4063 2892.0
14.4607 2942.0
14.515 2852.0
14.5693 2806.0
14.6237 2768.0
14.678 2707.0
14.7323 2743.0
14.7867 2610.0
14.841 2720.0
14.8953 2707.0
14.9497 2573.0
15.004 2645.0
15.0583 2636.0
15.1127 2706.0
15.167 2637.0
15.2213 2571.0
15.2757 2611.0
15.33 2613.0
15.3843 2579.0
15.4387 2491.0
15.493 2532.0
15.5473 2664.0
15.6016 2629.0
15.656 2587.0
15.7103 2754.0
15.7646 2684.0
15.819 2891.0
15.8733 3294.0
15.9276 3618.0
15.982 4271.0
16.0363 4565.0
16.0906 4949.0
16.145 6147.0
16.1993 6673.0
16.2536 5595.0
16.308 4080.0
16.3623 3070.0
16.4166 2654.0
16.471 2565.0
16.5253 2421.0
16.5796 2393.0
16.634 2282.0
16.6883 2266.0
16.7426 2348.0
16.797 2316.0
16.8513 2323.0
16.9056 2252.0
16.96 2347.0
17.0143 2320.0
17.0686 2249.0
17.123 2430.0
17.1773 2286.0
17.2316 2272.0
17.2859 2333.0
17.3403 2230.0
17.3946 2313.0
17.4489 2266.0
17.5033 2371.0
17.5576 2234.0
17.6119 2362.0
17.6663 2349.0
17.7206 2389.0
17.7749 2326.0
17.8293 2348.0
17.8836 2417.0
17.9379 2538.0
17.9923 2912.0
18.0466 3305.0
18.1009 4096.0
18.1553 4460.0
18.2096 4680.0
18.2639 4835.0
18.3183 4870.0
18.3726 4139.0
18.4269 3157.0
18.4813 2704.0
18.5356 2431.0
18.5899 2475.0
18.6443 2415.0
18.6986 2440.0
18.7529 2350.0
18.8072 2448.0
18.8616 2413.0
18.9159 2472.0
18.9702 2454.0
19.0246 2460.0
19.0789 2572.0
19.1332 2710.0
19.1876 3204.0
19.2419 3496.0
19.2962 3918.0
19.3506 4105.0
19.4049 4070.0
19.4592 4047.0
19.5136 4136.0
19.5679 3664.0
19.6222 2838.0
19.6766 2621.0
19.7309 2438.0
19.7852 2532.0
19.8396 2673.0
19.8939 2517.0
19.9482 2471.0
20.0026 2427.0
20.0569 2542.0
20.1112 2496.0
20.1656 2491.0
20.2199 2636.0
20.2742 2608.0
20.3286 2639.0
20.3829 2820.0
20.4372 2784.0
20.4915 2876.0
20.5459 2963.0
20.6002 3084.0
20.6545 3072.0
20.7089 2994.0
20.7632 3041.0
20.8175 2896.0
20.8719 2904.0
20.9262 2838.0
20.9805 2790.0
21.0349 2769.0
21.0892 2892.0
21.1435 2850.0
21.1979 2872.0
21.2522 2928.0
21.3065 2821.0
21.3609 2949.0
21.4152 2875.0
21.4695 3047.0
21.5239 3015.0
21.5782 2975.0
21.6325 3088.0
21.6869 3148.0
21.7412 3105.0
21.7955 3346.0
21.8499 3419.0
21.9042 3502.0
21.9585 3796.0
22.0128 4134.0
22.0672 4568.0
22.1215 4947.0
22.1758 5587.0
22.2302 6718.0
22.2845 8363.0
22.3388 10149.0
22.3932 11606.0
22.4475 13406.0
22.5018 18012.0
22.5562 31614.0
22.6105 50801.0
22.6648 67603.0
22.7192 96955.0
22.7735 144666.0
22.8278 174930.0
22.8822 165934.0
22.9365 160075.0
22.9908 178596.0
23.0452 155772.0
23.0995 106467.0
23.1538 68536.0
23.2082 38750.0
23.2625 22987.0
23.3168 17922.0
23.3712 18393.0
23.4255 19625.0
23.4798 20022.0
23.5342 16456.0
23.5885 12219.0
23.6428 9592.0
23.6971 8782.0
23.7515 8766.0
23.8058 8433.0
23.8601 7065.0
23.9145 6059.0
23.9688 5297.0
24.0231 5369.0
24.0775 5466.0
24.1318 5339.0
24.1861 5362.0
24.2405 5587.0
24.2948 5602.0
24.3491 5944.0
24.4035 6662.0
24.4578 8079.0
24.5121 11779.0
24.5665 22044.0
24.6208 35292.0
24.6751 46960.0
24.7295 58069.0
24.7838 65548.0
24.8381 60720.0
24.8925 51407.0
24.9468 35737.0
25.0011 20271.0
25.0555 10839.0
25.1098 6984.0
25.1641 5583.0
25.2184 5275.0
25.2728 4805.0
25.3271 4732.0
25.3814 4397.0
25.4358 4312.0
25.4901 4230.0
25.5444 4368.0
25.5988 4173.0
25.6531 4135.0
25.7074 4306.0
25.7618 4200.0
25.8161 4267.0
25.8704 4272.0
25.9248 4391.0
25.9791 4476.0
26.0334 4640.0
26.0878 4914.0
26.1421 4681.0
26.1964 4400.0
26.2508 4106.0
26.3051 4223.0
26.3594 4996.0
26.4138 6017.0
26.4681 6357.0
26.5224 6214.0
26.5768 5846.0
26.6311 5438.0
26.6854 5625.0
26.7398 5431.0
26.7941 4995.0
26.8484 4199.0
26.9027 4164.0
26.9571 3954.0
27.0114 4206.0
27.0657 4390.0
27.1201 4667.0
27.1744 5032.0
27.2287 5225.0
27.2831 5815.0
27.3374 6950.0
27.3917 8123.0
27.4461 8960.0
27.5004 11315.0
27.5547 17391.0
27.6091 25278.0
27.6634 31648.0
27.7177 33899.0
27.7721 36400.0
27.8264 38602.0
27.8807 46871.0
27.9351 45108.0
27.9894 36825.0
28.0437 19666.0
28.0981 9102.0
28.1524 5601.0
28.2067 4795.0
28.2611 4245.0
28.3154 4116.0
28.3697 3763.0
28.424 3699.0
28.4784 3537.0
28.5327 3480.0
28.587 3451.0
28.6414 3410.0
28.6957 3242.0
28.75 3334.0
28.8044 3299.0
28.8587 3213.0
28.913 3204.0
28.9674 3119.0
29.0217 3127.0
29.076 3156.0
29.1304 3018.0
29.1847 2987.0
29.239 3006.0
29.2934 3061.0
29.3477 2952.0
29.402 3238.0
29.4564 3307.0
29.5107 3416.0
29.565 3478.0
29.6194 3572.0
29.6737 3481.0
29.728 3373.0
29.7824 3220.0
29.8367 3269.0
29.891 2921.0
29.9454 2800.0
29.9997 2800.0
30.054 2751.0
30.1083 2629.0
30.1627 2708.0
30.217 2511.0
30.2713 2603.0
30.3257 2726.0
30.38 2621.0
30.4343 2613.0
30.4887 2550.0
30.543 2582.0
30.5973 2543.0
30.6517 2557.0
30.706 2469.0
30.7603 2596.0
30.8147 2571.0
30.869 2508.0
30.9233 2481.0
30.9777 2566.0
31.032 2571.0
31.0863 2513.0
31.1407 2576.0
31.195 2637.0
31.2493 2701.0
31.3037 2917.0
31.358 3349.0
31.4123 3560.0
31.4667 4071.0
31.521 5152.0
31.5753 5859.0
31.6296 6912.0
31.684 6882.0
31.7383 6189.0
31.7926 5089.0
31.847 4470.0
31.9013 4204.0
31.9556 4342.0
32.01 5057.0
32.0643 5663.0
32.1186 5682.0
32.173 6131.0
32.2273 7375.0
32.2816 8320.0
32.336 9845.0
32.3903 11576.0
32.4446 10182.0
32.499 8027.0
32.5533 8330.0
32.6076 9852.0
32.662 10173.0
32.7163 7591.0
32.7706 5281.0
32.825 3936.0
32.8793 3396.0
32.9336 3434.0
32.988 3682.0
33.0423 3585.0
33.0966 3448.0
33.151 3275.0
33.2053 3287.0
33.2596 3537.0
33.3139 3477.0
33.3683 3572.0
33.4226 3924.0
33.4769 3475.0
33.5313 3130.0
33.5856 2620.0
33.6399 2680.0
33.6943 2786.0
33.7486 2929.0
33.8029 2880.0
33.8573 2990.0
33.9116 2999.0
33.9659 2848.0
34.0203 3009.0
34.0746 3140.0
34.1289 3328.0
34.1833 2876.0
34.2376 2558.0
34.2919 2284.0
34.3463 2241.0
34.4006 2258.0
34.4549 2183.0
34.5093 2118.0
34.5636 2247.0
34.6179 2324.0
34.6723 2236.0
34.7266 2272.0
34.7809 2288.0
34.8352 2237.0
34.8896 2208.0
34.9439 2132.0
34.9982 2208.0
35.0526 2047.0
35.1069 2261.0
35.1612 2165.0
35.2156 2222.0
35.2699 2154.0
35.3242 2317.0
35.3786 2437.0
35.4329 2716.0
35.4872 2934.0
35.5416 3258.0
35.5959 3775.0
35.6502 4869.0
35.7046 5704.0
35.7589 6799.0
35.8132 7411.0
35.8676 7194.0
35.9219 7971.0
35.9762 7561.0
36.0306 6620.0
36.0849 5539.0
36.1392 4903.0
36.1936 4048.0
36.2479 3554.0
36.3022 2981.0
36.3566 2635.0
36.4109 2558.0
36.4652 2412.0
36.5195 2517.0
36.5739 2700.0
36.6282 2795.0
36.6825 2749.0
36.7369 2838.0
36.7912 3013.0
36.8455 3432.0
36.8999 3216.0
36.9542 3139.0
37.0085 3078.0
37.0629 2935.0
37.1172 2761.0
37.1715 2490.0
37.2259 2290.0
37.2802 2186.0
37.3345 2067.0
37.3889 2133.0
37.4432 2023.0
37.4975 2187.0
37.5519 2107.0
37.6062 2204.0
37.6605 2210.0
37.7149 2095.0
37.7692 2129.0
37.8235 2105.0
37.8779 2202.0
37.9322 2168.0
37.9865 2045.0
38.0408 2164.0
38.0952 2086.0
38.1495 2112.0
38.2038 2143.0
38.2582 2074.0
38.3125 2005.0
38.3668 2129.0
38.4212 2164.0
38.4755 2136.0
38.5298 2184.0
38.5842 2134.0
38.6385 2137.0
38.6928 2202.0
38.7472 2267.0
38.8015 2270.0
38.8558 2411.0
38.9102 2595.0
38.9645 2658.0
39.0188 2732.0
39.0732 3064.0
39.1275 3465.0
39.1818 3749.0
39.2362 4052.0
39.2905 4500.0
39.3448 5849.0
39.3992 6040.0
39.4535 5590.0
39.5078 4458.0
39.5622 3492.0
39.6165 3186.0
39.6708 3382.0
39.7251 3603.0
39.7795 4947.0
39.8338 6026.0
39.8881 8033.0
39.9425 7722.0
39.9968 8398.0
40.0511 8119.0
40.1055 7344.0
40.1598 5375.0
40.2141 4296.0
40.2685 3407.0
40.3228 2984.0
40.3771 2659.0
40.4315 2573.0
40.4858 2287.0
40.5401 2289.0
40.5945 2531.0
40.6488 2694.0
40.7031 3530.0
40.7575 4192.0
40.8118 4769.0
40.8661 5369.0
40.9205 4830.0
40.9748 4312.0
41.0291 3900.0
41.0835 3534.0
41.1378 3266.0
41.1921 3351.0
41.2464 3238.0
41.3008 3555.0
41.3551 4190.0
41.4094 4413.0
41.4638 3941.0
41.5181 3633.0
41.5724 2902.0
41.6268 2553.0
41.6811 2282.0
41.7354 2231.0
41.7898 1997.0
41.8441 2098.0
41.8984 2062.0
41.9528 2174.0
42.0071 2119.0
42.0614 2048.0
42.1158 2033.0
42.1701 2037.0
42.2244 2035.0
42.2788 2025.0
42.3331 2052.0
42.3874 1983.0
42.4418 2086.0
42.4961 2106.0
42.5504 2175.0
42.6048 2478.0
42.6591 2737.0
42.7134 3140.0
42.7677 3792.0
42.8221 4318.0
42.8764 4351.0
42.9307 4444.0
42.9851 4245.0
43.0394 3808.0
43.0937 3388.0
43.1481 2921.0
43.2024 2640.0
43.2567 2429.0
43.3111 2206.0
43.3654 2030.0
43.4197 1956.0
43.4741 1893.0
43.5284 1936.0
43.5827 1898.0
43.6371 1880.0
43.6914 1939.0
43.7457 1954.0
43.8001 1916.0
43.8544 1932.0
43.9087 1917.0
43.9631 1975.0
44.0174 1864.0
44.0717 1783.0
44.1261 1847.0
44.1804 1881.0
44.2347 1908.0
44.2891 1781.0
44.3434 1833.0
44.3977 1850.0
44.452 1877.0
44.5064 1929.0
44.5607 1992.0
44.615 1963.0
44.6694 1994.0
44.7237 1943.0
44.778 1994.0
44.8324 1988.0
44.8867 2041.0
44.941 2455.0
44.9954 2586.0
45.0497 2572.0
45.104 2764.0
45.1584 3017.0
45.2127 3227.0
45.267 3159.0
45.3214 3234.0
45.3757 2768.0
45.43 2800.0
45.4844 3023.0
45.5387 3219.0
45.593 3236.0
45.6474 3600.0
45.7017 3414.0
45.756 3404.0
45.8104 3644.0
45.8647 5701.0
45.919 6976.0
45.9733 7157.0
46.0277 7184.0
46.082 6605.0
46.1363 5879.0
46.1907 5011.0
46.245 4162.0
46.2993 3493.0
46.3537 2975.0
46.408 2692.0
46.4623 2397.0
46.5167 2427.0
46.571 2321.0
46.6253 2696.0
46.6797 3197.0
46.734 3725.0
46.7883 3691.0
46.8427 3559.0
46.897 3560.0
46.9513 3217.0
47.0057 3298.0
47.06 3277.0
47.1143 2843.0
47.1687 2592.0
47.223 2370.0
47.2773 2175.0
47.3317 2083.0
47.386 2368.0
47.4403 2496.0
47.4947 2939.0
47.549 3718.0
47.6033 4181.0
47.6576 4311.0
47.712 3798.0
47.7663 3261.0
47.8206 2874.0
47.875 2527.0
47.9293 2526.0
47.9836 2663.0
48.038 2417.0
48.0923 2358.0
48.1466 2413.0
48.201 2223.0
48.2553 2291.0
48.3096 2172.0
48.364 2210.0
48.4183 2139.0
48.4726 2167.0
48.527 1996.0
48.5813 1945.0
48.6356 1808.0
48.69 1825.0
48.7443 1846.0
48.7986 1850.0
48.853 1782.0
48.9073 1831.0
48.9616 1888.0
49.016 1909.0
49.0703 1895.0
49.1246 1972.0
49.1789 1817.0
49.2333 1939.0
49.2876 2032.0
49.3419 2031.0
49.3963 1989.0
49.4506 1886.0
49.5049 1764.0
49.5593 1807.0
49.6136 1865.0
49.6679 1810.0
49.7223 1889.0
49.7766 1970.0
49.8309 1858.0
49.8853 1981.0
49.9396 1954.0
49.9939 1937.0
50.0483 1889.0
50.1026 1885.0
50.1569 1769.0
50.2113 1917.0
50.2656 1717.0
50.3199 1686.0
50.3743 1688.0
50.4286 1666.0
50.4829 1627.0
50.5373 1652.0
50.5916 1591.0
50.6459 1778.0
50.7003 1741.0
50.7546 1744.0
50.8089 1859.0
50.8632 1929.0
50.9176 1923.0
50.9719 1936.0
51.0262 1912.0
51.0806 1894.0
51.1349 1949.0
51.1892 1981.0
51.2436 2244.0
51.2979 2414.0
51.3522 2204.0
51.4066 2117.0
51.4609 2036.0
51.5152 1911.0
51.5696 1822.0
51.6239 2038.0
51.6782 2112.0
51.7326 2299.0
51.7869 2350.0
51.8412 2257.0
51.8956 2042.0
51.9499 1896.0
52.0042 1709.0
52.0586 1633.0
52.1129 1734.0
52.1672 1630.0
52.2216 1742.0
52.2759 1599.0
52.3302 1577.0
52.3845 1623.0
52.4389 1660.0
52.4932 1616.0
52.5475 1596.0
52.6019 1623.0
52.6562 1600.0
52.7105 1591.0
52.7649 1654.0
52.8192 1744.0
52.8735 1741.0
52.9279 1828.0
52.9822 1705.0
53.0365 1845.0
53.0909 1710.0
53.1452 1754.0
53.1995 1828.0
53.2539 1823.0
53.3082 1805.0
53.3625 1893.0
53.4169 1878.0
53.4712 1942.0
53.5255 1926.0
53.5799 1974.0
53.6342 2101.0
53.6885 2088.0
53.7429 2622.0
53.7972 2534.0
53.8515 2790.0
53.9059 3146.0
53.9602 3184.0
54.0145 2904.0
54.0688 2808.0
54.1232 2552.0
54.1775 2178.0
54.2318 1933.0
54.2862 1877.0
54.3405 1729.0
54.3948 1652.0
54.4492 1562.0
54.5035 1641.0
54.5578 1625.0
54.6122 1675.0
54.6665 1696.0
54.7208 1610.0
54.7752 1623.0
54.8295 1620.0
54.8838 1500.0
54.9382 1587.0
54.9925 1510.0
55.0468 1517.0
55.1012 1539.0
55.1555 1504.0
55.2098 1499.0
55.2642 1506.0
55.3185 1469.0
55.3728 1455.0
55.4272 1522.0
55.4815 1469.0
55.5358 1535.0
55.5901 1501.0
55.6445 1449.0
55.6988 1539.0
55.7531 1505.0
55.8075 1629.0
55.8618 1684.0
55.9161 1690.0
55.9705 1767.0
56.0248 1811.0
56.0791 1688.0
56.1335 1685.0
56.1878 1732.0
56.2421 1762.0
56.2965 1670.0
56.3508 1637.0
56.4051 1683.0
56.4595 1633.0
56.5138 1695.0
56.5681 1664.0
56.6225 1653.0
56.6768 1675.0
56.7311 1677.0
56.7855 1714.0
56.8398 1745.0
56.8941 1792.0
56.9485 1761.0
57.0028 1900.0
57.0571 2062.0
57.1115 1942.0
57.1658 2040.0
57.2201 2006.0
57.2744 1875.0
57.3288 2002.0
57.3831 1993.0
57.4374 1901.0
57.4918 1928.0
57.5461 1879.0
57.6004 1661.0
57.6548 1561.0
57.7091 1531.0
57.7634 1499.0
57.8178 1486.0
57.8721 1490.0
57.9264 1534.0
57.9808 1556.0
58.0351 1557.0
58.0894 1546.0
58.1438 1494.0
58.1981 1622.0
58.2524 1592.0
58.3068 1598.0
58.3611 1553.0
58.4154 1534.0
58.4698 1563.0
58.5241 1563.0
58.5784 1538.0
58.6328 1560.0
58.6871 1492.0
58.7414 1624.0
58.7957 1491.0
58.8501 1484.0
58.9044 1402.0
58.9587 1429.0
59.0131 1445.0
59.0674 1421.0
59.1217 1438.0
59.1761 1399.0
59.2304 1365.0
59.2847 1425.0
59.3391 1464.0
59.3934 1747.0
59.4477 1958.0
59.5021 2207.0
59.5564 2169.0
59.6107 2206.0
59.6651 2258.0
59.7194 2151.0
59.7737 1919.0
59.8281 1816.0
59.8824 1711.0
59.9367 1568.0
59.9911 1473.0
60.0454 1451.0
60.0997 1478.0
60.1541 1502.0
60.2084 1369.0
60.2627 1462.0
60.3171 1495.0
60.3714 1457.0
60.4257 1474.0
60.48 1562.0
60.5344 1657.0
60.5887 1835.0
60.643 1796.0
60.6974 2007.0
60.7517 1904.0
60.806 1906.0
60.8604 1843.0
60.9147 1832.0
60.969 1777.0
61.0234 1624.0
61.0777 1584.0
61.132 1572.0
61.1864 1588.0
61.2407 1497.0
61.295 1430.0
61.3494 1442.0
61.4037 1450.0
61.458 1315.0
61.5124 1319.0
61.5667 1377.0
61.621 1224.0
61.6754 1290.0
61.7297 1261.0
61.784 1310.0
61.8384 1161.0
61.8927 1326.0
61.947 1257.0
62.0013 1278.0
62.0557 1231.0
62.11 1239.0
62.1643 1249.0
62.2187 1193.0
62.273 1248.0
62.3273 1218.0
62.3817 1245.0
62.436 1273.0
62.4903 1306.0
62.5447 1313.0
62.599 1362.0
62.6533 1380.0
62.7077 1395.0
62.762 1369.0
62.8163 1416.0
62.8707 1424.0
62.925 1475.0
62.9793 1454.0
63.0337 1394.0
63.088 1389.0
63.1423 1323.0
63.1967 1249.0
63.251 1276.0
63.3053 1247.0
63.3597 1329.0
63.414 1228.0
63.4683 1272.0
63.5227 1316.0
63.577 1277.0
63.6313 1287.0
63.6856 1284.0
63.74 1274.0
63.7943 1227.0
63.8486 1173.0
63.903 1164.0
63.9573 1168.0
64.0116 1167.0
64.066 1058.0
64.1203 1141.0
64.1746 1135.0
64.229 1135.0
64.2833 1111.0
64.3376 1143.0
64.392 1129.0
64.4463 1166.0
64.5006 1108.0
64.555 1137.0
64.6093 1204.0
64.6636 1129.0
64.718 1155.0
64.7723 1086.0
64.8266 1141.0
64.881 1174.0
64.9353 1125.0
64.9896 1168.0
65.044 1137.0
65.0983 1169.0
65.1526 1142.0
65.2069 1234.0
65.2613 1164.0
65.3156 1076.0
65.3699 1104.0
65.4243 1142.0
65.4786 1227.0
65.5329 1301.0
65.5873 1362.0
65.6416 1302.0
65.6959 1322.0
65.7503 1300.0
65.8046 1256.0
65.8589 1255.0
65.9133 1151.0
65.9676 1244.0
66.0219 1174.0
66.0763 1177.0
66.1306 1254.0
66.1849 1188.0
66.2393 1171.0
66.2936 1145.0
66.3479 1104.0
66.4023 1087.0
66.4566 1119.0
66.5109 1090.0
66.5653 1052.0
66.6196 1068.0
66.6739 1147.0
66.7283 1134.0
66.7826 1028.0
66.8369 1159.0
66.8912 1199.0
66.9456 1158.0
66.9999 1192.0
67.0542 1118.0
67.1086 1128.0
67.1629 1096.0
67.2172 1127.0
67.2716 1106.0
67.3259 1119.0
67.3802 1147.0
67.4346 1097.0
67.4889 1226.0
67.5432 1139.0
67.5976 1112.0
67.6519 1032.0
67.7062 1105.0
67.7606 1066.0
67.8149 1022.0
67.8692 1030.0
67.9236 994.0
67.9779 1100.0
68.0322 1079.0
68.0866 1129.0
68.1409 1133.0
68.1952 1126.0
68.2496 1166.0
68.3039 1123.0
68.3582 1118.0
68.4125 1098.0
68.4669 1133.0
68.5212 1018.0
68.5755 1062.0
68.6299 1060.0
68.6842 1032.0
68.7385 1008.0
68.7929 1052.0
68.8472 1065.0
68.9015 1097.0
68.9559 1039.0
69.0102 1048.0
69.0645 1082.0
69.1189 1158.0
69.1732 1144.0
69.2275 1080.0
69.2819 1066.0
69.3362 1097.0
69.3905 1018.0
69.4449 1059.0
69.4992 1014.0
69.5535 1039.0
69.6079 1020.0
69.6622 1060.0
69.7165 1074.0
69.7709 1052.0
69.8252 1027.0
69.8795 1044.0
69.9338 960.0
69.9882 1024.0
70.0425 985.0
70.0968 975.0
70.1512 972.0
70.2055 1017.0
70.2598 1008.0
70.3142 940.0
70.3685 988.0
70.4228 1014.0
70.4772 1071.0
70.5315 1021.0
70.5858 972.0
70.6402 1006.0
70.6945 1073.0
70.7488 983.0
70.8032 1003.0
70.8575 977.0
70.9118 1036.0
70.9662 976.0
71.0205 979.0
71.0748 1079.0
71.1292 1044.0
71.1835 1074.0
71.2378 1129.0
71.2922 1145.0
71.3465 1142.0
71.4008 1170.0
71.4552 1168.0
71.5095 1231.0
71.5638 1132.0
71.6181 1138.0
71.6725 1132.0
71.7268 1069.0
71.7811 1097.0
71.8355 979.0
71.8898 1010.0
71.9441 1044.0
71.9985 1006.0
72.0528 974.0
72.1071 978.0
72.1615 1003.0
72.2158 999.0
72.2701 950.0
72.3245 1034.0
72.3788 915.0
72.4331 922.0
72.4875 978.0
72.5418 929.0
72.5961 934.0
72.6505 990.0
72.7048 913.0
72.7591 945.0
72.8135 938.0
72.8678 977.0
72.9221 978.0
72.9765 937.0
73.0308 971.0
73.0851 1063.0
73.1394 1057.0
73.1938 1025.0
73.2481 1023.0
73.3024 1037.0
73.3568 1046.0
73.4111 987.0
73.4654 962.0
73.5198 1029.0
73.5741 924.0
73.6284 923.0
73.6828 905.0
73.7371 914.0
73.7914 942.0
73.8458 948.0
73.9001 934.0
73.9544 959.0
74.0088 924.0
74.0631 933.0
74.1174 863.0
74.1718 919.0
74.2261 933.0
74.2804 944.0
74.3348 938.0
74.3891 982.0
74.4434 1021.0
74.4978 978.0
74.5521 967.0
74.6064 1035.0
74.6608 1008.0
74.7151 1046.0
74.7694 1053.0
74.8237 1019.0
74.8781 980.0
74.9324 983.0
74.9867 910.0
75.0411 979.0
75.0954 977.0
75.1497 944.0
75.2041 909.0
75.2584 935.0
75.3127 961.0
75.3671 1029.0
75.4214 917.0
75.4757 984.0
75.5301 882.0
75.5844 947.0
75.6387 917.0
75.6931 971.0
75.7474 996.0
75.8017 966.0
75.8561 1004.0
75.9104 962.0
75.9647 940.0
76.0191 993.0
76.0734 947.0
76.1277 986.0
76.1821 1038.0
76.2364 982.0
76.2907 979.0
76.345 967.0
76.3994 965.0
76.4537 922.0
76.508 996.0
76.5624 958.0
76.6167 1023.0
76.671 969.0
76.7254 921.0
76.7797 927.0
76.834 982.0
76.8884 1008.0
76.9427 990.0
76.997 1032.0
77.0514 976.0
77.1057 999.0
77.16 972.0
77.2144 998.0
77.2687 953.0
77.323 968.0
77.3774 931.0
77.4317 935.0
77.486 930.0
77.5404 1004.0
77.5947 940.0
77.649 936.0
77.7034 941.0
77.7577 979.0
77.812 921.0
77.8664 942.0
77.9207 1006.0
77.975 1003.0
78.0293 1067.0
78.0837 1181.0
78.138 1173.0
78.1923 1098.0
78.2467 1022.0
78.301 1061.0
78.3553 1035.0
78.4097 1116.0
78.464 1033.0
78.5183 1028.0
78.5727 1052.0
78.627 1219.0
78.6813 1286.0
78.7357 1216.0
78.79 1100.0
78.8443 1184.0
78.8987 1183.0
78.953 1093.0
79.0073 1054.0
79.0617 1047.0
79.116 991.0
79.1703 997.0
79.2247 935.0
79.279 941.0
79.3333 1018.0
79.3877 941.0
79.442 972.0
79.4963 934.0
79.5506 1017.0
79.605 929.0
79.6593 976.0
79.7136 964.0
79.768 1004.0
79.8223 950.0
79.8766 960.0
79.931 1002.0
79.9853 959.0
79.9962 1052.0