File: XRD/2025_06_03_CBD_SA_Slurry_3_60_8min.xy
3.00043 44515.0
3.0439 42502.0
3.08736 40728.0
3.13083 38161.0
3.1743 36476.0
3.21776 34314.0
3.26123 32428.0
3.30469 30621.0
3.34816 28793.0
3.39163 27370.0
3.43509 25872.0
3.47856 24440.0
3.52202 23014.0
3.56549 21642.0
3.60895 20310.0
3.65242 19103.0
3.69589 17812.0
3.73935 16877.0
3.78282 15494.0
3.82628 14670.0
3.86975 13710.0
3.91321 12601.0
3.95668 11805.0
4.00015 11043.0
4.04361 10057.0
4.08708 9469.0
4.13054 8738.0
4.17401 8130.0
4.21747 7587.0
4.26094 6932.0
4.30441 6582.0
4.34787 5848.0
4.39134 5446.0
4.4348 5062.0
4.47827 4766.0
4.52173 4248.0
4.5652 3913.0
4.60867 3747.0
4.65213 3497.0
4.6956 3283.0
4.73906 3143.0
4.78253 2937.0
4.826 2911.0
4.86946 2942.0
4.91293 2988.0
4.95639 2964.0
4.99986 2903.0
5.04332 3307.0
5.08679 3582.0
5.13026 3956.0
5.17372 4466.0
5.21719 4460.0
5.26065 4106.0
5.30412 3314.0
5.34758 2839.0
5.39105 2802.0
5.43452 2790.0
5.47798 2879.0
5.52145 3123.0
5.56491 3419.0
5.60838 3633.0
5.65184 4010.0
5.69531 4600.0
5.73878 4469.0
5.78224 3927.0
5.82571 3007.0
5.86917 2229.0
5.91264 1670.0
5.9561 1560.0
5.99957 1435.0
6.04304 1340.0
6.0865 1240.0
6.12997 1154.0
6.17343 1214.0
6.2169 1168.0
6.26037 1058.0
6.30383 1015.0
6.3473 1075.0
6.39076 974.0
6.43423 949.0
6.47769 944.0
6.52116 919.0
6.56463 902.0
6.60809 826.0
6.65156 787.0
6.69502 839.0
6.73849 797.0
6.78195 780.0
6.82542 795.0
6.86889 799.0
6.91235 761.0
6.95582 667.0
6.99928 729.0
7.04275 703.0
7.08621 719.0
7.12968 658.0
7.17315 685.0
7.21661 686.0
7.26008 665.0
7.30354 646.0
7.34701 638.0
7.39047 612.0
7.43394 606.0
7.47741 654.0
7.52087 568.0
7.56434 570.0
7.6078 558.0
7.65127 495.0
7.69474 525.0
7.7382 547.0
7.78167 562.0
7.82513 550.0
7.8686 524.0
7.91206 532.0
7.95553 547.0
7.999 532.0
8.04246 531.0
8.08593 520.0
8.12939 546.0
8.17286 539.0
8.21632 546.0
8.25979 485.0
8.30326 519.0
8.34672 539.0
8.39019 524.0
8.43365 514.0
8.47712 523.0
8.52058 499.0
8.56405 558.0
8.60752 523.0
8.65098 583.0
8.69445 617.0
8.73791 614.0
8.78138 624.0
8.82485 709.0
8.86831 688.0
8.91178 730.0
8.95524 825.0
8.99871 916.0
9.04217 984.0
9.08564 1146.0
9.12911 1250.0
9.17257 1559.0
9.21604 1803.0
9.2595 1919.0
9.30297 2195.0
9.34643 2294.0
9.3899 2084.0
9.43337 1799.0
9.47683 1406.0
9.5203 1026.0
9.56376 912.0
9.60723 768.0
9.65069 697.0
9.69416 651.0
9.73763 617.0
9.78109 598.0
9.82456 568.0
9.86802 646.0
9.91149 614.0
9.95495 678.0
9.99842 669.0
10.0419 712.0
10.0854 734.0
10.1288 775.0
10.1723 812.0
10.2157 928.0
10.2592 943.0
10.3027 1073.0
10.3461 1205.0
10.3896 1323.0
10.4331 1419.0
10.4765 1618.0
10.52 1777.0
10.5635 1778.0
10.6069 1684.0
10.6504 1485.0
10.6939 1201.0
10.7373 1070.0
10.7808 978.0
10.8243 1100.0
10.8677 1150.0
10.9112 1318.0
10.9547 1506.0
10.9981 1697.0
11.0416 1826.0
11.0851 1990.0
11.1285 1947.0
11.172 2102.0
11.2155 2174.0
11.2589 2536.0
11.3024 2825.0
11.3459 3040.0
11.3893 3158.0
11.4328 3086.0
11.4763 2870.0
11.5197 2881.0
11.5632 2748.0
11.6067 2749.0
11.6501 2556.0
11.6936 2316.0
11.7371 1860.0
11.7805 1474.0
11.824 1112.0
11.8674 1076.0
11.9109 977.0
11.9544 1012.0
11.9978 1141.0
12.0413 1314.0
12.0848 1598.0
12.1282 1807.0
12.1717 1950.0
12.2152 2048.0
12.2586 1939.0
12.3021 1825.0
12.3456 1509.0
12.389 1203.0
12.4325 1048.0
12.476 1087.0
12.5194 1045.0
12.5629 1013.0
12.6064 1031.0
12.6498 922.0
12.6933 850.0
12.7368 828.0
12.7802 852.0
12.8237 846.0
12.8672 902.0
12.9106 883.0
12.9541 856.0
12.9976 801.0
13.041 760.0
13.0845 645.0
13.128 634.0
13.1714 634.0
13.2149 635.0
13.2584 594.0
13.3018 613.0
13.3453 655.0
13.3887 662.0
13.4322 650.0
13.4757 684.0
13.5191 714.0
13.5626 689.0
13.6061 709.0
13.6495 659.0
13.693 613.0
13.7365 585.0
13.7799 578.0
13.8234 572.0
13.8669 558.0
13.9103 561.0
13.9538 595.0
13.9973 597.0
14.0407 570.0
14.0842 626.0
14.1277 690.0
14.1711 601.0
14.2146 658.0
14.2581 707.0
14.3015 759.0
14.345 832.0
14.3885 911.0
14.4319 999.0
14.4754 1122.0
14.5189 1342.0
14.5623 1418.0
14.6058 1424.0
14.6493 1498.0
14.6927 1573.0
14.7362 1449.0
14.7797 1332.0
14.8231 1089.0
14.8666 971.0
14.9101 969.0
14.9535 1012.0
14.997 1257.0
15.0404 1477.0
15.0839 1583.0
15.1274 1856.0
15.1708 1858.0
15.2143 2043.0
15.2578 2112.0
15.3012 2115.0
15.3447 1999.0
15.3882 2086.0
15.4316 2298.0
15.4751 2865.0
15.5186 3668.0
15.562 4311.0
15.6055 5190.0
15.649 5576.0
15.6924 5915.0
15.7359 5608.0
15.7794 4811.0
15.8228 3636.0
15.8663 2485.0
15.9098 1745.0
15.9532 1444.0
15.9967 1380.0
16.0402 1486.0
16.0836 1724.0
16.1271 2016.0
16.1706 2354.0
16.214 2614.0
16.2575 2832.0
16.301 2908.0
16.3444 2947.0
16.3879 2796.0
16.4314 2619.0
16.4748 2492.0
16.5183 2371.0
16.5618 2271.0
16.6052 2150.0
16.6487 1972.0
16.6921 1827.0
16.7356 1657.0
16.7791 1437.0
16.8225 1355.0
16.866 1312.0
16.9095 1260.0
16.9529 1389.0
16.9964 1595.0
17.0399 1801.0
17.0833 2102.0
17.1268 2351.0
17.1703 2771.0
17.2137 2952.0
17.2572 3064.0
17.3007 3127.0
17.3441 2952.0
17.3876 2666.0
17.4311 2263.0
17.4745 1907.0
17.518 1458.0
17.5615 1240.0
17.6049 1176.0
17.6484 1030.0
17.6919 981.0
17.7353 1035.0
17.7788 1033.0
17.8223 1016.0
17.8657 1032.0
17.9092 1030.0
17.9527 1094.0
17.9961 1038.0
18.0396 1047.0
18.0831 1149.0
18.1265 1367.0
18.17 1466.0
18.2134 1743.0
18.2569 2075.0
18.3004 2478.0
18.3438 2895.0
18.3873 3382.0
18.4308 3928.0
18.4742 4333.0
18.5177 5127.0
18.5612 5587.0
18.6046 5898.0
18.6481 6044.0
18.6916 5926.0
18.735 5347.0
18.7785 4770.0
18.822 3982.0
18.8654 3344.0
18.9089 3054.0
18.9524 2958.0
18.9958 3133.0
19.0393 3275.0
19.0828 3621.0
19.1262 3795.0
19.1697 3641.0
19.2132 3543.0
19.2566 3556.0
19.3001 3395.0
19.3436 3150.0
19.387 2868.0
19.4305 2560.0
19.474 1975.0
19.5174 1665.0
19.5609 1372.0
19.6044 1274.0
19.6478 1219.0
19.6913 1166.0
19.7348 1245.0
19.7782 1282.0
19.8217 1471.0
19.8651 1544.0
19.9086 1462.0
19.9521 1455.0
19.9955 1374.0
20.039 1312.0
20.0825 1298.0
20.1259 1266.0
20.1694 1303.0
20.2129 1375.0
20.2563 1480.0
20.2998 1621.0
20.3433 1737.0
20.3867 1931.0
20.4302 2241.0
20.4737 2576.0
20.5171 3327.0
20.5606 3654.0
20.6041 4109.0
20.6475 4288.0
20.691 4442.0
20.7345 4375.0
20.7779 4129.0
20.8214 4045.0
20.8649 4315.0
20.9083 5022.0
20.9518 5920.0
20.9953 6850.0
21.0387 7579.0
21.0822 7691.0
21.1257 7566.0
21.1691 6866.0
21.2126 5679.0
21.2561 4435.0
21.2995 3392.0
21.343 2556.0
21.3864 2138.0
21.4299 1729.0
21.4734 1519.0
21.5168 1303.0
21.5603 1281.0
21.6038 1129.0
21.6472 1115.0
21.6907 1123.0
21.7342 1064.0
21.7776 1089.0
21.8211 1101.0
21.8646 1135.0
21.908 1240.0
21.9515 1393.0
21.995 1483.0
22.0384 1628.0
22.0819 1763.0
22.1254 1824.0
22.1688 1821.0
22.2123 1656.0
22.2558 1532.0
22.2992 1454.0
22.3427 1221.0
22.3862 1184.0
22.4296 1105.0
22.4731 1144.0
22.5166 1211.0
22.56 1174.0
22.6035 1123.0
22.647 1186.0
22.6904 1191.0
22.7339 1304.0
22.7774 1441.0
22.8208 1454.0
22.8643 1717.0
22.9078 1814.0
22.9512 1867.0
22.9947 1870.0
23.0381 1635.0
23.0816 1524.0
23.1251 1464.0
23.1685 1436.0
23.212 1409.0
23.2555 1404.0
23.2989 1463.0
23.3424 1500.0
23.3859 1685.0
23.4293 1640.0
23.4728 1763.0
23.5163 1705.0
23.5597 1648.0
23.6032 1531.0
23.6467 1322.0
23.6901 1210.0
23.7336 1071.0
23.7771 994.0
23.8205 943.0
23.864 884.0
23.9075 911.0
23.9509 954.0
23.9944 962.0
24.0379 1094.0
24.0813 1303.0
24.1248 1490.0
24.1683 1755.0
24.2117 1938.0
24.2552 2143.0
24.2987 2210.0
24.3421 2101.0
24.3856 1872.0
24.4291 1655.0
24.4725 1312.0
24.516 1225.0
24.5595 1064.0
24.6029 1016.0
24.6464 956.0
24.6898 949.0
24.7333 866.0
24.7768 790.0
24.8202 785.0
24.8637 655.0
24.9072 692.0
24.9506 684.0
24.9941 719.0
25.0376 670.0
25.081 710.0
25.1245 755.0
25.168 869.0
25.2114 850.0
25.2549 870.0
25.2984 869.0
25.3418 880.0
25.3853 939.0
25.4288 940.0
25.4722 895.0
25.5157 1034.0
25.5592 1014.0
25.6026 1074.0
25.6461 1244.0
25.6896 1230.0
25.733 1341.0
25.7765 1346.0
25.82 1487.0
25.8634 1469.0
25.9069 1441.0
25.9504 1443.0
25.9938 1516.0
26.0373 1597.0
26.0808 1622.0
26.1242 1659.0
26.1677 1749.0
26.2111 1832.0
26.2546 1778.0
26.2981 1746.0
26.3415 1563.0
26.385 1482.0
26.4285 1264.0
26.4719 1122.0
26.5154 968.0
26.5589 959.0
26.6023 813.0
26.6458 758.0
26.6893 735.0
26.7327 666.0
26.7762 690.0
26.8197 640.0
26.8631 676.0
26.9066 681.0
26.9501 684.0
26.9935 611.0
27.037 637.0
27.0805 673.0
27.1239 684.0
27.1674 777.0
27.2109 759.0
27.2543 887.0
27.2978 906.0
27.3413 965.0
27.3847 944.0
27.4282 969.0
27.4717 874.0
27.5151 752.0
27.5586 753.0
27.6021 769.0
27.6455 777.0
27.689 814.0
27.7325 831.0
27.7759 943.0
27.8194 926.0
27.8628 1102.0
27.9063 956.0
27.9498 1021.0
27.9932 1020.0
28.0367 970.0
28.0802 932.0
28.1236 987.0
28.1671 985.0
28.2106 1045.0
28.254 998.0
28.2975 1104.0
28.341 1095.0
28.3844 1178.0
28.4279 1175.0
28.4714 1270.0
28.5148 1183.0
28.5583 1089.0
28.6018 1040.0
28.6452 984.0
28.6887 854.0
28.7322 916.0
28.7756 994.0
28.8191 974.0
28.8626 1031.0
28.906 998.0
28.9495 1097.0
28.993 1049.0
29.0364 1048.0
29.0799 1001.0
29.1234 914.0
29.1668 812.0
29.2103 850.0
29.2538 794.0
29.2972 814.0
29.3407 731.0
29.3841 738.0
29.4276 678.0
29.4711 614.0
29.5145 620.0
29.558 658.0
29.6015 627.0
29.6449 686.0
29.6884 696.0
29.7319 666.0
29.7753 747.0
29.8188 723.0
29.8623 732.0
29.9057 725.0
29.9492 746.0
29.9927 706.0
30.0361 733.0
30.0796 743.0
30.1231 789.0
30.1665 814.0
30.21 795.0
30.2535 784.0
30.2969 697.0
30.3404 714.0
30.3839 674.0
30.4273 677.0
30.4708 642.0
30.5143 711.0
30.5577 715.0
30.6012 732.0
30.6447 679.0
30.6881 776.0
30.7316 788.0
30.7751 808.0
30.8185 852.0
30.862 793.0
30.9055 826.0
30.9489 681.0
30.9924 812.0
31.0358 792.0
31.0793 737.0
31.1228 786.0
31.1662 865.0
31.2097 895.0
31.2532 897.0
31.2966 1027.0
31.3401 1007.0
31.3836 1007.0
31.427 938.0
31.4705 876.0
31.514 883.0
31.5574 823.0
31.6009 871.0
31.6444 825.0
31.6878 903.0
31.7313 863.0
31.7748 899.0
31.8182 953.0
31.8617 1018.0
31.9052 984.0
31.9486 1019.0
31.9921 1044.0
32.0356 994.0
32.079 953.0
32.1225 885.0
32.166 784.0
32.2094 716.0
32.2529 650.0
32.2964 644.0
32.3398 644.0
32.3833 608.0
32.4268 583.0
32.4702 580.0
32.5137 556.0
32.5572 561.0
32.6006 560.0
32.6441 583.0
32.6875 554.0
32.731 585.0
32.7745 600.0
32.8179 652.0
32.8614 703.0
32.9049 747.0
32.9483 760.0
32.9918 810.0
33.0353 922.0
33.0787 929.0
33.1222 909.0
33.1657 909.0
33.2091 920.0
33.2526 788.0
33.2961 814.0
33.3395 727.0
33.383 842.0
33.4265 841.0
33.4699 858.0
33.5134 905.0
33.5569 876.0
33.6003 879.0
33.6438 847.0
33.6873 820.0
33.7307 790.0
33.7742 775.0
33.8177 674.0
33.8611 683.0
33.9046 660.0
33.9481 630.0
33.9915 625.0
34.035 582.0
34.0785 580.0
34.1219 565.0
34.1654 633.0
34.2088 587.0
34.2523 610.0
34.2958 631.0
34.3392 560.0
34.3827 652.0
34.4262 592.0
34.4696 634.0
34.5131 571.0
34.5566 528.0
34.6 545.0
34.6435 538.0
34.687 547.0
34.7304 557.0
34.7739 506.0
34.8174 511.0
34.8608 539.0
34.9043 523.0
34.9478 527.0
34.9912 512.0
35.0347 507.0
35.0782 505.0
35.1216 528.0
35.1651 534.0
35.2086 515.0
35.252 566.0
35.2955 573.0
35.339 571.0
35.3824 655.0
35.4259 619.0
35.4694 608.0
35.5128 664.0
35.5563 598.0
35.5998 630.0
35.6432 531.0
35.6867 588.0
35.7302 526.0
35.7736 472.0
35.8171 463.0
35.8605 483.0
35.904 483.0
35.9475 457.0
35.9909 452.0
36.0344 494.0
36.0779 490.0
36.1213 521.0
36.1648 501.0
36.2083 509.0
36.2517 545.0
36.2952 555.0
36.3387 581.0
36.3821 554.0
36.4256 579.0
36.4691 574.0
36.5125 606.0
36.556 636.0
36.5995 661.0
36.6429 670.0
36.6864 705.0
36.7299 634.0
36.7733 641.0
36.8168 639.0
36.8603 627.0
36.9037 631.0
36.9472 560.0
36.9907 639.0
37.0341 711.0
37.0776 635.0
37.1211 654.0
37.1645 633.0
37.208 582.0
37.2515 560.0
37.2949 601.0
37.3384 577.0
37.3818 609.0
37.4253 585.0
37.4688 560.0
37.5122 591.0
37.5557 551.0
37.5992 585.0
37.6426 538.0
37.6861 558.0
37.7296 622.0
37.773 546.0
37.8165 547.0
37.86 594.0
37.9034 609.0
37.9469 621.0
37.9904 639.0
38.0338 700.0
38.0773 622.0
38.1208 667.0
38.1642 686.0
38.2077 676.0
38.2512 727.0
38.2946 657.0
38.3381 673.0
38.3816 608.0
38.425 620.0
38.4685 583.0
38.512 583.0
38.5554 551.0
38.5989 551.0
38.6424 540.0
38.6858 583.0
38.7293 555.0
38.7728 602.0
38.8162 628.0
38.8597 647.0
38.9032 652.0
38.9466 612.0
38.9901 622.0
39.0335 598.0
39.077 577.0
39.1205 583.0
39.1639 592.0
39.2074 550.0
39.2509 540.0
39.2943 548.0
39.3378 555.0
39.3813 495.0
39.4247 527.0
39.4682 564.0
39.5117 519.0
39.5551 556.0
39.5986 602.0
39.6421 574.0
39.6855 492.0
39.729 502.0
39.7725 502.0
39.8159 507.0
39.8594 464.0
39.9029 515.0
39.9463 450.0
39.9898 525.0
40.0333 495.0
40.0767 538.0
40.1202 537.0
40.1637 517.0
40.2071 545.0
40.2506 548.0
40.2941 508.0
40.3375 473.0
40.381 509.0
40.4245 500.0
40.4679 515.0
40.5114 465.0
40.5548 480.0
40.5983 497.0
40.6418 479.0
40.6852 436.0
40.7287 430.0
40.7722 478.0
40.8156 466.0
40.8591 451.0
40.9026 494.0
40.946 437.0
40.9895 420.0
41.033 419.0
41.0764 495.0
41.1199 466.0
41.1634 473.0
41.2068 500.0
41.2503 462.0
41.2938 511.0
41.3372 536.0
41.3807 528.0
41.4242 494.0
41.4676 577.0
41.5111 535.0
41.5546 554.0
41.598 534.0
41.6415 544.0
41.685 535.0
41.7284 533.0
41.7719 515.0
41.8154 548.0
41.8588 490.0
41.9023 497.0
41.9458 496.0
41.9892 459.0
42.0327 494.0
42.0762 491.0
42.1196 492.0
42.1631 466.0
42.2065 484.0
42.25 473.0
42.2935 476.0
42.3369 482.0
42.3804 481.0
42.4239 448.0
42.4673 448.0
42.5108 471.0
42.5543 457.0
42.5977 442.0
42.6412 427.0
42.6847 445.0
42.7281 422.0
42.7716 430.0
42.8151 441.0
42.8585 456.0
42.902 425.0
42.9455 443.0
42.9889 431.0
43.0324 477.0
43.0759 494.0
43.1193 437.0
43.1628 446.0
43.2063 486.0
43.2497 526.0
43.2932 496.0
43.3367 516.0
43.3801 451.0
43.4236 517.0
43.4671 502.0
43.5105 503.0
43.554 510.0
43.5975 479.0
43.6409 526.0
43.6844 500.0
43.7279 533.0
43.7713 441.0
43.8148 457.0
43.8582 483.0
43.9017 455.0
43.9452 447.0
43.9886 473.0
44.0321 517.0
44.0756 479.0
44.119 456.0
44.1625 479.0
44.206 470.0
44.2494 465.0
44.2929 515.0
44.3364 500.0
44.3798 492.0
44.4233 451.0
44.4668 475.0
44.5102 500.0
44.5537 409.0
44.5972 411.0
44.6406 403.0
44.6841 434.0
44.7276 395.0
44.771 421.0
44.8145 407.0
44.858 370.0
44.9014 364.0
44.9449 402.0
44.9884 394.0
45.0318 406.0
45.0753 374.0
45.1188 400.0
45.1622 374.0
45.2057 405.0
45.2492 406.0
45.2926 436.0
45.3361 421.0
45.3795 432.0
45.423 392.0
45.4665 403.0
45.5099 406.0
45.5534 429.0
45.5969 417.0
45.6403 402.0
45.6838 374.0
45.7273 366.0
45.7707 380.0
45.8142 387.0
45.8577 417.0
45.9011 376.0
45.9446 399.0
45.9881 413.0
46.0315 396.0
46.075 394.0
46.1185 367.0
46.1619 389.0
46.2054 421.0
46.2489 434.0
46.2923 434.0
46.3358 402.0
46.3793 412.0
46.4227 432.0
46.4662 445.0
46.5097 388.0
46.5531 391.0
46.5966 412.0
46.6401 401.0
46.6835 401.0
46.727 396.0
46.7705 368.0
46.8139 378.0
46.8574 423.0
46.9009 400.0
46.9443 438.0
46.9878 431.0
47.0312 443.0
47.0747 396.0
47.1182 452.0
47.1616 473.0
47.2051 415.0
47.2486 410.0
47.292 413.0
47.3355 374.0
47.379 406.0
47.4224 419.0
47.4659 374.0
47.5094 425.0
47.5528 380.0
47.5963 410.0
47.6398 353.0
47.6832 371.0
47.7267 374.0
47.7702 394.0
47.8136 368.0
47.8571 374.0
47.9006 374.0
47.944 378.0
47.9875 416.0
48.031 374.0
48.0744 379.0
48.1179 398.0
48.1614 399.0
48.2048 356.0
48.2483 395.0
48.2918 386.0
48.3352 431.0
48.3787 386.0
48.4222 375.0
48.4656 394.0
48.5091 424.0
48.5525 391.0
48.596 411.0
48.6395 403.0
48.6829 399.0
48.7264 389.0
48.7699 395.0
48.8133 428.0
48.8568 391.0
48.9003 389.0
48.9437 397.0
48.9872 403.0
49.0307 416.0
49.0741 365.0
49.1176 360.0
49.1611 412.0
49.2045 356.0
49.248 373.0
49.2915 353.0
49.3349 407.0
49.3784 379.0
49.4219 359.0
49.4653 397.0
49.5088 383.0
49.5523 363.0
49.5957 351.0
49.6392 374.0
49.6827 411.0
49.7261 381.0
49.7696 368.0
49.8131 375.0
49.8565 376.0
49.9 391.0
49.9435 386.0
49.9869 438.0
50.0304 361.0
50.0739 391.0
50.1173 401.0
50.1608 408.0
50.2042 424.0
50.2477 318.0
50.2912 369.0
50.3346 375.0
50.3781 391.0
50.4216 398.0
50.465 371.0
50.5085 331.0
50.552 388.0
50.5954 378.0
50.6389 386.0
50.6824 330.0
50.7258 334.0
50.7693 359.0
50.8128 321.0
50.8562 335.0
50.8997 363.0
50.9432 306.0
50.9866 342.0
51.0301 364.0
51.0736 348.0
51.117 353.0
51.1605 341.0
51.204 386.0
51.2474 348.0
51.2909 348.0
51.3344 341.0
51.3778 335.0
51.4213 339.0
51.4648 340.0
51.5082 317.0
51.5517 339.0
51.5952 359.0
51.6386 312.0
51.6821 360.0
51.7256 325.0
51.769 340.0
51.8125 310.0
51.8559 291.0
51.8994 334.0
51.9429 294.0
51.9863 337.0
52.0298 332.0
52.0733 355.0
52.1167 330.0
52.1602 318.0
52.2037 315.0
52.2471 325.0
52.2906 382.0
52.3341 330.0
52.3775 316.0
52.421 336.0
52.4645 349.0
52.5079 334.0
52.5514 345.0
52.5949 319.0
52.6383 297.0
52.6818 314.0
52.7253 312.0
52.7687 303.0
52.8122 352.0
52.8557 342.0
52.8991 347.0
52.9426 324.0
52.9861 333.0
53.0295 323.0
53.073 336.0
53.1165 351.0
53.1599 248.0
53.2034 319.0
53.2469 328.0
53.2903 326.0
53.3338 325.0
53.3772 352.0
53.4207 339.0
53.4642 350.0
53.5076 345.0
53.5511 318.0
53.5946 336.0
53.638 322.0
53.6815 309.0
53.725 359.0
53.7684 312.0
53.8119 356.0
53.8554 309.0
53.8988 351.0
53.9423 337.0
53.9858 314.0
54.0292 317.0
54.0727 331.0
54.1162 295.0
54.1596 325.0
54.2031 344.0
54.2466 322.0
54.29 315.0
54.3335 289.0
54.377 352.0
54.4204 324.0
54.4639 332.0
54.5074 330.0
54.5508 340.0
54.5943 290.0
54.6378 311.0
54.6812 306.0
54.7247 281.0
54.7682 276.0
54.8116 307.0
54.8551 289.0
54.8986 274.0
54.942 290.0
54.9855 313.0
55.0289 276.0
55.0724 306.0
55.1159 289.0
55.1593 290.0
55.2028 298.0
55.2463 279.0
55.2897 286.0
55.3332 317.0
55.3767 313.0
55.4201 283.0
55.4636 315.0
55.5071 318.0
55.5505 299.0
55.594 328.0
55.6375 338.0
55.6809 324.0
55.7244 302.0
55.7679 305.0
55.8113 342.0
55.8548 337.0
55.8983 364.0
55.9417 332.0
55.9852 304.0
56.0287 293.0
56.0721 347.0
56.1156 366.0
56.1591 299.0
56.2025 308.0
56.246 248.0
56.2895 300.0
56.3329 274.0
56.3764 317.0
56.4199 319.0
56.4633 293.0
56.5068 265.0
56.5502 267.0
56.5937 280.0
56.6372 310.0
56.6806 275.0
56.7241 288.0
56.7676 241.0
56.811 281.0
56.8545 307.0
56.898 303.0
56.9414 280.0
56.9849 262.0
57.0284 273.0
57.0718 296.0
57.1153 260.0
57.1588 256.0
57.2022 250.0
57.2457 282.0
57.2892 246.0
57.3326 276.0
57.3761 273.0
57.4196 236.0
57.463 230.0
57.5065 309.0
57.55 236.0
57.5934 257.0
57.6369 240.0
57.6804 298.0
57.7238 248.0
57.7673 281.0
57.8108 275.0
57.8542 264.0
57.8977 265.0
57.9412 243.0
57.9846 270.0
58.0281 269.0
58.0716 267.0
58.115 264.0
58.1585 249.0
58.2019 268.0
58.2454 284.0
58.2889 283.0
58.3323 240.0
58.3758 232.0
58.4193 280.0
58.4627 270.0
58.5062 245.0
58.5497 263.0
58.5931 231.0
58.6366 247.0
58.6801 229.0
58.7235 269.0
58.767 267.0
58.8105 251.0
58.8539 271.0
58.8974 237.0
58.9409 269.0
58.9843 292.0
59.0278 243.0
59.0713 265.0
59.1147 287.0
59.1582 259.0
59.2017 238.0
59.2451 259.0
59.2886 230.0
59.3321 217.0
59.3755 249.0
59.419 228.0
59.4625 233.0
59.5059 226.0
59.5494 219.0
59.5929 229.0
59.6363 250.0
59.6798 230.0
59.7233 263.0
59.7667 257.0
59.8102 234.0
59.8536 250.0
59.8971 231.0
59.9406 205.0
59.984 219.0
59.9949 262.0