File: XRD/2025_06_03_Ag_Behenate_3_60_8min.xy
3.00043 44111.0
3.0439 42637.0
3.08736 40569.0
3.13083 38323.0
3.1743 36158.0
3.21776 33812.0
3.26123 32059.0
3.30469 29839.0
3.34816 28337.0
3.39163 26697.0
3.43509 25355.0
3.47856 23222.0
3.52202 22316.0
3.56549 20818.0
3.60895 19780.0
3.65242 18700.0
3.69589 17074.0
3.73935 16082.0
3.78282 15024.0
3.82628 14047.0
3.86975 13286.0
3.91321 12383.0
3.95668 11627.0
4.00015 10952.0
4.04361 10220.0
4.08708 9687.0
4.13054 9061.0
4.17401 8758.0
4.21747 8287.0
4.26094 7887.0
4.30441 7789.0
4.34787 7659.0
4.39134 8184.0
4.4348 9516.0
4.47827 11138.0
4.52173 11550.0
4.5652 8312.0
4.60867 5605.0
4.65213 4441.0
4.6956 3642.0
4.73906 3316.0
4.78253 2906.0
4.826 2619.0
4.86946 2533.0
4.91293 2399.0
4.95639 2378.0
4.99986 2215.0
5.04332 2230.0
5.08679 2227.0
5.13026 2295.0
5.17372 2158.0
5.21719 2224.0
5.26065 2141.0
5.30412 2255.0
5.34758 2198.0
5.39105 2215.0
5.43452 2121.0
5.47798 2036.0
5.52145 1989.0
5.56491 1909.0
5.60838 1964.0
5.65184 1971.0
5.69531 2006.0
5.73878 2249.0
5.78224 2441.0
5.82571 2841.0
5.86917 3440.0
5.91264 4591.0
5.9561 6356.0
5.99957 8321.0
6.04304 8455.0
6.0865 5211.0
6.12997 2907.0
6.17343 2080.0
6.2169 1584.0
6.26037 1342.0
6.30383 1224.0
6.3473 1133.0
6.39076 1063.0
6.43423 1023.0
6.47769 986.0
6.52116 945.0
6.56463 926.0
6.60809 918.0
6.65156 893.0
6.69502 876.0
6.73849 823.0
6.78195 859.0
6.82542 843.0
6.86889 884.0
6.91235 856.0
6.95582 920.0
6.99928 890.0
7.04275 1072.0
7.08621 1064.0
7.12968 1226.0
7.17315 1295.0
7.21661 1520.0
7.26008 1811.0
7.30354 2146.0
7.34701 2620.0
7.39047 3452.0
7.43394 5069.0
7.47741 6899.0
7.52087 9097.0
7.56434 8569.0
7.6078 5041.0
7.65127 2754.0
7.69474 1633.0
7.7382 1176.0
7.78167 840.0
7.82513 834.0
7.8686 734.0
7.91206 662.0
7.95553 656.0
7.999 640.0
8.04246 615.0
8.08593 597.0
8.12939 607.0
8.17286 637.0
8.21632 562.0
8.25979 587.0
8.30326 557.0
8.34672 576.0
8.39019 565.0
8.43365 598.0
8.47712 573.0
8.52058 558.0
8.56405 673.0
8.60752 697.0
8.65098 688.0
8.69445 817.0
8.73791 894.0
8.78138 1017.0
8.82485 1211.0
8.86831 1484.0
8.91178 1907.0
8.95524 2539.0
8.99871 3410.0
9.04217 4509.0
9.08564 4147.0
9.12911 2492.0
9.17257 1518.0
9.21604 936.0
9.2595 766.0
9.30297 691.0
9.34643 639.0
9.3899 583.0
9.43337 624.0
9.47683 521.0
9.5203 513.0
9.56376 531.0
9.60723 502.0
9.65069 499.0
9.69416 491.0
9.73763 478.0
9.78109 543.0
9.82456 497.0
9.86802 499.0
9.91149 515.0
9.95495 519.0
9.99842 554.0
10.0419 573.0
10.0854 592.0
10.1288 699.0
10.1723 702.0
10.2157 758.0
10.2592 855.0
10.3027 998.0
10.3461 1153.0
10.3896 1550.0
10.4331 1996.0
10.4765 2698.0
10.52 3610.0
10.5635 4697.0
10.6069 3821.0
10.6504 2332.0
10.6939 1347.0
10.7373 888.0
10.7808 666.0
10.8243 557.0
10.8677 549.0
10.9112 524.0
10.9547 548.0
10.9981 520.0
11.0416 471.0
11.0851 488.0
11.1285 446.0
11.172 469.0
11.2155 438.0
11.2589 417.0
11.3024 454.0
11.3459 449.0
11.3893 449.0
11.4328 425.0
11.4763 456.0
11.5197 483.0
11.5632 499.0
11.6067 489.0
11.6501 563.0
11.6936 519.0
11.7371 528.0
11.7805 583.0
11.824 630.0
11.8674 735.0
11.9109 825.0
11.9544 1038.0
11.9978 1307.0
12.0413 1717.0
12.0848 1887.0
12.1282 1691.0
12.1717 1093.0
12.2152 747.0
12.2586 549.0
12.3021 513.0
12.3456 506.0
12.389 478.0
12.4325 486.0
12.476 412.0
12.5194 456.0
12.5629 429.0
12.6064 405.0
12.6498 459.0
12.6933 426.0
12.7368 409.0
12.7802 439.0
12.8237 402.0
12.8672 405.0
12.9106 432.0
12.9541 433.0
12.9976 466.0
13.041 463.0
13.0845 485.0
13.128 495.0
13.1714 488.0
13.2149 446.0
13.2584 510.0
13.3018 572.0
13.3453 582.0
13.3887 666.0
13.4322 824.0
13.4757 1014.0
13.5191 1373.0
13.5626 1700.0
13.6061 1955.0
13.6495 1704.0
13.693 1130.0
13.7365 751.0
13.7799 602.0
13.8234 481.0
13.8669 469.0
13.9103 417.0
13.9538 432.0
13.9973 402.0
14.0407 414.0
14.0842 396.0
14.1277 421.0
14.1711 389.0
14.2146 380.0
14.2581 417.0
14.3015 373.0
14.345 377.0
14.3885 387.0
14.4319 383.0
14.4754 409.0
14.5189 374.0
14.5623 361.0
14.6058 390.0
14.6493 402.0
14.6927 395.0
14.7362 409.0
14.7797 448.0
14.8231 432.0
14.8666 431.0
14.9101 478.0
14.9535 589.0
14.997 580.0
15.0404 669.0
15.0839 710.0
15.1274 837.0
15.1708 780.0
15.2143 622.0
15.2578 489.0
15.3012 437.0
15.3447 417.0
15.3882 376.0
15.4316 373.0
15.4751 396.0
15.5186 428.0
15.562 379.0
15.6055 383.0
15.649 370.0
15.6924 392.0
15.7359 344.0
15.7794 366.0
15.8228 376.0
15.8663 401.0
15.9098 365.0
15.9532 400.0
15.9967 359.0
16.0402 374.0
16.0836 384.0
16.1271 388.0
16.1706 408.0
16.214 339.0
16.2575 404.0
16.301 402.0
16.3444 394.0
16.3879 397.0
16.4314 482.0
16.4748 483.0
16.5183 563.0
16.5618 691.0
16.6052 769.0
16.6487 905.0
16.6921 816.0
16.7356 671.0
16.7791 487.0
16.8225 420.0
16.866 395.0
16.9095 414.0
16.9529 397.0
16.9964 340.0
17.0399 367.0
17.0833 382.0
17.1268 339.0
17.1703 367.0
17.2137 379.0
17.2572 366.0
17.3007 345.0
17.3441 393.0
17.3876 383.0
17.4311 383.0
17.4745 341.0
17.518 329.0
17.5615 360.0
17.6049 318.0
17.6484 381.0
17.6919 347.0
17.7353 385.0
17.7788 380.0
17.8223 351.0
17.8657 370.0
17.9092 400.0
17.9527 335.0
17.9961 407.0
18.0396 386.0
18.0831 435.0
18.1265 439.0
18.17 418.0
18.2134 453.0
18.2569 480.0
18.3004 404.0
18.3438 403.0
18.3873 360.0
18.4308 330.0
18.4742 371.0
18.5177 403.0
18.5612 388.0
18.6046 392.0
18.6481 342.0
18.6916 414.0
18.735 425.0
18.7785 409.0
18.822 428.0
18.8654 492.0
18.9089 506.0
18.9524 581.0
18.9958 670.0
19.0393 805.0
19.0828 998.0
19.1262 1286.0
19.1697 1730.0
19.2132 1855.0
19.2566 2121.0
19.3001 2009.0
19.3436 1835.0
19.387 1721.0
19.4305 1764.0
19.474 1836.0
19.5174 1706.0
19.5609 1400.0
19.6044 1155.0
19.6478 916.0
19.6913 799.0
19.7348 755.0
19.7782 680.0
19.8217 518.0
19.8651 484.0
19.9086 444.0
19.9521 458.0
19.9955 466.0
20.039 487.0
20.0825 459.0
20.1259 493.0
20.1694 519.0
20.2129 504.0
20.2563 494.0
20.2998 487.0
20.3433 490.0
20.3867 455.0
20.4302 442.0
20.4737 428.0
20.5171 460.0
20.5606 465.0
20.6041 541.0
20.6475 543.0
20.691 530.0
20.7345 517.0
20.7779 466.0
20.8214 450.0
20.8649 373.0
20.9083 410.0
20.9518 416.0
20.9953 436.0
21.0387 425.0
21.0822 429.0
21.1257 439.0
21.1691 489.0
21.2126 469.0
21.2561 485.0
21.2995 422.0
21.343 451.0
21.3864 484.0
21.4299 439.0
21.4734 403.0
21.5168 441.0
21.5603 448.0
21.6038 453.0
21.6472 470.0
21.6907 504.0
21.7342 493.0
21.7776 525.0
21.8211 535.0
21.8646 565.0
21.908 626.0
21.9515 602.0
21.995 615.0
22.0384 633.0
22.0819 673.0
22.1254 580.0
22.1688 640.0
22.2123 633.0
22.2558 653.0
22.2992 695.0
22.3427 618.0
22.3862 556.0
22.4296 562.0
22.4731 663.0
22.5166 680.0
22.56 829.0
22.6035 883.0
22.647 942.0
22.6904 1071.0
22.7339 1130.0
22.7774 1082.0
22.8208 1148.0
22.8643 1227.0
22.9078 1460.0
22.9512 1710.0
22.9947 1866.0
23.0381 2026.0
23.0816 1980.0
23.1251 1515.0
23.1685 1201.0
23.212 893.0
23.2555 742.0
23.2989 653.0
23.3424 612.0
23.3859 669.0
23.4293 673.0
23.4728 737.0
23.5163 839.0
23.5597 970.0
23.6032 939.0
23.6467 969.0
23.6901 933.0
23.7336 910.0
23.7771 839.0
23.8205 695.0
23.864 646.0
23.9075 572.0
23.9509 542.0
23.9944 483.0
24.0379 516.0
24.0813 480.0
24.1248 461.0
24.1683 487.0
24.2117 513.0
24.2552 502.0
24.2987 529.0
24.3421 519.0
24.3856 577.0
24.4291 545.0
24.4725 602.0
24.516 604.0
24.5595 633.0
24.6029 594.0
24.6464 570.0
24.6898 534.0
24.7333 469.0
24.7768 530.0
24.8202 549.0
24.8637 569.0
24.9072 597.0
24.9506 641.0
24.9941 612.0
25.0376 665.0
25.081 675.0
25.1245 658.0
25.168 753.0
25.2114 747.0
25.2549 847.0
25.2984 856.0
25.3418 1008.0
25.3853 1054.0
25.4288 1226.0
25.4722 1405.0
25.5157 1476.0
25.5592 1594.0
25.6026 1579.0
25.6461 1515.0
25.6896 1418.0
25.733 1258.0
25.7765 1154.0
25.82 1088.0
25.8634 930.0
25.9069 843.0
25.9504 793.0
25.9938 776.0
26.0373 724.0
26.0808 711.0
26.1242 744.0
26.1677 737.0
26.2111 761.0
26.2546 737.0
26.2981 777.0
26.3415 757.0
26.385 745.0
26.4285 803.0
26.4719 857.0
26.5154 902.0
26.5589 871.0
26.6023 1003.0
26.6458 956.0
26.6893 980.0
26.7327 967.0
26.7762 936.0
26.8197 929.0
26.8631 915.0
26.9066 890.0
26.9501 941.0
26.9935 900.0
27.037 919.0
27.0805 1031.0
27.1239 1016.0
27.1674 1088.0
27.2109 1091.0
27.2543 1212.0
27.2978 1065.0
27.3413 1180.0
27.3847 1085.0
27.4282 1096.0
27.4717 1113.0
27.5151 1156.0
27.5586 1198.0
27.6021 1190.0
27.6455 1167.0
27.689 1196.0
27.7325 1159.0
27.7759 1060.0
27.8194 1050.0
27.8628 927.0
27.9063 921.0
27.9498 872.0
27.9932 858.0
28.0367 796.0
28.0802 770.0
28.1236 743.0
28.1671 705.0
28.2106 709.0
28.254 715.0
28.2975 741.0
28.341 715.0
28.3844 716.0
28.4279 721.0
28.4714 735.0
28.5148 770.0
28.5583 846.0
28.6018 796.0
28.6452 788.0
28.6887 801.0
28.7322 796.0
28.7756 809.0
28.8191 789.0
28.8626 777.0
28.906 750.0
28.9495 709.0
28.993 689.0
29.0364 690.0
29.0799 601.0
29.1234 678.0
29.1668 607.0
29.2103 644.0
29.2538 638.0
29.2972 632.0
29.3407 618.0
29.3841 653.0
29.4276 641.0
29.4711 652.0
29.5145 725.0
29.558 715.0
29.6015 716.0
29.6449 620.0
29.6884 656.0
29.7319 608.0
29.7753 672.0
29.8188 652.0
29.8623 690.0
29.9057 710.0
29.9492 733.0
29.9927 727.0
30.0361 761.0
30.0796 737.0
30.1231 657.0
30.1665 707.0
30.21 620.0
30.2535 623.0
30.2969 619.0
30.3404 621.0
30.3839 552.0
30.4273 591.0
30.4708 537.0
30.5143 589.0
30.5577 669.0
30.6012 656.0
30.6447 685.0
30.6881 665.0
30.7316 584.0
30.7751 570.0
30.8185 593.0
30.862 596.0
30.9055 526.0
30.9489 551.0
30.9924 603.0
31.0358 603.0
31.0793 658.0
31.1228 607.0
31.1662 676.0
31.2097 660.0
31.2532 642.0
31.2966 657.0
31.3401 608.0
31.3836 582.0
31.427 597.0
31.4705 549.0
31.514 547.0
31.5574 495.0
31.6009 529.0
31.6444 561.0
31.6878 619.0
31.7313 568.0
31.7748 614.0
31.8182 608.0
31.8617 568.0
31.9052 578.0
31.9486 516.0
31.9921 589.0
32.0356 545.0
32.079 525.0
32.1225 532.0
32.166 592.0
32.2094 592.0
32.2529 617.0
32.2964 584.0
32.3398 639.0
32.3833 686.0
32.4268 665.0
32.4702 723.0
32.5137 744.0
32.5572 736.0
32.6006 724.0
32.6441 795.0
32.6875 803.0
32.731 844.0
32.7745 910.0
32.8179 960.0
32.8614 912.0
32.9049 963.0
32.9483 894.0
32.9918 930.0
33.0353 906.0
33.0787 872.0
33.1222 838.0
33.1657 858.0
33.2091 813.0
33.2526 801.0
33.2961 802.0
33.3395 823.0
33.383 860.0
33.4265 923.0
33.4699 926.0
33.5134 947.0
33.5569 1028.0
33.6003 1108.0
33.6438 1210.0
33.6873 1331.0
33.7307 1261.0
33.7742 1180.0
33.8177 1052.0
33.8611 946.0
33.9046 843.0
33.9481 760.0
33.9915 725.0
34.035 737.0
34.0785 725.0
34.1219 670.0
34.1654 645.0
34.2088 665.0
34.2523 596.0
34.2958 636.0
34.3392 564.0
34.3827 595.0
34.4262 551.0
34.4696 540.0
34.5131 651.0
34.5566 629.0
34.6 620.0
34.6435 609.0
34.687 570.0
34.7304 607.0
34.7739 606.0
34.8174 631.0
34.8608 629.0
34.9043 644.0
34.9478 700.0
34.9912 766.0
35.0347 744.0
35.0782 830.0
35.1216 830.0
35.1651 737.0
35.2086 759.0
35.252 784.0
35.2955 710.0
35.339 700.0
35.3824 635.0
35.4259 616.0
35.4694 589.0
35.5128 599.0
35.5563 610.0
35.5998 635.0
35.6432 623.0
35.6867 609.0
35.7302 592.0
35.7736 552.0
35.8171 525.0
35.8605 526.0
35.904 485.0
35.9475 535.0
35.9909 584.0
36.0344 504.0
36.0779 536.0
36.1213 554.0
36.1648 590.0
36.2083 617.0
36.2517 631.0
36.2952 737.0
36.3387 746.0
36.3821 730.0
36.4256 742.0
36.4691 729.0
36.5125 718.0
36.556 674.0
36.5995 680.0
36.6429 638.0
36.6864 664.0
36.7299 605.0
36.7733 583.0
36.8168 558.0
36.8603 563.0
36.9037 598.0
36.9472 552.0
36.9907 526.0
37.0341 574.0
37.0776 531.0
37.1211 515.0
37.1645 529.0
37.208 530.0
37.2515 527.0
37.2949 522.0
37.3384 485.0
37.3818 479.0
37.4253 498.0
37.4688 533.0
37.5122 590.0
37.5557 611.0
37.5992 621.0
37.6426 650.0
37.6861 680.0
37.7296 755.0
37.773 750.0
37.8165 745.0
37.86 799.0
37.9034 768.0
37.9469 710.0
37.9904 728.0
38.0338 643.0
38.0773 559.0
38.1208 516.0
38.1642 534.0
38.2077 524.0
38.2512 490.0
38.2946 503.0
38.3381 511.0
38.3816 614.0
38.425 578.0
38.4685 522.0
38.512 575.0
38.5554 541.0
38.5989 560.0
38.6424 550.0
38.6858 546.0
38.7293 511.0
38.7728 484.0
38.8162 521.0
38.8597 558.0
38.9032 544.0
38.9466 489.0
38.9901 589.0
39.0335 645.0
39.077 661.0
39.1205 718.0
39.1639 750.0
39.2074 780.0
39.2509 732.0
39.2943 745.0
39.3378 773.0
39.3813 659.0
39.4247 628.0
39.4682 627.0
39.5117 633.0
39.5551 588.0
39.5986 590.0
39.6421 573.0
39.6855 535.0
39.729 568.0
39.7725 573.0
39.8159 581.0
39.8594 524.0
39.9029 543.0
39.9463 578.0
39.9898 625.0
40.0333 621.0
40.0767 694.0
40.1202 725.0
40.1637 813.0
40.2071 820.0
40.2506 919.0
40.2941 972.0
40.3375 1044.0
40.381 1115.0
40.4245 1159.0
40.4679 1142.0
40.5114 1010.0
40.5548 1006.0
40.5983 936.0
40.6418 861.0
40.6852 822.0
40.7287 742.0
40.7722 715.0
40.8156 605.0
40.8591 614.0
40.9026 600.0
40.946 616.0
40.9895 564.0
41.033 500.0
41.0764 592.0
41.1199 593.0
41.1634 603.0
41.2068 570.0
41.2503 589.0
41.2938 585.0
41.3372 548.0
41.3807 564.0
41.4242 581.0
41.4676 558.0
41.5111 564.0
41.5546 612.0
41.598 629.0
41.6415 619.0
41.685 647.0
41.7284 676.0
41.7719 689.0
41.8154 686.0
41.8588 667.0
41.9023 683.0
41.9458 668.0
41.9892 634.0
42.0327 592.0
42.0762 604.0
42.1196 627.0
42.1631 588.0
42.2065 537.0
42.25 531.0
42.2935 483.0
42.3369 440.0
42.3804 497.0
42.4239 488.0
42.4673 479.0
42.5108 431.0
42.5543 455.0
42.5977 458.0
42.6412 487.0
42.6847 462.0
42.7281 503.0
42.7716 483.0
42.8151 491.0
42.8585 487.0
42.902 466.0
42.9455 491.0
42.9889 508.0
43.0324 556.0
43.0759 573.0
43.1193 548.0
43.1628 598.0
43.2063 639.0
43.2497 642.0
43.2932 697.0
43.3367 704.0
43.3801 670.0
43.4236 592.0
43.4671 597.0
43.5105 572.0
43.554 562.0
43.5975 506.0
43.6409 557.0
43.6844 545.0
43.7279 491.0
43.7713 507.0
43.8148 477.0
43.8582 481.0
43.9017 487.0
43.9452 459.0
43.9886 511.0
44.0321 527.0
44.0756 496.0
44.119 528.0
44.1625 522.0
44.206 544.0
44.2494 538.0
44.2929 539.0
44.3364 596.0
44.3798 544.0
44.4233 556.0
44.4668 532.0
44.5102 536.0
44.5537 518.0
44.5972 523.0
44.6406 512.0
44.6841 526.0
44.7276 520.0
44.771 501.0
44.8145 491.0
44.858 523.0
44.9014 536.0
44.9449 553.0
44.9884 559.0
45.0318 543.0
45.0753 512.0
45.1188 482.0
45.1622 443.0
45.2057 430.0
45.2492 460.0
45.2926 462.0
45.3361 475.0
45.3795 478.0
45.423 444.0
45.4665 469.0
45.5099 444.0
45.5534 452.0
45.5969 446.0
45.6403 449.0
45.6838 451.0
45.7273 477.0
45.7707 426.0
45.8142 481.0
45.8577 476.0
45.9011 460.0
45.9446 468.0
45.9881 511.0
46.0315 491.0
46.075 477.0
46.1185 550.0
46.1619 469.0
46.2054 550.0
46.2489 482.0
46.2923 503.0
46.3358 500.0
46.3793 472.0
46.4227 516.0
46.4662 550.0
46.5097 511.0
46.5531 550.0
46.5966 538.0
46.6401 520.0
46.6835 504.0
46.727 466.0
46.7705 457.0
46.8139 428.0
46.8574 437.0
46.9009 411.0
46.9443 423.0
46.9878 419.0
47.0312 401.0
47.0747 390.0
47.1182 390.0
47.1616 398.0
47.2051 406.0
47.2486 370.0
47.292 425.0
47.3355 415.0
47.379 449.0
47.4224 424.0
47.4659 424.0
47.5094 456.0
47.5528 451.0
47.5963 411.0
47.6398 438.0
47.6832 455.0
47.7267 438.0
47.7702 481.0
47.8136 435.0
47.8571 433.0
47.9006 450.0
47.944 432.0
47.9875 440.0
48.031 437.0
48.0744 454.0
48.1179 418.0
48.1614 440.0
48.2048 455.0
48.2483 439.0
48.2918 455.0
48.3352 430.0
48.3787 413.0
48.4222 414.0
48.4656 410.0
48.5091 372.0
48.5525 389.0
48.596 381.0
48.6395 410.0
48.6829 403.0
48.7264 413.0
48.7699 391.0
48.8133 394.0
48.8568 429.0
48.9003 424.0
48.9437 453.0
48.9872 428.0
49.0307 392.0
49.0741 392.0
49.1176 419.0
49.1611 410.0
49.2045 431.0
49.248 451.0
49.2915 448.0
49.3349 432.0
49.3784 417.0
49.4219 415.0
49.4653 387.0
49.5088 408.0
49.5523 401.0
49.5957 395.0
49.6392 425.0
49.6827 417.0
49.7261 440.0
49.7696 406.0
49.8131 468.0
49.8565 428.0
49.9 497.0
49.9435 476.0
49.9869 445.0
50.0304 442.0
50.0739 435.0
50.1173 464.0
50.1608 440.0
50.2042 447.0
50.2477 431.0
50.2912 420.0
50.3346 434.0
50.3781 466.0
50.4216 449.0
50.465 459.0
50.5085 439.0
50.552 444.0
50.5954 488.0
50.6389 455.0
50.6824 445.0
50.7258 438.0
50.7693 473.0
50.8128 485.0
50.8562 421.0
50.8997 439.0
50.9432 458.0
50.9866 462.0
51.0301 445.0
51.0736 444.0
51.117 458.0
51.1605 501.0
51.204 472.0
51.2474 504.0
51.2909 494.0
51.3344 521.0
51.3778 500.0
51.4213 492.0
51.4648 534.0
51.5082 503.0
51.5517 554.0
51.5952 523.0
51.6386 477.0
51.6821 499.0
51.7256 493.0
51.769 469.0
51.8125 486.0
51.8559 491.0
51.8994 461.0
51.9429 455.0
51.9863 451.0
52.0298 466.0
52.0733 465.0
52.1167 497.0
52.1602 471.0
52.2037 452.0
52.2471 500.0
52.2906 462.0
52.3341 479.0
52.3775 444.0
52.421 441.0
52.4645 490.0
52.5079 443.0
52.5514 459.0
52.5949 476.0
52.6383 475.0
52.6818 454.0
52.7253 421.0
52.7687 460.0
52.8122 436.0
52.8557 421.0
52.8991 402.0
52.9426 411.0
52.9861 438.0
53.0295 412.0
53.073 477.0
53.1165 441.0
53.1599 429.0
53.2034 451.0
53.2469 450.0
53.2903 454.0
53.3338 482.0
53.3772 478.0
53.4207 451.0
53.4642 429.0
53.5076 401.0
53.5511 460.0
53.5946 424.0
53.638 472.0
53.6815 446.0
53.725 456.0
53.7684 399.0
53.8119 492.0
53.8554 431.0
53.8988 398.0
53.9423 421.0
53.9858 422.0
54.0292 417.0
54.0727 434.0
54.1162 439.0
54.1596 396.0
54.2031 430.0
54.2466 416.0
54.29 401.0
54.3335 398.0
54.377 385.0
54.4204 418.0
54.4639 385.0
54.5074 456.0
54.5508 407.0
54.5943 393.0
54.6378 406.0
54.6812 392.0
54.7247 365.0
54.7682 428.0
54.8116 434.0
54.8551 406.0
54.8986 437.0
54.942 390.0
54.9855 417.0
55.0289 439.0
55.0724 409.0
55.1159 403.0
55.1593 406.0
55.2028 389.0
55.2463 390.0
55.2897 391.0
55.3332 380.0
55.3767 370.0
55.4201 397.0
55.4636 426.0
55.5071 391.0
55.5505 412.0
55.594 388.0
55.6375 358.0
55.6809 406.0
55.7244 380.0
55.7679 462.0
55.8113 404.0
55.8548 391.0
55.8983 363.0
55.9417 379.0
55.9852 391.0
56.0287 396.0
56.0721 397.0
56.1156 404.0
56.1591 378.0
56.2025 331.0
56.246 365.0
56.2895 417.0
56.3329 376.0
56.3764 412.0
56.4199 386.0
56.4633 401.0
56.5068 400.0
56.5502 436.0
56.5937 409.0
56.6372 426.0
56.6806 449.0
56.7241 441.0
56.7676 431.0
56.811 423.0
56.8545 443.0
56.898 381.0
56.9414 374.0
56.9849 440.0
57.0284 345.0
57.0718 399.0
57.1153 420.0
57.1588 390.0
57.2022 315.0
57.2457 336.0
57.2892 371.0
57.3326 380.0
57.3761 343.0
57.4196 376.0
57.463 354.0
57.5065 369.0
57.55 392.0
57.5934 397.0
57.6369 393.0
57.6804 378.0
57.7238 345.0
57.7673 371.0
57.8108 350.0
57.8542 367.0
57.8977 367.0
57.9412 398.0
57.9846 410.0
58.0281 378.0
58.0716 427.0
58.115 402.0
58.1585 431.0
58.2019 432.0
58.2454 396.0
58.2889 467.0
58.3323 424.0
58.3758 420.0
58.4193 390.0
58.4627 394.0
58.5062 367.0
58.5497 365.0
58.5931 367.0
58.6366 343.0
58.6801 368.0
58.7235 368.0
58.767 360.0
58.8105 382.0
58.8539 361.0
58.8974 389.0
58.9409 408.0
58.9843 394.0
59.0278 363.0
59.0713 373.0
59.1147 369.0
59.1582 382.0
59.2017 362.0
59.2451 359.0
59.2886 339.0
59.3321 311.0
59.3755 328.0
59.419 342.0
59.4625 345.0
59.5059 320.0
59.5494 368.0
59.5929 311.0
59.6363 371.0
59.6798 355.0
59.7233 312.0
59.7667 338.0
59.8102 350.0
59.8536 400.0
59.8971 357.0
59.9406 360.0
59.984 357.0
59.9949 351.0