File: XRD/2025_06_12_aFEL_DSC_3_60_22m_pXRD.xy
3.00043 134532.0
3.0439 127862.0
3.08736 122442.0
3.13083 116681.0
3.1743 110029.0
3.21776 103942.0
3.26123 97460.0
3.30469 92012.0
3.34816 86903.0
3.39163 82455.0
3.43509 77504.0
3.47856 73213.0
3.52202 68434.0
3.56549 64222.0
3.60895 60668.0
3.65242 56831.0
3.69589 53264.0
3.73935 49919.0
3.78282 46563.0
3.82628 43550.0
3.86975 40545.0
3.91321 37786.0
3.95668 35065.0
4.00015 32547.0
4.04361 30130.0
4.08708 27998.0
4.13054 25629.0
4.17401 24293.0
4.21747 22173.0
4.26094 20334.0
4.30441 18839.0
4.34787 17134.0
4.39134 15798.0
4.4348 14496.0
4.47827 13420.0
4.52173 12528.0
4.5652 11598.0
4.60867 10636.0
4.65213 10077.0
4.6956 9197.0
4.73906 8725.0
4.78253 8111.0
4.826 7549.0
4.86946 7269.0
4.91293 7052.0
4.95639 6791.0
4.99986 6685.0
5.04332 6545.0
5.08679 6585.0
5.13026 6436.0
5.17372 6428.0
5.21719 6465.0
5.26065 6551.0
5.30412 6429.0
5.34758 6279.0
5.39105 6161.0
5.43452 5772.0
5.47798 5396.0
5.52145 5242.0
5.56491 4800.0
5.60838 4497.0
5.65184 4257.0
5.69531 3984.0
5.73878 3870.0
5.78224 3660.0
5.82571 3568.0
5.86917 3555.0
5.91264 3377.0
5.9561 3372.0
5.99957 3405.0
6.04304 3216.0
6.0865 3221.0
6.12997 3104.0
6.17343 3047.0
6.2169 2898.0
6.26037 2951.0
6.30383 2704.0
6.3473 2791.0
6.39076 2655.0
6.43423 2638.0
6.47769 2596.0
6.52116 2514.0
6.56463 2549.0
6.60809 2350.0
6.65156 2362.0
6.69502 2248.0
6.73849 2254.0
6.78195 2346.0
6.82542 2160.0
6.86889 2113.0
6.91235 2023.0
6.95582 1988.0
6.99928 1940.0
7.04275 1948.0
7.08621 1973.0
7.12968 1896.0
7.17315 1862.0
7.21661 1780.0
7.26008 1812.0
7.30354 1807.0
7.34701 1842.0
7.39047 1665.0
7.43394 1709.0
7.47741 1673.0
7.52087 1771.0
7.56434 1709.0
7.6078 1701.0
7.65127 1591.0
7.69474 1714.0
7.7382 1717.0
7.78167 1644.0
7.82513 1669.0
7.8686 1579.0
7.91206 1616.0
7.95553 1640.0
7.999 1614.0
8.04246 1667.0
8.08593 1695.0
8.12939 1628.0
8.17286 1592.0
8.21632 1579.0
8.25979 1651.0
8.30326 1660.0
8.34672 1583.0
8.39019 1653.0
8.43365 1688.0
8.47712 1686.0
8.52058 1717.0
8.56405 1634.0
8.60752 1626.0
8.65098 1700.0
8.69445 1720.0
8.73791 1629.0
8.78138 1756.0
8.82485 1703.0
8.86831 1761.0
8.91178 1733.0
8.95524 1735.0
8.99871 1830.0
9.04217 1803.0
9.08564 1848.0
9.12911 1719.0
9.17257 1833.0
9.21604 1784.0
9.2595 1885.0
9.30297 1856.0
9.34643 1953.0
9.3899 1840.0
9.43337 1825.0
9.47683 2016.0
9.5203 1984.0
9.56376 1926.0
9.60723 1931.0
9.65069 2042.0
9.69416 2005.0
9.73763 2074.0
9.78109 2106.0
9.82456 2180.0
9.86802 2161.0
9.91149 2150.0
9.95495 2165.0
9.99842 2178.0
10.0419 2213.0
10.0854 2194.0
10.1288 2150.0
10.1723 2249.0
10.2157 2243.0
10.2592 2330.0
10.3027 2321.0
10.3461 2343.0
10.3896 2341.0
10.4331 2353.0
10.4765 2425.0
10.52 2465.0
10.5635 2473.0
10.6069 2485.0
10.6504 2485.0
10.6939 2508.0
10.7373 2548.0
10.7808 2568.0
10.8243 2519.0
10.8677 2578.0
10.9112 2537.0
10.9547 2640.0
10.9981 2534.0
11.0416 2614.0
11.0851 2535.0
11.1285 2748.0
11.172 2644.0
11.2155 2698.0
11.2589 2742.0
11.3024 2683.0
11.3459 2579.0
11.3893 2602.0
11.4328 2719.0
11.4763 2695.0
11.5197 2659.0
11.5632 2674.0
11.6067 2652.0
11.6501 2707.0
11.6936 2821.0
11.7371 2746.0
11.7805 2752.0
11.824 2674.0
11.8674 2741.0
11.9109 2740.0
11.9544 2679.0
11.9978 2814.0
12.0413 2741.0
12.0848 2600.0
12.1282 2759.0
12.1717 2571.0
12.2152 2633.0
12.2586 2734.0
12.3021 2619.0
12.3456 2541.0
12.389 2647.0
12.4325 2652.0
12.476 2500.0
12.5194 2688.0
12.5629 2602.0
12.6064 2587.0
12.6498 2550.0
12.6933 2570.0
12.7368 2458.0
12.7802 2476.0
12.8237 2485.0
12.8672 2498.0
12.9106 2484.0
12.9541 2540.0
12.9976 2468.0
13.041 2459.0
13.0845 2409.0
13.128 2484.0
13.1714 2358.0
13.2149 2441.0
13.2584 2309.0
13.3018 2295.0
13.3453 2289.0
13.3887 2351.0
13.4322 2399.0
13.4757 2224.0
13.5191 2312.0
13.5626 2254.0
13.6061 2287.0
13.6495 2304.0
13.693 2302.0
13.7365 2161.0
13.7799 2169.0
13.8234 2129.0
13.8669 2172.0
13.9103 2076.0
13.9538 2131.0
13.9973 2142.0
14.0407 2137.0
14.0842 2242.0
14.1277 2165.0
14.1711 2132.0
14.2146 2083.0
14.2581 2100.0
14.3015 2098.0
14.345 2100.0
14.3885 2094.0
14.4319 2105.0
14.4754 2060.0
14.5189 2021.0
14.5623 1967.0
14.6058 1982.0
14.6493 1988.0
14.6927 2070.0
14.7362 2087.0
14.7797 2047.0
14.8231 2056.0
14.8666 2038.0
14.9101 2047.0
14.9535 1984.0
14.997 2026.0
15.0404 1966.0
15.0839 1985.0
15.1274 2004.0
15.1708 1963.0
15.2143 1969.0
15.2578 1978.0
15.3012 1887.0
15.3447 1936.0
15.3882 1970.0
15.4316 2037.0
15.4751 1934.0
15.5186 1992.0
15.562 1908.0
15.6055 1926.0
15.649 1941.0
15.6924 1877.0
15.7359 2000.0
15.7794 1944.0
15.8228 1948.0
15.8663 1952.0
15.9098 1997.0
15.9532 1891.0
15.9967 1956.0
16.0402 1854.0
16.0836 1812.0
16.1271 2015.0
16.1706 1867.0
16.214 1998.0
16.2575 1965.0
16.301 1965.0
16.3444 1972.0
16.3879 1909.0
16.4314 1995.0
16.4748 2014.0
16.5183 1951.0
16.5618 1990.0
16.6052 2008.0
16.6487 2042.0
16.6921 1959.0
16.7356 2052.0
16.7791 2028.0
16.8225 2039.0
16.866 2047.0
16.9095 2028.0
16.9529 2066.0
16.9964 1964.0
17.0399 2066.0
17.0833 2024.0
17.1268 2051.0
17.1703 1989.0
17.2137 2117.0
17.2572 2038.0
17.3007 2006.0
17.3441 2144.0
17.3876 2014.0
17.4311 2083.0
17.4745 2116.0
17.518 2095.0
17.5615 2101.0
17.6049 2095.0
17.6484 2097.0
17.6919 2157.0
17.7353 2067.0
17.7788 2077.0
17.8223 2180.0
17.8657 2134.0
17.9092 2158.0
17.9527 2178.0
17.9961 2207.0
18.0396 2186.0
18.0831 2292.0
18.1265 2190.0
18.17 2184.0
18.2134 2153.0
18.2569 2259.0
18.3004 2238.0
18.3438 2261.0
18.3873 2291.0
18.4308 2239.0
18.4742 2287.0
18.5177 2311.0
18.5612 2313.0
18.6046 2324.0
18.6481 2287.0
18.6916 2313.0
18.735 2344.0
18.7785 2365.0
18.822 2330.0
18.8654 2379.0
18.9089 2364.0
18.9524 2388.0
18.9958 2444.0
19.0393 2350.0
19.0828 2385.0
19.1262 2534.0
19.1697 2465.0
19.2132 2477.0
19.2566 2501.0
19.3001 2428.0
19.3436 2420.0
19.387 2473.0
19.4305 2518.0
19.474 2477.0
19.5174 2552.0
19.5609 2482.0
19.6044 2436.0
19.6478 2662.0
19.6913 2518.0
19.7348 2519.0
19.7782 2628.0
19.8217 2659.0
19.8651 2536.0
19.9086 2546.0
19.9521 2602.0
19.9955 2536.0
20.039 2731.0
20.0825 2689.0
20.1259 2646.0
20.1694 2598.0
20.2129 2712.0
20.2563 2657.0
20.2998 2697.0
20.3433 2607.0
20.3867 2698.0
20.4302 2744.0
20.4737 2787.0
20.5171 2660.0
20.5606 2698.0
20.6041 2729.0
20.6475 2783.0
20.691 2757.0
20.7345 2717.0
20.7779 2769.0
20.8214 2741.0
20.8649 2865.0
20.9083 2795.0
20.9518 2761.0
20.9953 2792.0
21.0387 2864.0
21.0822 2777.0
21.1257 2791.0
21.1691 2946.0
21.2126 2828.0
21.2561 2894.0
21.2995 2795.0
21.343 2786.0
21.3864 2814.0
21.4299 2781.0
21.4734 2798.0
21.5168 2857.0
21.5603 2822.0
21.6038 2828.0
21.6472 2880.0
21.6907 2874.0
21.7342 2912.0
21.7776 2949.0
21.8211 2894.0
21.8646 2941.0
21.908 2881.0
21.9515 2808.0
21.995 2895.0
22.0384 2867.0
22.0819 2976.0
22.1254 2853.0
22.1688 3001.0
22.2123 2887.0
22.2558 2901.0
22.2992 2914.0
22.3427 2903.0
22.3862 2855.0
22.4296 2924.0
22.4731 2926.0
22.5166 2815.0
22.56 3000.0
22.6035 2935.0
22.647 2946.0
22.6904 2849.0
22.7339 2928.0
22.7774 2936.0
22.8208 2950.0
22.8643 2789.0
22.9078 2902.0
22.9512 2885.0
22.9947 2913.0
23.0381 2971.0
23.0816 2901.0
23.1251 2821.0
23.1685 2933.0
23.212 2951.0
23.2555 2858.0
23.2989 2830.0
23.3424 2906.0
23.3859 2816.0
23.4293 2938.0
23.4728 2914.0
23.5163 2828.0
23.5597 2846.0
23.6032 2860.0
23.6467 2850.0
23.6901 2844.0
23.7336 2815.0
23.7771 2857.0
23.8205 2782.0
23.864 2752.0
23.9075 2797.0
23.9509 2858.0
23.9944 2690.0
24.0379 2815.0
24.0813 2818.0
24.1248 2922.0
24.1683 2784.0
24.2117 2713.0
24.2552 2775.0
24.2987 2795.0
24.3421 2722.0
24.3856 2817.0
24.4291 2827.0
24.4725 2700.0
24.516 2763.0
24.5595 2671.0
24.6029 2685.0
24.6464 2711.0
24.6898 2714.0
24.7333 2759.0
24.7768 2718.0
24.8202 2627.0
24.8637 2650.0
24.9072 2617.0
24.9506 2712.0
24.9941 2659.0
25.0376 2666.0
25.081 2629.0
25.1245 2640.0
25.168 2663.0
25.2114 2642.0
25.2549 2683.0
25.2984 2546.0
25.3418 2536.0
25.3853 2593.0
25.4288 2660.0
25.4722 2641.0
25.5157 2427.0
25.5592 2528.0
25.6026 2515.0
25.6461 2453.0
25.6896 2524.0
25.733 2490.0
25.7765 2431.0
25.82 2431.0
25.8634 2510.0
25.9069 2455.0
25.9504 2473.0
25.9938 2399.0
26.0373 2350.0
26.0808 2396.0
26.1242 2404.0
26.1677 2441.0
26.2111 2353.0
26.2546 2489.0
26.2981 2350.0
26.3415 2341.0
26.385 2318.0
26.4285 2228.0
26.4719 2293.0
26.5154 2301.0
26.5589 2316.0
26.6023 2272.0
26.6458 2252.0
26.6893 2291.0
26.7327 2287.0
26.7762 2306.0
26.8197 2279.0
26.8631 2206.0
26.9066 2246.0
26.9501 2156.0
26.9935 2317.0
27.037 2195.0
27.0805 2205.0
27.1239 2143.0
27.1674 2149.0
27.2109 2135.0
27.2543 2221.0
27.2978 2083.0
27.3413 2131.0
27.3847 2159.0
27.4282 2129.0
27.4717 2078.0
27.5151 2110.0
27.5586 2104.0
27.6021 2126.0
27.6455 1983.0
27.689 2053.0
27.7325 2069.0
27.7759 2032.0
27.8194 2102.0
27.8628 1984.0
27.9063 1989.0
27.9498 2049.0
27.9932 2047.0
28.0367 2002.0
28.0802 2017.0
28.1236 2060.0
28.1671 2053.0
28.2106 1922.0
28.254 2084.0
28.2975 2017.0
28.341 1923.0
28.3844 1981.0
28.4279 1920.0
28.4714 1888.0
28.5148 1867.0
28.5583 2007.0
28.6018 1918.0
28.6452 1926.0
28.6887 1854.0
28.7322 1901.0
28.7756 1900.0
28.8191 1858.0
28.8626 1878.0
28.906 1914.0
28.9495 1816.0
28.993 1787.0
29.0364 1834.0
29.0799 1949.0
29.1234 1922.0
29.1668 1900.0
29.2103 1828.0
29.2538 1788.0
29.2972 1828.0
29.3407 1827.0
29.3841 1747.0
29.4276 1851.0
29.4711 1771.0
29.5145 1790.0
29.558 1765.0
29.6015 1796.0
29.6449 1791.0
29.6884 1689.0
29.7319 1790.0
29.7753 1789.0
29.8188 1814.0
29.8623 1690.0
29.9057 1701.0
29.9492 1651.0
29.9927 1810.0
30.0361 1708.0
30.0796 1740.0
30.1231 1761.0
30.1665 1703.0
30.21 1761.0
30.2535 1716.0
30.2969 1760.0
30.3404 1792.0
30.3839 1692.0
30.4273 1693.0
30.4708 1593.0
30.5143 1622.0
30.5577 1594.0
30.6012 1592.0
30.6447 1654.0
30.6881 1677.0
30.7316 1679.0
30.7751 1565.0
30.8185 1680.0
30.862 1645.0
30.9055 1660.0
30.9489 1642.0
30.9924 1599.0
31.0358 1666.0
31.0793 1620.0
31.1228 1538.0
31.1662 1672.0
31.2097 1657.0
31.2532 1610.0
31.2966 1571.0
31.3401 1627.0
31.3836 1527.0
31.427 1550.0
31.4705 1630.0
31.514 1588.0
31.5574 1557.0
31.6009 1517.0
31.6444 1470.0
31.6878 1582.0
31.7313 1483.0
31.7748 1565.0
31.8182 1526.0
31.8617 1542.0
31.9052 1525.0
31.9486 1562.0
31.9921 1562.0
32.0356 1562.0
32.079 1550.0
32.1225 1456.0
32.166 1536.0
32.2094 1578.0
32.2529 1557.0
32.2964 1431.0
32.3398 1498.0
32.3833 1516.0
32.4268 1469.0
32.4702 1511.0
32.5137 1545.0
32.5572 1480.0
32.6006 1477.0
32.6441 1465.0
32.6875 1501.0
32.731 1493.0
32.7745 1465.0
32.8179 1468.0
32.8614 1406.0
32.9049 1369.0
32.9483 1378.0
32.9918 1408.0
33.0353 1434.0
33.0787 1416.0
33.1222 1445.0
33.1657 1386.0
33.2091 1513.0
33.2526 1450.0
33.2961 1473.0
33.3395 1436.0
33.383 1377.0
33.4265 1372.0
33.4699 1431.0
33.5134 1372.0
33.5569 1428.0
33.6003 1397.0
33.6438 1365.0
33.6873 1350.0
33.7307 1413.0
33.7742 1402.0
33.8177 1322.0
33.8611 1372.0
33.9046 1447.0
33.9481 1440.0
33.9915 1418.0
34.035 1367.0
34.0785 1354.0
34.1219 1369.0
34.1654 1363.0
34.2088 1281.0
34.2523 1399.0
34.2958 1384.0
34.3392 1332.0
34.3827 1329.0
34.4262 1346.0
34.4696 1336.0
34.5131 1332.0
34.5566 1336.0
34.6 1361.0
34.6435 1366.0
34.687 1293.0
34.7304 1326.0
34.7739 1327.0
34.8174 1385.0
34.8608 1262.0
34.9043 1301.0
34.9478 1402.0
34.9912 1353.0
35.0347 1381.0
35.0782 1241.0
35.1216 1288.0
35.1651 1286.0
35.2086 1318.0
35.252 1300.0
35.2955 1355.0
35.339 1300.0
35.3824 1302.0
35.4259 1297.0
35.4694 1308.0
35.5128 1331.0
35.5563 1272.0
35.5998 1278.0
35.6432 1359.0
35.6867 1313.0
35.7302 1281.0
35.7736 1378.0
35.8171 1295.0
35.8605 1258.0
35.904 1290.0
35.9475 1267.0
35.9909 1290.0
36.0344 1299.0
36.0779 1268.0
36.1213 1222.0
36.1648 1325.0
36.2083 1315.0
36.2517 1288.0
36.2952 1214.0
36.3387 1252.0
36.3821 1320.0
36.4256 1311.0
36.4691 1309.0
36.5125 1331.0
36.556 1261.0
36.5995 1276.0
36.6429 1266.0
36.6864 1291.0
36.7299 1263.0
36.7733 1182.0
36.8168 1316.0
36.8603 1253.0
36.9037 1208.0
36.9472 1277.0
36.9907 1244.0
37.0341 1299.0
37.0776 1254.0
37.1211 1260.0
37.1645 1247.0
37.208 1309.0
37.2515 1242.0
37.2949 1222.0
37.3384 1309.0
37.3818 1256.0
37.4253 1183.0
37.4688 1244.0
37.5122 1259.0
37.5557 1317.0
37.5992 1228.0
37.6426 1208.0
37.6861 1231.0
37.7296 1246.0
37.773 1216.0
37.8165 1229.0
37.86 1277.0
37.9034 1226.0
37.9469 1231.0
37.9904 1191.0
38.0338 1197.0
38.0773 1266.0
38.1208 1244.0
38.1642 1190.0
38.2077 1236.0
38.2512 1161.0
38.2946 1325.0
38.3381 1236.0
38.3816 1182.0
38.425 1299.0
38.4685 1195.0
38.512 1220.0
38.5554 1167.0
38.5989 1235.0
38.6424 1208.0
38.6858 1112.0
38.7293 1210.0
38.7728 1241.0
38.8162 1259.0
38.8597 1208.0
38.9032 1093.0
38.9466 1215.0
38.9901 1208.0
39.0335 1133.0
39.077 1228.0
39.1205 1204.0
39.1639 1211.0
39.2074 1140.0
39.2509 1171.0
39.2943 1239.0
39.3378 1191.0
39.3813 1143.0
39.4247 1182.0
39.4682 1139.0
39.5117 1196.0
39.5551 1130.0
39.5986 1107.0
39.6421 1186.0
39.6855 1174.0
39.729 1213.0
39.7725 1120.0
39.8159 1252.0
39.8594 1171.0
39.9029 1168.0
39.9463 1167.0
39.9898 1129.0
40.0333 1199.0
40.0767 1159.0
40.1202 1191.0
40.1637 1184.0
40.2071 1149.0
40.2506 1164.0
40.2941 1128.0
40.3375 1197.0
40.381 1084.0
40.4245 1200.0
40.4679 1144.0
40.5114 1160.0
40.5548 1149.0
40.5983 1175.0
40.6418 1177.0
40.6852 1228.0
40.7287 1115.0
40.7722 1096.0
40.8156 1119.0
40.8591 1121.0
40.9026 1182.0
40.946 1103.0
40.9895 1108.0
41.033 1153.0
41.0764 1127.0
41.1199 1105.0
41.1634 1105.0
41.2068 1140.0
41.2503 1121.0
41.2938 1114.0
41.3372 1121.0
41.3807 1104.0
41.4242 1031.0
41.4676 1106.0
41.5111 1051.0
41.5546 1123.0
41.598 1118.0
41.6415 1119.0
41.685 1097.0
41.7284 1121.0
41.7719 1116.0
41.8154 1104.0
41.8588 1135.0
41.9023 1079.0
41.9458 1102.0
41.9892 1129.0
42.0327 1164.0
42.0762 1054.0
42.1196 1021.0
42.1631 1105.0
42.2065 1102.0
42.25 1103.0
42.2935 1176.0
42.3369 1096.0
42.3804 1081.0
42.4239 1094.0
42.4673 1111.0
42.5108 1065.0
42.5543 1105.0
42.5977 1143.0
42.6412 1029.0
42.6847 1086.0
42.7281 1086.0
42.7716 1054.0
42.8151 1058.0
42.8585 1061.0
42.902 1106.0
42.9455 1089.0
42.9889 1093.0
43.0324 1048.0
43.0759 1061.0
43.1193 1063.0
43.1628 1098.0
43.2063 1044.0
43.2497 1100.0
43.2932 1085.0
43.3367 1085.0
43.3801 1000.0
43.4236 1097.0
43.4671 1022.0
43.5105 1018.0
43.554 1107.0
43.5975 999.0
43.6409 1063.0
43.6844 1024.0
43.7279 1090.0
43.7713 1072.0
43.8148 1030.0
43.8582 1052.0
43.9017 1054.0
43.9452 1072.0
43.9886 1026.0
44.0321 997.0
44.0756 1094.0
44.119 1050.0
44.1625 1085.0
44.206 1013.0
44.2494 1094.0
44.2929 1057.0
44.3364 999.0
44.3798 1027.0
44.4233 1035.0
44.4668 1001.0
44.5102 1087.0
44.5537 1057.0
44.5972 1058.0
44.6406 1024.0
44.6841 1038.0
44.7276 978.0
44.771 967.0
44.8145 1007.0
44.858 1034.0
44.9014 998.0
44.9449 1021.0
44.9884 1007.0
45.0318 1042.0
45.0753 965.0
45.1188 1029.0
45.1622 977.0
45.2057 1046.0
45.2492 1038.0
45.2926 979.0
45.3361 1041.0
45.3795 1043.0
45.423 976.0
45.4665 985.0
45.5099 969.0
45.5534 1012.0
45.5969 960.0
45.6403 1045.0
45.6838 1029.0
45.7273 1020.0
45.7707 1016.0
45.8142 1038.0
45.8577 995.0
45.9011 1003.0
45.9446 1011.0
45.9881 907.0
46.0315 1025.0
46.075 926.0
46.1185 1035.0
46.1619 964.0
46.2054 981.0
46.2489 958.0
46.2923 945.0
46.3358 964.0
46.3793 1014.0
46.4227 1003.0
46.4662 941.0
46.5097 997.0
46.5531 1008.0
46.5966 1013.0
46.6401 969.0
46.6835 939.0
46.727 976.0
46.7705 973.0
46.8139 1025.0
46.8574 1004.0
46.9009 959.0
46.9443 993.0
46.9878 1016.0
47.0312 994.0
47.0747 1046.0
47.1182 957.0
47.1616 1012.0
47.2051 1005.0
47.2486 1004.0
47.292 1008.0
47.3355 1017.0
47.379 1019.0
47.4224 959.0
47.4659 978.0
47.5094 980.0
47.5528 948.0
47.5963 965.0
47.6398 983.0
47.6832 949.0
47.7267 980.0
47.7702 999.0
47.8136 911.0
47.8571 947.0
47.9006 907.0
47.944 919.0
47.9875 970.0
48.031 960.0
48.0744 927.0
48.1179 996.0
48.1614 971.0
48.2048 939.0
48.2483 953.0
48.2918 954.0
48.3352 995.0
48.3787 944.0
48.4222 972.0
48.4656 932.0
48.5091 1005.0
48.5525 911.0
48.596 856.0
48.6395 917.0
48.6829 1029.0
48.7264 927.0
48.7699 931.0
48.8133 962.0
48.8568 962.0
48.9003 968.0
48.9437 935.0
48.9872 911.0
49.0307 932.0
49.0741 923.0
49.1176 982.0
49.1611 921.0
49.2045 888.0
49.248 946.0
49.2915 872.0
49.3349 905.0
49.3784 948.0
49.4219 928.0
49.4653 950.0
49.5088 936.0
49.5523 866.0
49.5957 887.0
49.6392 950.0
49.6827 917.0
49.7261 862.0
49.7696 835.0
49.8131 968.0
49.8565 921.0
49.9 920.0
49.9435 889.0
49.9869 897.0
50.0304 871.0
50.0739 890.0
50.1173 926.0
50.1608 928.0
50.2042 916.0
50.2477 935.0
50.2912 905.0
50.3346 903.0
50.3781 866.0
50.4216 909.0
50.465 881.0
50.5085 909.0
50.552 902.0
50.5954 844.0
50.6389 878.0
50.6824 917.0
50.7258 850.0
50.7693 879.0
50.8128 900.0
50.8562 817.0
50.8997 948.0
50.9432 863.0
50.9866 888.0
51.0301 888.0
51.0736 876.0
51.117 866.0
51.1605 857.0
51.204 835.0
51.2474 887.0
51.2909 857.0
51.3344 840.0
51.3778 855.0
51.4213 860.0
51.4648 876.0
51.5082 843.0
51.5517 878.0
51.5952 832.0
51.6386 873.0
51.6821 867.0
51.7256 873.0
51.769 829.0
51.8125 817.0
51.8559 816.0
51.8994 869.0
51.9429 849.0
51.9863 799.0
52.0298 823.0
52.0733 756.0
52.1167 815.0
52.1602 787.0
52.2037 816.0
52.2471 821.0
52.2906 752.0
52.3341 812.0
52.3775 817.0
52.421 866.0
52.4645 744.0
52.5079 770.0
52.5514 788.0
52.5949 789.0
52.6383 825.0
52.6818 737.0
52.7253 774.0
52.7687 829.0
52.8122 779.0
52.8557 800.0
52.8991 789.0
52.9426 798.0
52.9861 760.0
53.0295 789.0
53.073 777.0
53.1165 801.0
53.1599 805.0
53.2034 775.0
53.2469 769.0
53.2903 715.0
53.3338 792.0
53.3772 780.0
53.4207 718.0
53.4642 728.0
53.5076 781.0
53.5511 789.0
53.5946 773.0
53.638 801.0
53.6815 825.0
53.725 870.0
53.7684 770.0
53.8119 814.0
53.8554 792.0
53.8988 771.0
53.9423 794.0
53.9858 719.0
54.0292 757.0
54.0727 753.0
54.1162 722.0
54.1596 682.0
54.2031 764.0
54.2466 798.0
54.29 763.0
54.3335 713.0
54.377 763.0
54.4204 740.0
54.4639 731.0
54.5074 725.0
54.5508 728.0
54.5943 693.0
54.6378 697.0
54.6812 728.0
54.7247 675.0
54.7682 755.0
54.8116 695.0
54.8551 742.0
54.8986 723.0
54.942 688.0
54.9855 700.0
55.0289 706.0
55.0724 711.0
55.1159 714.0
55.1593 704.0
55.2028 703.0
55.2463 716.0
55.2897 680.0
55.3332 698.0
55.3767 744.0
55.4201 747.0
55.4636 682.0
55.5071 711.0
55.5505 659.0
55.594 694.0
55.6375 731.0
55.6809 740.0
55.7244 677.0
55.7679 689.0
55.8113 725.0
55.8548 759.0
55.8983 733.0
55.9417 778.0
55.9852 684.0
56.0287 724.0
56.0721 682.0
56.1156 640.0
56.1591 652.0
56.2025 669.0
56.246 692.0
56.2895 729.0
56.3329 692.0
56.3764 671.0
56.4199 706.0
56.4633 682.0
56.5068 637.0
56.5502 692.0
56.5937 667.0
56.6372 692.0
56.6806 645.0
56.7241 651.0
56.7676 637.0
56.811 648.0
56.8545 633.0
56.898 623.0
56.9414 671.0
56.9849 708.0
57.0284 704.0
57.0718 700.0
57.1153 670.0
57.1588 672.0
57.2022 668.0
57.2457 632.0
57.2892 658.0
57.3326 657.0
57.3761 647.0
57.4196 577.0
57.463 616.0
57.5065 643.0
57.55 618.0
57.5934 662.0
57.6369 640.0
57.6804 645.0
57.7238 609.0
57.7673 662.0
57.8108 632.0
57.8542 649.0
57.8977 625.0
57.9412 638.0
57.9846 648.0
58.0281 633.0
58.0716 655.0
58.115 601.0
58.1585 628.0
58.2019 581.0
58.2454 631.0
58.2889 627.0
58.3323 660.0
58.3758 617.0
58.4193 617.0
58.4627 581.0
58.5062 626.0
58.5497 629.0
58.5931 624.0
58.6366 665.0
58.6801 642.0
58.7235 617.0
58.767 686.0
58.8105 612.0
58.8539 630.0
58.8974 610.0
58.9409 656.0
58.9843 629.0
59.0278 626.0
59.0713 654.0
59.1147 630.0
59.1582 608.0
59.2017 633.0
59.2451 615.0
59.2886 582.0
59.3321 590.0
59.3755 638.0
59.419 654.0
59.4625 619.0
59.5059 618.0
59.5494 622.0
59.5929 606.0
59.6363 603.0
59.6798 619.0
59.7233 580.0
59.7667 582.0
59.8102 592.0
59.8536 605.0
59.8971 622.0
59.9406 552.0
59.984 587.0
59.9949 607.0