File: XRD/2025_06_12_NIF_Xtal_DSC4_3_60_22m.xy
3.00043 127404.0
3.0439 121161.0
3.08736 116420.0
3.13083 110604.0
3.1743 104251.0
3.21776 98453.0
3.26123 93086.0
3.30469 88043.0
3.34816 83442.0
3.39163 78614.0
3.43509 73995.0
3.47856 70090.0
3.52202 66195.0
3.56549 62180.0
3.60895 58419.0
3.65242 54748.0
3.69589 50916.0
3.73935 47851.0
3.78282 44919.0
3.82628 41847.0
3.86975 38990.0
3.91321 36616.0
3.95668 34215.0
4.00015 31933.0
4.04361 29805.0
4.08708 27724.0
4.13054 25442.0
4.17401 23459.0
4.21747 21846.0
4.26094 20116.0
4.30441 18596.0
4.34787 17333.0
4.39134 15921.0
4.4348 14511.0
4.47827 13477.0
4.52173 12476.0
4.5652 11515.0
4.60867 10725.0
4.65213 10039.0
4.6956 9116.0
4.73906 8866.0
4.78253 8161.0
4.826 7861.0
4.86946 7555.0
4.91293 7223.0
4.95639 7030.0
4.99986 6970.0
5.04332 6958.0
5.08679 6872.0
5.13026 6759.0
5.17372 6836.0
5.21719 6807.0
5.26065 6836.0
5.30412 6698.0
5.34758 6646.0
5.39105 6600.0
5.43452 6179.0
5.47798 5748.0
5.52145 5558.0
5.56491 5320.0
5.60838 4903.0
5.65184 4668.0
5.69531 4473.0
5.73878 4189.0
5.78224 4162.0
5.82571 3991.0
5.86917 4035.0
5.91264 3865.0
5.9561 3803.0
5.99957 3751.0
6.04304 3755.0
6.0865 3718.0
6.12997 3626.0
6.17343 3540.0
6.2169 3507.0
6.26037 3447.0
6.30383 3363.0
6.3473 3185.0
6.39076 3347.0
6.43423 3146.0
6.47769 3151.0
6.52116 3129.0
6.56463 2995.0
6.60809 3152.0
6.65156 2980.0
6.69502 3034.0
6.73849 2841.0
6.78195 2872.0
6.82542 2655.0
6.86889 2776.0
6.91235 2798.0
6.95582 2756.0
6.99928 2723.0
7.04275 2592.0
7.08621 2604.0
7.12968 2673.0
7.17315 2629.0
7.21661 2684.0
7.26008 2728.0
7.30354 2585.0
7.34701 2677.0
7.39047 2819.0
7.43394 2861.0
7.47741 3017.0
7.52087 3122.0
7.56434 3296.0
7.6078 3529.0
7.65127 3844.0
7.69474 4197.0
7.7382 4733.0
7.78167 5549.0
7.82513 6689.0
7.8686 8195.0
7.91206 10167.0
7.95553 12150.0
7.999 15587.0
8.04246 19455.0
8.08593 21194.0
8.12939 19816.0
8.17286 17708.0
8.21632 15930.0
8.25979 14950.0
8.30326 11494.0
8.34672 8852.0
8.39019 6691.0
8.43365 4858.0
8.47712 3638.0
8.52058 3261.0
8.56405 3244.0
8.60752 3266.0
8.65098 3050.0
8.69445 2749.0
8.73791 2487.0
8.78138 2548.0
8.82485 2582.0
8.86831 2436.0
8.91178 2485.0
8.95524 2479.0
8.99871 2455.0
9.04217 2424.0
9.08564 2424.0
9.12911 2434.0
9.17257 2475.0
9.21604 2484.0
9.2595 2527.0
9.30297 2467.0
9.34643 2360.0
9.3899 2379.0
9.43337 2516.0
9.47683 2466.0
9.5203 2538.0
9.56376 2510.0
9.60723 2579.0
9.65069 2591.0
9.69416 2562.0
9.73763 2621.0
9.78109 2794.0
9.82456 2789.0
9.86802 2910.0
9.91149 3172.0
9.95495 3378.0
9.99842 3715.0
10.0419 4086.0
10.0854 4451.0
10.1288 5165.0
10.1723 6153.0
10.2157 7558.0
10.2592 9715.0
10.3027 12283.0
10.3461 15120.0
10.3896 18187.0
10.4331 20158.0
10.4765 19496.0
10.52 18253.0
10.5635 16430.0
10.6069 15052.0
10.6504 13221.0
10.6939 11663.0
10.7373 9288.0
10.7808 6622.0
10.8243 5187.0
10.8677 4664.0
10.9112 4340.0
10.9547 3702.0
10.9981 3315.0
11.0416 3105.0
11.0851 2948.0
11.1285 2862.0
11.172 3028.0
11.2155 3050.0
11.2589 3308.0
11.3024 3403.0
11.3459 3860.0
11.3893 4310.0
11.4328 4973.0
11.4763 5871.0
11.5197 7275.0
11.5632 9511.0
11.6067 12671.0
11.6501 16149.0
11.6936 19074.0
11.7371 23599.0
11.7805 30786.0
11.824 34711.0
11.8674 37753.0
11.9109 41488.0
11.9544 38341.0
11.9978 34240.0
12.0413 30445.0
12.0848 25473.0
12.1282 20580.0
12.1717 15366.0
12.2152 11263.0
12.2586 7969.0
12.3021 6565.0
12.3456 5640.0
12.389 4825.0
12.4325 4836.0
12.476 4349.0
12.5194 3701.0
12.5629 3209.0
12.6064 3135.0
12.6498 2973.0
12.6933 3098.0
12.7368 3243.0
12.7802 3366.0
12.8237 3854.0
12.8672 4414.0
12.9106 4864.0
12.9541 5555.0
12.9976 5859.0
13.041 6071.0
13.0845 5906.0
13.128 5482.0
13.1714 5071.0
13.2149 4769.0
13.2584 4636.0
13.3018 4403.0
13.3453 4402.0
13.3887 4121.0
13.4322 3845.0
13.4757 3772.0
13.5191 3544.0
13.5626 3461.0
13.6061 3293.0
13.6495 3123.0
13.693 2873.0
13.7365 2666.0
13.7799 2682.0
13.8234 2620.0
13.8669 2605.0
13.9103 2607.0
13.9538 2580.0
13.9973 2551.0
14.0407 2469.0
14.0842 2442.0
14.1277 2587.0
14.1711 2451.0
14.2146 2666.0
14.2581 2656.0
14.3015 2785.0
14.345 3005.0
14.3885 3308.0
14.4319 3756.0
14.4754 4502.0
14.5189 5964.0
14.5623 7572.0
14.6058 9567.0
14.6493 12099.0
14.6927 13984.0
14.7362 14852.0
14.7797 15776.0
14.8231 15745.0
14.8666 14271.0
14.9101 12771.0
14.9535 12045.0
14.997 10300.0
15.0404 8356.0
15.0839 5743.0
15.1274 4029.0
15.1708 3410.0
15.2143 3298.0
15.2578 3100.0
15.3012 3002.0
15.3447 2716.0
15.3882 2430.0
15.4316 2446.0
15.4751 2366.0
15.5186 2456.0
15.562 2539.0
15.6055 2519.0
15.649 2486.0
15.6924 2597.0
15.7359 2883.0
15.7794 2920.0
15.8228 3447.0
15.8663 4018.0
15.9098 4866.0
15.9532 6354.0
15.9967 9065.0
16.0402 12204.0
16.0836 15350.0
16.1271 17947.0
16.1706 19919.0
16.214 18167.0
16.2575 16216.0
16.301 13715.0
16.3444 12318.0
16.3879 10331.0
16.4314 7148.0
16.4748 6188.0
16.5183 4975.0
16.5618 3838.0
16.6052 3402.0
16.6487 3431.0
16.6921 3525.0
16.7356 3578.0
16.7791 3517.0
16.8225 3517.0
16.866 3988.0
16.9095 4781.0
16.9529 6335.0
16.9964 8198.0
17.0399 10023.0
17.0833 11646.0
17.1268 11892.0
17.1703 11795.0
17.2137 11758.0
17.2572 10374.0
17.3007 8769.0
17.3441 7382.0
17.3876 6149.0
17.4311 4787.0
17.4745 3956.0
17.518 3264.0
17.5615 3032.0
17.6049 2715.0
17.6484 2597.0
17.6919 2509.0
17.7353 2493.0
17.7788 2472.0
17.8223 2339.0
17.8657 2409.0
17.9092 2441.0
17.9527 2498.0
17.9961 2578.0
18.0396 2817.0
18.0831 3016.0
18.1265 3673.0
18.17 4589.0
18.2134 5585.0
18.2569 6297.0
18.3004 6525.0
18.3438 6414.0
18.3873 6350.0
18.4308 6716.0
18.4742 6869.0
18.5177 6367.0
18.5612 5377.0
18.6046 4767.0
18.6481 4265.0
18.6916 4019.0
18.735 3915.0
18.7785 4173.0
18.822 4939.0
18.8654 6507.0
18.9089 7129.0
18.9524 7385.0
18.9958 7791.0
19.0393 7791.0
19.0828 7809.0
19.1262 7753.0
19.1697 7609.0
19.2132 7989.0
19.2566 8187.0
19.3001 7942.0
19.3436 8463.0
19.387 10299.0
19.4305 12841.0
19.474 15294.0
19.5174 17880.0
19.5609 19390.0
19.6044 21125.0
19.6478 25535.0
19.6913 28383.0
19.7348 27121.0
19.7782 24735.0
19.8217 23984.0
19.8651 25793.0
19.9086 26028.0
19.9521 24276.0
19.9955 21314.0
20.039 17247.0
20.0825 13706.0
20.1259 10263.0
20.1694 8615.0
20.2129 7719.0
20.2563 6798.0
20.2998 5977.0
20.3433 5184.0
20.3867 4602.0
20.4302 4068.0
20.4737 3873.0
20.5171 4021.0
20.5606 3990.0
20.6041 4209.0
20.6475 4532.0
20.691 5000.0
20.7345 4816.0
20.7779 4557.0
20.8214 4726.0
20.8649 5279.0
20.9083 5753.0
20.9518 5823.0
20.9953 5592.0
21.0387 6236.0
21.0822 7261.0
21.1257 7799.0
21.1691 7768.0
21.2126 7535.0
21.2561 6894.0
21.2995 6220.0
21.343 6145.0
21.3864 6448.0
21.4299 6373.0
21.4734 6152.0
21.5168 5832.0
21.5603 5484.0
21.6038 5384.0
21.6472 5554.0
21.6907 6611.0
21.7342 8520.0
21.7776 10852.0
21.8211 12588.0
21.8646 12985.0
21.908 12563.0
21.9515 11601.0
21.995 11268.0
22.0384 12073.0
22.0819 14070.0
22.1254 13800.0
22.1688 12860.0
22.2123 11993.0
22.2558 11959.0
22.2992 11985.0
22.3427 12452.0
22.3862 12379.0
22.4296 11827.0
22.4731 11809.0
22.5166 11743.0
22.56 13511.0
22.6035 15916.0
22.647 18108.0
22.6904 17581.0
22.7339 16778.0
22.7774 18543.0
22.8208 20360.0
22.8643 20743.0
22.9078 18004.0
22.9512 13235.0
22.9947 9159.0
23.0381 7158.0
23.0816 5763.0
23.1251 5121.0
23.1685 4639.0
23.212 4353.0
23.2555 4863.0
23.2989 4269.0
23.3424 3552.0
23.3859 3037.0
23.4293 3095.0
23.4728 3296.0
23.5163 3362.0
23.5597 3274.0
23.6032 3347.0
23.6467 3512.0
23.6901 3905.0
23.7336 3926.0
23.7771 3978.0
23.8205 4198.0
23.864 4040.0
23.9075 4210.0
23.9509 4854.0
23.9944 5468.0
24.0379 6227.0
24.0813 7586.0
24.1248 9603.0
24.1683 10970.0
24.2117 11765.0
24.2552 12656.0
24.2987 14269.0
24.3421 15415.0
24.3856 14951.0
24.4291 14575.0
24.4725 15447.0
24.516 16915.0
24.5595 19845.0
24.6029 22121.0
24.6464 24312.0
24.6898 24053.0
24.7333 21420.0
24.7768 20294.0
24.8202 21985.0
24.8637 22425.0
24.9072 19976.0
24.9506 17018.0
24.9941 15842.0
25.0376 14393.0
25.081 13367.0
25.1245 11425.0
25.168 9901.0
25.2114 8063.0
25.2549 6858.0
25.2984 6025.0
25.3418 5923.0
25.3853 5153.0
25.4288 4555.0
25.4722 4308.0
25.5157 4370.0
25.5592 5204.0
25.6026 6794.0
25.6461 8942.0
25.6896 11169.0
25.733 13338.0
25.7765 16050.0
25.82 18298.0
25.8634 21461.0
25.9069 21381.0
25.9504 17720.0
25.9938 14382.0
26.0373 12735.0
26.0808 12828.0
26.1242 12830.0
26.1677 11795.0
26.2111 10708.0
26.2546 9964.0
26.2981 11028.0
26.3415 11004.0
26.385 11686.0
26.4285 12671.0
26.4719 13118.0
26.5154 13898.0
26.5589 13866.0
26.6023 12848.0
26.6458 11273.0
26.6893 10013.0
26.7327 9781.0
26.7762 10962.0
26.8197 13143.0
26.8631 15227.0
26.9066 17144.0
26.9501 18131.0
26.9935 17805.0
27.037 19037.0
27.0805 18945.0
27.1239 16418.0
27.1674 13313.0
27.2109 11166.0
27.2543 9162.0
27.2978 6944.0
27.3413 5619.0
27.3847 4533.0
27.4282 4116.0
27.4717 3528.0
27.5151 3563.0
27.5586 3556.0
27.6021 3960.0
27.6455 4358.0
27.689 4656.0
27.7325 4834.0
27.7759 5112.0
27.8194 5675.0
27.8628 6189.0
27.9063 6612.0
27.9498 6544.0
27.9932 6859.0
28.0367 6386.0
28.0802 6005.0
28.1236 5536.0
28.1671 5234.0
28.2106 5164.0
28.254 4705.0
28.2975 4649.0
28.341 4323.0
28.3844 4005.0
28.4279 3743.0
28.4714 3641.0
28.5148 3899.0
28.5583 4346.0
28.6018 4198.0
28.6452 3796.0
28.6887 3636.0
28.7322 3355.0
28.7756 3205.0
28.8191 3006.0
28.8626 2849.0
28.906 2948.0
28.9495 3104.0
28.993 3213.0
29.0364 3228.0
29.0799 3892.0
29.1234 3905.0
29.1668 4008.0
29.2103 3878.0
29.2538 3690.0
29.2972 3484.0
29.3407 3355.0
29.3841 3209.0
29.4276 3485.0
29.4711 3937.0
29.5145 4686.0
29.558 5142.0
29.6015 5637.0
29.6449 6061.0
29.6884 5998.0
29.7319 6045.0
29.7753 5621.0
29.8188 5263.0
29.8623 5157.0
29.9057 4990.0
29.9492 4556.0
29.9927 4023.0
30.0361 3514.0
30.0796 3213.0
30.1231 3129.0
30.1665 3395.0
30.21 3494.0
30.2535 3570.0
30.2969 3698.0
30.3404 3644.0
30.3839 3547.0
30.4273 3602.0
30.4708 3731.0
30.5143 3556.0
30.5577 3631.0
30.6012 3416.0
30.6447 3334.0
30.6881 3171.0
30.7316 3248.0
30.7751 3192.0
30.8185 3202.0
30.862 3300.0
30.9055 3358.0
30.9489 3536.0
30.9924 3842.0
31.0358 4006.0
31.0793 4205.0
31.1228 4339.0
31.1662 4225.0
31.2097 4363.0
31.2532 4845.0
31.2966 5433.0
31.3401 5765.0
31.3836 5859.0
31.427 6192.0
31.4705 5818.0
31.514 5846.0
31.5574 6075.0
31.6009 5938.0
31.6444 5919.0
31.6878 5655.0
31.7313 5706.0
31.7748 6092.0
31.8182 5648.0
31.8617 6106.0
31.9052 6312.0
31.9486 6273.0
31.9921 6188.0
32.0356 6034.0
32.079 5413.0
32.1225 4379.0
32.166 3964.0
32.2094 3905.0
32.2529 3996.0
32.2964 4348.0
32.3398 4217.0
32.3833 4257.0
32.4268 3848.0
32.4702 3857.0
32.5137 4100.0
32.5572 4483.0
32.6006 4832.0
32.6441 4930.0
32.6875 4778.0
32.731 4834.0
32.7745 5054.0
32.8179 5092.0
32.8614 4984.0
32.9049 5055.0
32.9483 4859.0
32.9918 4535.0
33.0353 4464.0
33.0787 4296.0
33.1222 4319.0
33.1657 4250.0
33.2091 4143.0
33.2526 4061.0
33.2961 3763.0
33.3395 3474.0
33.383 3462.0
33.4265 3797.0
33.4699 4011.0
33.5134 3653.0
33.5569 3534.0
33.6003 3115.0
33.6438 2774.0
33.6873 2528.0
33.7307 2252.0
33.7742 2142.0
33.8177 2087.0
33.8611 2114.0
33.9046 2014.0
33.9481 1987.0
33.9915 2026.0
34.035 2048.0
34.0785 1962.0
34.1219 1976.0
34.1654 1928.0
34.2088 1984.0
34.2523 2000.0
34.2958 2117.0
34.3392 2083.0
34.3827 2317.0
34.4262 2333.0
34.4696 2395.0
34.5131 2594.0
34.5566 2709.0
34.6 2744.0
34.6435 2978.0
34.687 2995.0
34.7304 3022.0
34.7739 3009.0
34.8174 2967.0
34.8608 2830.0
34.9043 2679.0
34.9478 2491.0
34.9912 2529.0
35.0347 2370.0
35.0782 2307.0
35.1216 2402.0
35.1651 2709.0
35.2086 3010.0
35.252 3166.0
35.2955 3427.0
35.339 3423.0
35.3824 3313.0
35.4259 3341.0
35.4694 3328.0
35.5128 3323.0
35.5563 3637.0
35.5998 3801.0
35.6432 4222.0
35.6867 4517.0
35.7302 4450.0
35.7736 4293.0
35.8171 5160.0
35.8605 5443.0
35.904 5426.0
35.9475 5622.0
35.9909 4906.0
36.0344 4518.0
36.0779 4150.0
36.1213 4007.0
36.1648 3686.0
36.2083 3687.0
36.2517 3928.0
36.2952 3759.0
36.3387 3817.0
36.3821 3509.0
36.4256 3227.0
36.4691 3024.0
36.5125 2769.0
36.556 2552.0
36.5995 2499.0
36.6429 2392.0
36.6864 2412.0
36.7299 2397.0
36.7733 2599.0
36.8168 2650.0
36.8603 2648.0
36.9037 2483.0
36.9472 2478.0
36.9907 2499.0
37.0341 2633.0
37.0776 2663.0
37.1211 2501.0
37.1645 2502.0
37.208 2360.0
37.2515 2475.0
37.2949 2513.0
37.3384 2608.0
37.3818 2825.0
37.4253 2903.0
37.4688 2961.0
37.5122 3353.0
37.5557 3046.0
37.5992 2864.0
37.6426 2942.0
37.6861 2836.0
37.7296 2901.0
37.773 3213.0
37.8165 3518.0
37.86 3977.0
37.9034 4364.0
37.9469 4337.0
37.9904 4266.0
38.0338 4008.0
38.0773 3706.0
38.1208 3566.0
38.1642 3284.0
38.2077 2949.0
38.2512 2669.0
38.2946 2343.0
38.3381 2273.0
38.3816 2214.0
38.425 2414.0
38.4685 2380.0
38.512 2420.0
38.5554 2699.0
38.5989 3009.0
38.6424 3398.0
38.6858 3812.0
38.7293 4023.0
38.7728 4477.0
38.8162 4540.0
38.8597 4850.0
38.9032 5031.0
38.9466 4800.0
38.9901 4678.0
39.0335 3628.0
39.077 3371.0
39.1205 2846.0
39.1639 2504.0
39.2074 2479.0
39.2509 2715.0
39.2943 3086.0
39.3378 3247.0
39.3813 3103.0
39.4247 3446.0
39.4682 3461.0
39.5117 3042.0
39.5551 2995.0
39.5986 2923.0
39.6421 2488.0
39.6855 2603.0
39.729 2653.0
39.7725 2581.0
39.8159 2526.0
39.8594 2593.0
39.9029 2699.0
39.9463 2467.0
39.9898 2555.0
40.0333 2526.0
40.0767 2684.0
40.1202 2679.0
40.1637 2680.0
40.2071 2787.0
40.2506 2690.0
40.2941 2761.0
40.3375 2779.0
40.381 2761.0
40.4245 2653.0
40.4679 2538.0
40.5114 2364.0
40.5548 2376.0
40.5983 2416.0
40.6418 2373.0
40.6852 2539.0
40.7287 2695.0
40.7722 2843.0
40.8156 2844.0
40.8591 2864.0
40.9026 2785.0
40.946 2562.0
40.9895 2434.0
41.033 2339.0
41.0764 2203.0
41.1199 2199.0
41.1634 2195.0
41.2068 2225.0
41.2503 2089.0
41.2938 1907.0
41.3372 1942.0
41.3807 1873.0
41.4242 1878.0
41.4676 1848.0
41.5111 1770.0
41.5546 1891.0
41.598 1970.0
41.6415 2005.0
41.685 2030.0
41.7284 2289.0
41.7719 2273.0
41.8154 2556.0
41.8588 2520.0
41.9023 2641.0
41.9458 2690.0
41.9892 3239.0
42.0327 3546.0
42.0762 3654.0
42.1196 3646.0
42.1631 3591.0
42.2065 3742.0
42.25 3822.0
42.2935 3899.0
42.3369 4029.0
42.3804 4232.0
42.4239 4002.0
42.4673 3510.0
42.5108 3317.0
42.5543 2819.0
42.5977 2548.0
42.6412 2396.0
42.6847 2331.0
42.7281 2329.0
42.7716 2291.0
42.8151 2412.0
42.8585 2508.0
42.902 2658.0
42.9455 2566.0
42.9889 2899.0
43.0324 2985.0
43.0759 2671.0
43.1193 2767.0
43.1628 2696.0
43.2063 2603.0
43.2497 2648.0
43.2932 2764.0
43.3367 2686.0
43.3801 2737.0
43.4236 2743.0
43.4671 2520.0
43.5105 2542.0
43.554 2415.0
43.5975 2581.0
43.6409 2376.0
43.6844 2285.0
43.7279 2387.0
43.7713 2161.0
43.8148 2088.0
43.8582 2119.0
43.9017 2185.0
43.9452 2206.0
43.9886 2409.0
44.0321 2442.0
44.0756 2566.0
44.119 2784.0
44.1625 2977.0
44.206 3227.0
44.2494 3562.0
44.2929 3616.0
44.3364 3574.0
44.3798 3740.0
44.4233 3796.0
44.4668 3520.0
44.5102 3294.0
44.5537 3478.0
44.5972 3718.0
44.6406 3982.0
44.6841 4199.0
44.7276 4292.0
44.771 3625.0
44.8145 3501.0
44.858 3643.0
44.9014 3562.0
44.9449 3565.0
44.9884 3018.0
45.0318 3033.0
45.0753 2755.0
45.1188 2453.0
45.1622 2555.0
45.2057 2617.0
45.2492 2458.0
45.2926 2273.0
45.3361 2255.0
45.3795 2121.0
45.423 1968.0
45.4665 2054.0
45.5099 2000.0
45.5534 1965.0
45.5969 1973.0
45.6403 1967.0
45.6838 1923.0
45.7273 1877.0
45.7707 1894.0
45.8142 2072.0
45.8577 2079.0
45.9011 2020.0
45.9446 2179.0
45.9881 2428.0
46.0315 2381.0
46.075 2492.0
46.1185 2467.0
46.1619 2329.0
46.2054 2372.0
46.2489 2311.0
46.2923 2679.0
46.3358 2747.0
46.3793 2556.0
46.4227 2714.0
46.4662 2693.0
46.5097 2565.0
46.5531 2441.0
46.5966 2316.0
46.6401 2201.0
46.6835 2050.0
46.727 2020.0
46.7705 1988.0
46.8139 1913.0
46.8574 2170.0
46.9009 2319.0
46.9443 2346.0
46.9878 2407.0
47.0312 2746.0
47.0747 2831.0
47.1182 2859.0
47.1616 3112.0
47.2051 3249.0
47.2486 3052.0
47.292 2952.0
47.3355 2876.0
47.379 2734.0
47.4224 2610.0
47.4659 2525.0
47.5094 2573.0
47.5528 2558.0
47.5963 2653.0
47.6398 2636.0
47.6832 2720.0
47.7267 2522.0
47.7702 2407.0
47.8136 2365.0
47.8571 2247.0
47.9006 2109.0
47.944 2004.0
47.9875 2026.0
48.031 1837.0
48.0744 1836.0
48.1179 1817.0
48.1614 1898.0
48.2048 1927.0
48.2483 2049.0
48.2918 2241.0
48.3352 2258.0
48.3787 2435.0
48.4222 2702.0
48.4656 2783.0
48.5091 2759.0
48.5525 2766.0
48.596 2751.0
48.6395 2414.0
48.6829 2280.0
48.7264 2216.0
48.7699 2020.0
48.8133 1825.0
48.8568 1821.0
48.9003 1966.0
48.9437 2003.0
48.9872 2094.0
49.0307 2217.0
49.0741 2048.0
49.1176 2119.0
49.1611 2169.0
49.2045 2171.0
49.248 2156.0
49.2915 2130.0
49.3349 2092.0
49.3784 2143.0
49.4219 2060.0
49.4653 1990.0
49.5088 2054.0
49.5523 1999.0
49.5957 1881.0
49.6392 1877.0
49.6827 1818.0
49.7261 1808.0
49.7696 1874.0
49.8131 1800.0
49.8565 1857.0
49.9 1998.0
49.9435 2131.0
49.9869 2263.0
50.0304 2398.0
50.0739 2392.0
50.1173 2348.0
50.1608 2360.0
50.2042 2292.0
50.2477 2290.0
50.2912 2263.0
50.3346 2159.0
50.3781 2226.0
50.4216 2144.0
50.465 2124.0
50.5085 2159.0
50.552 2061.0
50.5954 2023.0
50.6389 1919.0
50.6824 1954.0
50.7258 1905.0
50.7693 1817.0
50.8128 1785.0
50.8562 1717.0
50.8997 1722.0
50.9432 1699.0
50.9866 1720.0
51.0301 1712.0
51.0736 1633.0
51.117 1680.0
51.1605 1713.0
51.204 1620.0
51.2474 1718.0
51.2909 1633.0
51.3344 1701.0
51.3778 1687.0
51.4213 1701.0
51.4648 1753.0
51.5082 1836.0
51.5517 1761.0
51.5952 1737.0
51.6386 1637.0
51.6821 1645.0
51.7256 1566.0
51.769 1565.0
51.8125 1570.0
51.8559 1646.0
51.8994 1613.0
51.9429 1573.0
51.9863 1640.0
52.0298 1567.0
52.0733 1572.0
52.1167 1574.0
52.1602 1472.0
52.2037 1384.0
52.2471 1542.0
52.2906 1431.0
52.3341 1389.0
52.3775 1491.0
52.421 1432.0
52.4645 1419.0
52.5079 1592.0
52.5514 1658.0
52.5949 1754.0
52.6383 1842.0
52.6818 1713.0
52.7253 1827.0
52.7687 1865.0
52.8122 1943.0
52.8557 2056.0
52.8991 1965.0
52.9426 1935.0
52.9861 2093.0
53.0295 2130.0
53.073 1985.0
53.1165 1941.0
53.1599 1922.0
53.2034 1905.0
53.2469 1704.0
53.2903 1809.0
53.3338 1740.0
53.3772 1704.0
53.4207 1664.0
53.4642 1707.0
53.5076 1588.0
53.5511 1664.0
53.5946 1612.0
53.638 1703.0
53.6815 1660.0
53.725 1712.0
53.7684 1701.0
53.8119 1710.0
53.8554 1696.0
53.8988 1691.0
53.9423 1647.0
53.9858 1667.0
54.0292 1706.0
54.0727 1811.0
54.1162 1800.0
54.1596 1693.0
54.2031 1632.0
54.2466 1570.0
54.29 1668.0
54.3335 1713.0
54.377 1788.0
54.4204 1863.0
54.4639 1759.0
54.5074 1702.0
54.5508 1741.0
54.5943 1780.0
54.6378 1631.0
54.6812 1550.0
54.7247 1517.0
54.7682 1504.0
54.8116 1476.0
54.8551 1365.0
54.8986 1419.0
54.942 1389.0
54.9855 1383.0
55.0289 1351.0
55.0724 1370.0
55.1159 1303.0
55.1593 1390.0
55.2028 1399.0
55.2463 1419.0
55.2897 1486.0
55.3332 1363.0
55.3767 1415.0
55.4201 1495.0
55.4636 1522.0
55.5071 1504.0
55.5505 1611.0
55.594 1670.0
55.6375 1661.0
55.6809 1687.0
55.7244 1617.0
55.7679 1661.0
55.8113 1566.0
55.8548 1603.0
55.8983 1515.0
55.9417 1508.0
55.9852 1349.0
56.0287 1421.0
56.0721 1453.0
56.1156 1448.0
56.1591 1531.0
56.2025 1440.0
56.246 1568.0
56.2895 1674.0
56.3329 1641.0
56.3764 1614.0
56.4199 1596.0
56.4633 1582.0
56.5068 1576.0
56.5502 1552.0
56.5937 1541.0
56.6372 1411.0
56.6806 1409.0
56.7241 1401.0
56.7676 1412.0
56.811 1362.0
56.8545 1355.0
56.898 1351.0
56.9414 1331.0
56.9849 1261.0
57.0284 1355.0
57.0718 1281.0
57.1153 1247.0
57.1588 1272.0
57.2022 1320.0
57.2457 1288.0
57.2892 1332.0
57.3326 1355.0
57.3761 1431.0
57.4196 1458.0
57.463 1409.0
57.5065 1529.0
57.55 1503.0
57.5934 1483.0
57.6369 1527.0
57.6804 1442.0
57.7238 1379.0
57.7673 1426.0
57.8108 1406.0
57.8542 1387.0
57.8977 1293.0
57.9412 1391.0
57.9846 1379.0
58.0281 1320.0
58.0716 1285.0
58.115 1246.0
58.1585 1319.0
58.2019 1286.0
58.2454 1311.0
58.2889 1380.0
58.3323 1268.0
58.3758 1237.0
58.4193 1228.0
58.4627 1305.0
58.5062 1284.0
58.5497 1233.0
58.5931 1179.0
58.6366 1164.0
58.6801 1202.0
58.7235 1140.0
58.767 1198.0
58.8105 1123.0
58.8539 1090.0
58.8974 1131.0
58.9409 1121.0
58.9843 1089.0
59.0278 1122.0
59.0713 1026.0
59.1147 1121.0
59.1582 1146.0
59.2017 1192.0
59.2451 1144.0
59.2886 1225.0
59.3321 1145.0
59.3755 1162.0
59.419 1147.0
59.4625 1186.0
59.5059 1208.0
59.5494 1155.0
59.5929 1184.0
59.6363 1134.0
59.6798 1183.0
59.7233 1221.0
59.7667 1148.0
59.8102 1264.0
59.8536 1191.0
59.8971 1169.0
59.9406 1205.0
59.984 1190.0
59.9949 1193.0