File: XRD/2025_06_07_Nifedipine_3_60_8min_pXRD.xy
3.00043 43035.0
3.0439 41866.0
3.08736 39373.0
3.13083 37552.0
3.1743 35260.0
3.21776 33485.0
3.26123 31818.0
3.30469 30013.0
3.34816 28360.0
3.39163 26269.0
3.43509 24950.0
3.47856 23344.0
3.52202 22437.0
3.56549 21210.0
3.60895 19637.0
3.65242 18331.0
3.69589 17151.0
3.73935 15842.0
3.78282 15102.0
3.82628 13769.0
3.86975 12917.0
3.91321 12338.0
3.95668 11344.0
4.00015 10678.0
4.04361 9838.0
4.08708 9006.0
4.13054 8329.0
4.17401 7781.0
4.21747 7311.0
4.26094 6638.0
4.30441 6209.0
4.34787 5530.0
4.39134 5174.0
4.4348 4798.0
4.47827 4381.0
4.52173 3985.0
4.5652 3593.0
4.60867 3449.0
4.65213 3174.0
4.6956 2896.0
4.73906 2656.0
4.78253 2512.0
4.826 2472.0
4.86946 2260.0
4.91293 2165.0
4.95639 2216.0
4.99986 2145.0
5.04332 2054.0
5.08679 2032.0
5.13026 2046.0
5.17372 2055.0
5.21719 1977.0
5.26065 2031.0
5.30412 1988.0
5.34758 2002.0
5.39105 1959.0
5.43452 1875.0
5.47798 1774.0
5.52145 1560.0
5.56491 1530.0
5.60838 1389.0
5.65184 1307.0
5.69531 1186.0
5.73878 1175.0
5.78224 1153.0
5.82571 1095.0
5.86917 1086.0
5.91264 1039.0
5.9561 1045.0
5.99957 1008.0
6.04304 1062.0
6.0865 1009.0
6.12997 1030.0
6.17343 985.0
6.2169 938.0
6.26037 892.0
6.30383 927.0
6.3473 853.0
6.39076 866.0
6.43423 841.0
6.47769 903.0
6.52116 832.0
6.56463 806.0
6.60809 759.0
6.65156 790.0
6.69502 776.0
6.73849 776.0
6.78195 803.0
6.82542 738.0
6.86889 674.0
6.91235 717.0
6.95582 701.0
6.99928 682.0
7.04275 653.0
7.08621 689.0
7.12968 670.0
7.17315 727.0
7.21661 701.0
7.26008 759.0
7.30354 739.0
7.34701 764.0
7.39047 855.0
7.43394 943.0
7.47741 1093.0
7.52087 1172.0
7.56434 1290.0
7.6078 1565.0
7.65127 1867.0
7.69474 2095.0
7.7382 2815.0
7.78167 3535.0
7.82513 3713.0
7.8686 3887.0
7.91206 5772.0
7.95553 8021.0
7.999 9203.0
8.04246 7589.0
8.08593 4610.0
8.12939 2165.0
8.17286 1192.0
8.21632 821.0
8.25979 768.0
8.30326 752.0
8.34672 708.0
8.39019 709.0
8.43365 676.0
8.47712 619.0
8.52058 611.0
8.56405 638.0
8.60752 690.0
8.65098 666.0
8.69445 656.0
8.73791 610.0
8.78138 615.0
8.82485 624.0
8.86831 620.0
8.91178 571.0
8.95524 657.0
8.99871 630.0
9.04217 639.0
9.08564 596.0
9.12911 539.0
9.17257 599.0
9.21604 627.0
9.2595 590.0
9.30297 608.0
9.34643 575.0
9.3899 601.0
9.43337 594.0
9.47683 577.0
9.5203 584.0
9.56376 607.0
9.60723 591.0
9.65069 632.0
9.69416 645.0
9.73763 702.0
9.78109 677.0
9.82456 723.0
9.86802 712.0
9.91149 811.0
9.95495 848.0
9.99842 958.0
10.0419 1201.0
10.0854 1368.0
10.1288 1581.0
10.1723 2267.0
10.2157 3101.0
10.2592 3944.0
10.3027 4403.0
10.3461 4580.0
10.3896 4763.0
10.4331 4801.0
10.4765 4070.0
10.52 2484.0
10.5635 1185.0
10.6069 827.0
10.6504 734.0
10.6939 700.0
10.7373 712.0
10.7808 701.0
10.8243 647.0
10.8677 635.0
10.9112 626.0
10.9547 704.0
10.9981 673.0
11.0416 787.0
11.0851 800.0
11.1285 853.0
11.172 971.0
11.2155 1094.0
11.2589 1348.0
11.3024 1640.0
11.3459 1944.0
11.3893 2534.0
11.4328 3654.0
11.4763 4977.0
11.5197 7569.0
11.5632 10297.0
11.6067 13462.0
11.6501 15520.0
11.6936 15859.0
11.7371 11855.0
11.7805 8613.0
11.824 6583.0
11.8674 4235.0
11.9109 3069.0
11.9544 2362.0
11.9978 1512.0
12.0413 1117.0
12.0848 1019.0
12.1282 1148.0
12.1717 1367.0
12.2152 952.0
12.2586 730.0
12.3021 719.0
12.3456 733.0
12.389 705.0
12.4325 640.0
12.476 782.0
12.5194 725.0
12.5629 761.0
12.6064 815.0
12.6498 865.0
12.6933 971.0
12.7368 1006.0
12.7802 1359.0
12.8237 1560.0
12.8672 1971.0
12.9106 2077.0
12.9541 1722.0
12.9976 1241.0
13.041 966.0
13.0845 798.0
13.128 762.0
13.1714 822.0
13.2149 780.0
13.2584 845.0
13.3018 912.0
13.3453 879.0
13.3887 863.0
13.4322 762.0
13.4757 686.0
13.5191 624.0
13.5626 575.0
13.6061 599.0
13.6495 596.0
13.693 644.0
13.7365 599.0
13.7799 620.0
13.8234 565.0
13.8669 617.0
13.9103 614.0
13.9538 593.0
13.9973 653.0
14.0407 584.0
14.0842 630.0
14.1277 676.0
14.1711 655.0
14.2146 735.0
14.2581 724.0
14.3015 840.0
14.345 997.0
14.3885 1237.0
14.4319 1531.0
14.4754 1921.0
14.5189 2432.0
14.5623 2989.0
14.6058 3192.0
14.6493 2756.0
14.6927 2326.0
14.7362 1904.0
14.7797 1236.0
14.8231 885.0
14.8666 716.0
14.9101 631.0
14.9535 687.0
14.997 723.0
15.0404 645.0
15.0839 571.0
15.1274 599.0
15.1708 599.0
15.2143 608.0
15.2578 576.0
15.3012 555.0
15.3447 644.0
15.3882 604.0
15.4316 597.0
15.4751 710.0
15.5186 726.0
15.562 773.0
15.6055 853.0
15.649 1024.0
15.6924 1158.0
15.7359 1474.0
15.7794 1816.0
15.8228 2457.0
15.8663 3837.0
15.9098 6279.0
15.9532 7460.0
15.9967 8138.0
16.0402 10560.0
16.0836 11969.0
16.1271 10587.0
16.1706 7239.0
16.214 3715.0
16.2575 1728.0
16.301 1088.0
16.3444 945.0
16.3879 924.0
16.4314 850.0
16.4748 774.0
16.5183 779.0
16.5618 741.0
16.6052 721.0
16.6487 780.0
16.6921 822.0
16.7356 1009.0
16.7791 1240.0
16.8225 1511.0
16.866 1841.0
16.9095 2199.0
16.9529 2516.0
16.9964 2779.0
17.0399 2601.0
17.0833 2327.0
17.1268 2056.0
17.1703 1635.0
17.2137 1209.0
17.2572 913.0
17.3007 693.0
17.3441 642.0
17.3876 641.0
17.4311 688.0
17.4745 661.0
17.518 715.0
17.5615 656.0
17.6049 740.0
17.6484 697.0
17.6919 753.0
17.7353 853.0
17.7788 878.0
17.8223 917.0
17.8657 927.0
17.9092 1088.0
17.9527 1262.0
17.9961 1666.0
18.0396 2666.0
18.0831 4457.0
18.1265 7244.0
18.17 10616.0
18.2134 13188.0
18.2569 13840.0
18.3004 10661.0
18.3438 5777.0
18.3873 2267.0
18.4308 1268.0
18.4742 1008.0
18.5177 1054.0
18.5612 1051.0
18.6046 1044.0
18.6481 1248.0
18.6916 1635.0
18.735 2394.0
18.7785 3257.0
18.822 3862.0
18.8654 4403.0
18.9089 4798.0
18.9524 4734.0
18.9958 3966.0
19.0393 2593.0
19.0828 1821.0
19.1262 1645.0
19.1697 1731.0
19.2132 2122.0
19.2566 3023.0
19.3001 5258.0
19.3436 7804.0
19.387 9955.0
19.4305 10362.0
19.474 10569.0
19.5174 11225.0
19.5609 11482.0
19.6044 11510.0
19.6478 14101.0
19.6913 17532.0
19.7348 19908.0
19.7782 16259.0
19.8217 9366.0
19.8651 4443.0
19.9086 2998.0
19.9521 2598.0
19.9955 2441.0
20.039 2003.0
20.0825 1508.0
20.1259 1167.0
20.1694 1010.0
20.2129 940.0
20.2563 924.0
20.2998 930.0
20.3433 981.0
20.3867 1057.0
20.4302 1122.0
20.4737 1210.0
20.5171 1228.0
20.5606 1441.0
20.6041 1537.0
20.6475 1252.0
20.691 1132.0
20.7345 1113.0
20.7779 1135.0
20.8214 1275.0
20.8649 1314.0
20.9083 1439.0
20.9518 1685.0
20.9953 1761.0
21.0387 1626.0
21.0822 1438.0
21.1257 1431.0
21.1691 1444.0
21.2126 1561.0
21.2561 1760.0
21.2995 2121.0
21.343 1963.0
21.3864 1540.0
21.4299 1309.0
21.4734 1060.0
21.5168 1089.0
21.5603 1385.0
21.6038 1698.0
21.6472 2265.0
21.6907 2680.0
21.7342 2897.0
21.7776 3322.0
21.8211 3172.0
21.8646 2938.0
21.908 2525.0
21.9515 2002.0
21.995 1737.0
22.0384 1742.0
22.0819 2191.0
22.1254 2666.0
22.1688 2874.0
22.2123 3001.0
22.2558 3099.0
22.2992 3042.0
22.3427 2970.0
22.3862 3096.0
22.4296 3477.0
22.4731 3732.0
22.5166 4002.0
22.56 4665.0
22.6035 5229.0
22.647 4229.0
22.6904 2830.0
22.7339 1806.0
22.7774 1363.0
22.8208 1114.0
22.8643 1094.0
22.9078 1014.0
22.9512 981.0
22.9947 906.0
23.0381 798.0
23.0816 811.0
23.1251 832.0
23.1685 814.0
23.212 811.0
23.2555 845.0
23.2989 888.0
23.3424 953.0
23.3859 1117.0
23.4293 1275.0
23.4728 1395.0
23.5163 1358.0
23.5597 1477.0
23.6032 1460.0
23.6467 1345.0
23.6901 1196.0
23.7336 1143.0
23.7771 1232.0
23.8205 1386.0
23.864 1592.0
23.9075 1998.0
23.9509 2490.0
23.9944 3221.0
24.0379 3740.0
24.0813 5080.0
24.1248 6063.0
24.1683 6271.0
24.2117 6510.0
24.2552 6592.0
24.2987 7165.0
24.3421 7625.0
24.3856 8264.0
24.4291 9239.0
24.4725 11284.0
24.516 15927.0
24.5595 20386.0
24.6029 17603.0
24.6464 10763.0
24.6898 5680.0
24.7333 3491.0
24.7768 3391.0
24.8202 3435.0
24.8637 3168.0
24.9072 2565.0
24.9506 2256.0
24.9941 2017.0
25.0376 1828.0
25.081 1661.0
25.1245 1356.0
25.168 1245.0
25.2114 1195.0
25.2549 1153.0
25.2984 1089.0
25.3418 1227.0
25.3853 1226.0
25.4288 1433.0
25.4722 1772.0
25.5157 2441.0
25.5592 3662.0
25.6026 5574.0
25.6461 7215.0
25.6896 9207.0
25.733 10928.0
25.7765 10279.0
25.82 7701.0
25.8634 4848.0
25.9069 3403.0
25.9504 2841.0
25.9938 2497.0
26.0373 2205.0
26.0808 2199.0
26.1242 2195.0
26.1677 2423.0
26.2111 2500.0
26.2546 2974.0
26.2981 3501.0
26.3415 3632.0
26.385 3467.0
26.4285 3264.0
26.4719 2902.0
26.5154 2345.0
26.5589 2089.0
26.6023 2097.0
26.6458 2324.0
26.6893 2521.0
26.7327 3525.0
26.7762 4312.0
26.8197 5088.0
26.8631 5908.0
26.9066 6436.0
26.9501 6569.0
26.9935 5609.0
27.037 3386.0
27.0805 1966.0
27.1239 1193.0
27.1674 1058.0
27.2109 950.0
27.2543 908.0
27.2978 865.0
27.3413 853.0
27.3847 879.0
27.4282 888.0
27.4717 945.0
27.5151 1171.0
27.5586 1289.0
27.6021 1499.0
27.6455 1693.0
27.689 1830.0
27.7325 1840.0
27.7759 2314.0
27.8194 2665.0
27.8628 2690.0
27.9063 2329.0
27.9498 2183.0
27.9932 2093.0
28.0367 1863.0
28.0802 1538.0
28.1236 1276.0
28.1671 1068.0
28.2106 1081.0
28.254 1125.0
28.2975 1061.0
28.341 1070.0
28.3844 985.0
28.4279 969.0
28.4714 996.0
28.5148 970.0
28.5583 926.0
28.6018 840.0
28.6452 700.0
28.6887 760.0
28.7322 756.0
28.7756 738.0
28.8191 834.0
28.8626 865.0
28.906 1043.0
28.9495 1209.0
28.993 1308.0
29.0364 1204.0
29.0799 1215.0
29.1234 1027.0
29.1668 1048.0
29.2103 879.0
29.2538 890.0
29.2972 830.0
29.3407 948.0
29.3841 1062.0
29.4276 1215.0
29.4711 1391.0
29.5145 1542.0
29.558 1617.0
29.6015 1353.0
29.6449 1244.0
29.6884 1148.0
29.7319 1203.0
29.7753 1127.0
29.8188 1127.0
29.8623 1114.0
29.9057 1104.0
29.9492 1004.0
29.9927 892.0
30.0361 843.0
30.0796 949.0
30.1231 1017.0
30.1665 1074.0
30.21 1161.0
30.2535 1220.0
30.2969 1267.0
30.3404 1260.0
30.3839 1233.0
30.4273 1369.0
30.4708 1445.0
30.5143 1557.0
30.5577 1612.0
30.6012 1595.0
30.6447 1404.0
30.6881 1290.0
30.7316 1129.0
30.7751 1172.0
30.8185 1319.0
30.862 1718.0
30.9055 1732.0
30.9489 1721.0
30.9924 1521.0
31.0358 1361.0
31.0793 1203.0
31.1228 1235.0
31.1662 1352.0
31.2097 1561.0
31.2532 1590.0
31.2966 1738.0
31.3401 1504.0
31.3836 1389.0
31.427 1185.0
31.4705 1034.0
31.514 1142.0
31.5574 1376.0
31.6009 1525.0
31.6444 1557.0
31.6878 1700.0
31.7313 1694.0
31.7748 1797.0
31.8182 1716.0
31.8617 1286.0
31.9052 1157.0
31.9486 907.0
31.9921 860.0
32.0356 745.0
32.079 773.0
32.1225 783.0
32.166 915.0
32.2094 1006.0
32.2529 1141.0
32.2964 1097.0
32.3398 1184.0
32.3833 1316.0
32.4268 1347.0
32.4702 1551.0
32.5137 1578.0
32.5572 1754.0
32.6006 1863.0
32.6441 2004.0
32.6875 1958.0
32.731 1855.0
32.7745 1675.0
32.8179 1444.0
32.8614 1331.0
32.9049 1224.0
32.9483 1027.0
32.9918 931.0
33.0353 975.0
33.0787 1103.0
33.1222 1171.0
33.1657 1147.0
33.2091 1222.0
33.2526 1064.0
33.2961 914.0
33.3395 785.0
33.383 751.0
33.4265 662.0
33.4699 673.0
33.5134 625.0
33.5569 631.0
33.6003 590.0
33.6438 581.0
33.6873 585.0
33.7307 646.0
33.7742 617.0
33.8177 599.0
33.8611 668.0
33.9046 648.0
33.9481 649.0
33.9915 646.0
34.035 584.0
34.0785 616.0
34.1219 600.0
34.1654 716.0
34.2088 784.0
34.2523 810.0
34.2958 856.0
34.3392 831.0
34.3827 801.0
34.4262 857.0
34.4696 868.0
34.5131 984.0
34.5566 992.0
34.6 1026.0
34.6435 985.0
34.687 893.0
34.7304 808.0
34.7739 720.0
34.8174 647.0
34.8608 704.0
34.9043 651.0
34.9478 757.0
34.9912 822.0
35.0347 902.0
35.0782 1065.0
35.1216 1249.0
35.1651 1390.0
35.2086 1553.0
35.252 1444.0
35.2955 1251.0
35.339 1216.0
35.3824 1132.0
35.4259 1308.0
35.4694 1521.0
35.5128 2065.0
35.5563 2849.0
35.5998 3152.0
35.6432 3242.0
35.6867 3280.0
35.7302 3328.0
35.7736 3096.0
35.8171 2285.0
35.8605 1939.0
35.904 1410.0
35.9475 1264.0
35.9909 1219.0
36.0344 1186.0
36.0779 1150.0
36.1213 1126.0
36.1648 1152.0
36.2083 1102.0
36.2517 959.0
36.2952 851.0
36.3387 813.0
36.3821 719.0
36.4256 718.0
36.4691 670.0
36.5125 679.0
36.556 729.0
36.5995 783.0
36.6429 791.0
36.6864 768.0
36.7299 796.0
36.7733 731.0
36.8168 707.0
36.8603 776.0
36.9037 810.0
36.9472 944.0
36.9907 1056.0
37.0341 1138.0
37.0776 1238.0
37.1211 1144.0
37.1645 1140.0
37.208 966.0
37.2515 833.0
37.2949 838.0
37.3384 791.0
37.3818 764.0
37.4253 709.0
37.4688 690.0
37.5122 693.0
37.5557 784.0
37.5992 852.0
37.6426 915.0
37.6861 968.0
37.7296 1021.0
37.773 1116.0
37.8165 1138.0
37.86 1095.0
37.9034 967.0
37.9469 887.0
37.9904 726.0
38.0338 665.0
38.0773 626.0
38.1208 614.0
38.1642 595.0
38.2077 616.0
38.2512 599.0
38.2946 670.0
38.3381 766.0
38.3816 813.0
38.425 953.0
38.4685 1052.0
38.512 1197.0
38.5554 1112.0
38.5989 1133.0
38.6424 1030.0
38.6858 969.0
38.7293 946.0
38.7728 882.0
38.8162 811.0
38.8597 739.0
38.9032 692.0
38.9466 730.0
38.9901 768.0
39.0335 719.0
39.077 823.0
39.1205 836.0
39.1639 876.0
39.2074 1090.0
39.2509 1304.0
39.2943 1249.0
39.3378 1168.0
39.3813 1016.0
39.4247 814.0
39.4682 706.0
39.5117 606.0
39.5551 623.0
39.5986 704.0
39.6421 752.0
39.6855 845.0
39.729 894.0
39.7725 810.0
39.8159 795.0
39.8594 838.0
39.9029 825.0
39.9463 990.0
39.9898 1049.0
40.0333 1237.0
40.0767 1683.0
40.1202 2025.0
40.1637 2031.0
40.2071 1957.0
40.2506 1497.0
40.2941 1175.0
40.3375 880.0
40.381 749.0
40.4245 713.0
40.4679 745.0
40.5114 728.0
40.5548 820.0
40.5983 784.0
40.6418 851.0
40.6852 820.0
40.7287 831.0
40.7722 750.0
40.8156 702.0
40.8591 689.0
40.9026 679.0
40.946 656.0
40.9895 590.0
41.033 640.0
41.0764 584.0
41.1199 609.0
41.1634 642.0
41.2068 599.0
41.2503 575.0
41.2938 566.0
41.3372 527.0
41.3807 586.0
41.4242 605.0
41.4676 592.0
41.5111 622.0
41.5546 624.0
41.598 662.0
41.6415 758.0
41.685 791.0
41.7284 839.0
41.7719 872.0
41.8154 1031.0
41.8588 1294.0
41.9023 1794.0
41.9458 1874.0
41.9892 1841.0
42.0327 1829.0
42.0762 1654.0
42.1196 1463.0
42.1631 1436.0
42.2065 1190.0
42.25 1186.0
42.2935 1098.0
42.3369 968.0
42.3804 936.0
42.4239 934.0
42.4673 829.0
42.5108 798.0
42.5543 746.0
42.5977 785.0
42.6412 778.0
42.6847 846.0
42.7281 857.0
42.7716 1017.0
42.8151 1031.0
42.8585 893.0
42.902 927.0
42.9455 919.0
42.9889 844.0
43.0324 860.0
43.0759 833.0
43.1193 829.0
43.1628 890.0
43.2063 907.0
43.2497 812.0
43.2932 811.0
43.3367 742.0
43.3801 781.0
43.4236 768.0
43.4671 768.0
43.5105 749.0
43.554 718.0
43.5975 676.0
43.6409 648.0
43.6844 605.0
43.7279 627.0
43.7713 619.0
43.8148 657.0
43.8582 708.0
43.9017 727.0
43.9452 799.0
43.9886 931.0
44.0321 970.0
44.0756 992.0
44.119 1097.0
44.1625 1199.0
44.206 1182.0
44.2494 1066.0
44.2929 1012.0
44.3364 894.0
44.3798 873.0
44.4233 881.0
44.4668 1040.0
44.5102 978.0
44.5537 1029.0
44.5972 1068.0
44.6406 1064.0
44.6841 995.0
44.7276 906.0
44.771 873.0
44.8145 787.0
44.858 811.0
44.9014 735.0
44.9449 897.0
44.9884 937.0
45.0318 860.0
45.0753 764.0
45.1188 756.0
45.1622 632.0
45.2057 582.0
45.2492 614.0
45.2926 565.0
45.3361 596.0
45.3795 604.0
45.423 588.0
45.4665 548.0
45.5099 585.0
45.5534 589.0
45.5969 549.0
45.6403 523.0
45.6838 549.0
45.7273 580.0
45.7707 612.0
45.8142 615.0
45.8577 586.0
45.9011 631.0
45.9446 533.0
45.9881 578.0
46.0315 565.0
46.075 628.0
46.1185 672.0
46.1619 665.0
46.2054 692.0
46.2489 691.0
46.2923 698.0
46.3358 625.0
46.3793 655.0
46.4227 591.0
46.4662 549.0
46.5097 528.0
46.5531 569.0
46.5966 559.0
46.6401 535.0
46.6835 626.0
46.727 695.0
46.7705 782.0
46.8139 881.0
46.8574 899.0
46.9009 947.0
46.9443 936.0
46.9878 851.0
47.0312 835.0
47.0747 793.0
47.1182 803.0
47.1616 774.0
47.2051 762.0
47.2486 761.0
47.292 733.0
47.3355 738.0
47.379 715.0
47.4224 705.0
47.4659 687.0
47.5094 645.0
47.5528 662.0
47.5963 676.0
47.6398 655.0
47.6832 700.0
47.7267 674.0
47.7702 686.0
47.8136 611.0
47.8571 612.0
47.9006 592.0
47.944 553.0
47.9875 544.0
48.031 572.0
48.0744 554.0
48.1179 660.0
48.1614 838.0
48.2048 970.0
48.2483 1063.0
48.2918 1067.0
48.3352 1180.0
48.3787 1109.0
48.4222 875.0
48.4656 850.0
48.5091 784.0
48.5525 608.0
48.596 590.0
48.6395 566.0
48.6829 503.0
48.7264 549.0
48.7699 568.0
48.8133 643.0
48.8568 691.0
48.9003 803.0
48.9437 962.0
48.9872 1228.0
49.0307 1312.0
49.0741 1129.0
49.1176 975.0
49.1611 974.0
49.2045 880.0
49.248 695.0
49.2915 657.0
49.3349 552.0
49.3784 590.0
49.4219 547.0
49.4653 556.0
49.5088 568.0
49.5523 546.0
49.5957 565.0
49.6392 563.0
49.6827 591.0
49.7261 597.0
49.7696 589.0
49.8131 645.0
49.8565 692.0
49.9 701.0
49.9435 696.0
49.9869 734.0
50.0304 736.0
50.0739 691.0
50.1173 712.0
50.1608 701.0
50.2042 664.0
50.2477 674.0
50.2912 580.0
50.3346 581.0
50.3781 613.0
50.4216 632.0
50.465 673.0
50.5085 605.0
50.552 570.0
50.5954 609.0
50.6389 591.0
50.6824 644.0
50.7258 670.0
50.7693 580.0
50.8128 549.0
50.8562 562.0
50.8997 509.0
50.9432 482.0
50.9866 459.0
51.0301 465.0
51.0736 450.0
51.117 523.0
51.1605 502.0
51.204 528.0
51.2474 578.0
51.2909 510.0
51.3344 584.0
51.3778 494.0
51.4213 499.0
51.4648 472.0
51.5082 486.0
51.5517 508.0
51.5952 446.0
51.6386 441.0
51.6821 459.0
51.7256 410.0
51.769 490.0
51.8125 504.0
51.8559 465.0
51.8994 493.0
51.9429 449.0
51.9863 483.0
52.0298 499.0
52.0733 497.0
52.1167 442.0
52.1602 479.0
52.2037 433.0
52.2471 438.0
52.2906 435.0
52.3341 409.0
52.3775 456.0
52.421 462.0
52.4645 452.0
52.5079 443.0
52.5514 518.0
52.5949 553.0
52.6383 537.0
52.6818 553.0
52.7253 558.0
52.7687 656.0
52.8122 626.0
52.8557 650.0
52.8991 760.0
52.9426 918.0
52.9861 807.0
53.0295 727.0
53.073 766.0
53.1165 804.0
53.1599 693.0
53.2034 650.0
53.2469 628.0
53.2903 624.0
53.3338 532.0
53.3772 506.0
53.4207 489.0
53.4642 485.0
53.5076 533.0
53.5511 567.0
53.5946 517.0
53.638 557.0
53.6815 618.0
53.725 625.0
53.7684 607.0
53.8119 586.0
53.8554 581.0
53.8988 577.0
53.9423 571.0
53.9858 581.0
54.0292 551.0
54.0727 565.0
54.1162 524.0
54.1596 457.0
54.2031 493.0
54.2466 516.0
54.29 541.0
54.3335 605.0
54.377 598.0
54.4204 553.0
54.4639 551.0
54.5074 526.0
54.5508 467.0
54.5943 460.0
54.6378 412.0
54.6812 426.0
54.7247 397.0
54.7682 433.0
54.8116 388.0
54.8551 419.0
54.8986 386.0
54.942 432.0
54.9855 452.0
55.0289 457.0
55.0724 508.0
55.1159 456.0
55.1593 496.0
55.2028 549.0
55.2463 481.0
55.2897 450.0
55.3332 484.0
55.3767 465.0
55.4201 486.0
55.4636 520.0
55.5071 484.0
55.5505 561.0
55.594 567.0
55.6375 528.0
55.6809 541.0
55.7244 559.0
55.7679 503.0
55.8113 475.0
55.8548 475.0
55.8983 472.0
55.9417 455.0
55.9852 506.0
56.0287 505.0
56.0721 544.0
56.1156 538.0
56.1591 527.0
56.2025 563.0
56.246 494.0
56.2895 501.0
56.3329 496.0
56.3764 474.0
56.4199 460.0
56.4633 462.0
56.5068 456.0
56.5502 430.0
56.5937 431.0
56.6372 461.0
56.6806 442.0
56.7241 470.0
56.7676 430.0
56.811 468.0
56.8545 473.0
56.898 515.0
56.9414 625.0
56.9849 655.0
57.0284 652.0
57.0718 603.0
57.1153 526.0
57.1588 511.0
57.2022 513.0
57.2457 443.0
57.2892 438.0
57.3326 458.0
57.3761 492.0
57.4196 434.0
57.463 435.0
57.5065 440.0
57.55 436.0
57.5934 485.0
57.6369 422.0
57.6804 421.0
57.7238 432.0
57.7673 428.0
57.8108 442.0
57.8542 415.0
57.8977 416.0
57.9412 406.0
57.9846 389.0
58.0281 379.0
58.0716 402.0
58.115 370.0
58.1585 399.0
58.2019 350.0
58.2454 424.0
58.2889 384.0
58.3323 364.0
58.3758 369.0
58.4193 384.0
58.4627 381.0
58.5062 342.0
58.5497 294.0
58.5931 360.0
58.6366 347.0
58.6801 345.0
58.7235 328.0
58.767 358.0
58.8105 333.0
58.8539 323.0
58.8974 347.0
58.9409 340.0
58.9843 291.0
59.0278 333.0
59.0713 375.0
59.1147 335.0
59.1582 338.0
59.2017 363.0
59.2451 353.0
59.2886 383.0
59.3321 374.0
59.3755 340.0
59.419 346.0
59.4625 390.0
59.5059 370.0
59.5494 368.0
59.5929 364.0
59.6363 367.0
59.6798 358.0
59.7233 346.0
59.7667 355.0
59.8102 382.0
59.8536 415.0
59.8971 381.0
59.9406 383.0
59.984 379.0
59.9949 361.0