File: XRD/2025_06_12_aNIF_DSC_3_60_22m_pXRD.xy
3.00043 137375.0
3.0439 131409.0
3.08736 124845.0
3.13083 119600.0
3.1743 112387.0
3.21776 105901.0
3.26123 100146.0
3.30469 94478.0
3.34816 89441.0
3.39163 84465.0
3.43509 79376.0
3.47856 74689.0
3.52202 69899.0
3.56549 66627.0
3.60895 61836.0
3.65242 57826.0
3.69589 54551.0
3.73935 50968.0
3.78282 47723.0
3.82628 44749.0
3.86975 41443.0
3.91321 38893.0
3.95668 36144.0
4.00015 33994.0
4.04361 31360.0
4.08708 29372.0
4.13054 27030.0
4.17401 24947.0
4.21747 23270.0
4.26094 21493.0
4.30441 19784.0
4.34787 18291.0
4.39134 16875.0
4.4348 15677.0
4.47827 14435.0
4.52173 13239.0
4.5652 12153.0
4.60867 11400.0
4.65213 10585.0
4.6956 9759.0
4.73906 9336.0
4.78253 8652.0
4.826 8161.0
4.86946 7793.0
4.91293 7460.0
4.95639 7196.0
4.99986 7171.0
5.04332 7041.0
5.08679 6891.0
5.13026 6939.0
5.17372 6975.0
5.21719 6960.0
5.26065 6833.0
5.30412 7122.0
5.34758 6809.0
5.39105 6661.0
5.43452 6355.0
5.47798 6053.0
5.52145 5781.0
5.56491 5433.0
5.60838 5097.0
5.65184 4816.0
5.69531 4503.0
5.73878 4456.0
5.78224 4263.0
5.82571 4237.0
5.86917 4221.0
5.91264 4177.0
5.9561 4016.0
5.99957 4042.0
6.04304 4007.0
6.0865 3918.0
6.12997 3859.0
6.17343 3743.0
6.2169 3749.0
6.26037 3835.0
6.30383 3705.0
6.3473 3566.0
6.39076 3654.0
6.43423 3650.0
6.47769 3537.0
6.52116 3478.0
6.56463 3406.0
6.60809 3502.0
6.65156 3400.0
6.69502 3438.0
6.73849 3264.0
6.78195 3267.0
6.82542 3295.0
6.86889 3220.0
6.91235 3227.0
6.95582 3188.0
6.99928 3320.0
7.04275 3211.0
7.08621 3344.0
7.12968 3263.0
7.17315 3368.0
7.21661 3392.0
7.26008 3561.0
7.30354 3671.0
7.34701 3832.0
7.39047 3858.0
7.43394 3902.0
7.47741 4067.0
7.52087 3864.0
7.56434 3615.0
7.6078 3421.0
7.65127 3376.0
7.69474 3225.0
7.7382 3249.0
7.78167 3233.0
7.82513 3346.0
7.8686 3249.0
7.91206 3154.0
7.95553 3210.0
7.999 3356.0
8.04246 3340.0
8.08593 3348.0
8.12939 3477.0
8.17286 3406.0
8.21632 3396.0
8.25979 3333.0
8.30326 3525.0
8.34672 3508.0
8.39019 3551.0
8.43365 3623.0
8.47712 3700.0
8.52058 3663.0
8.56405 3650.0
8.60752 3851.0
8.65098 3761.0
8.69445 3911.0
8.73791 4050.0
8.78138 3946.0
8.82485 4056.0
8.86831 4173.0
8.91178 4215.0
8.95524 4441.0
8.99871 4549.0
9.04217 4699.0
9.08564 4778.0
9.12911 4931.0
9.17257 4798.0
9.21604 4733.0
9.2595 4775.0
9.30297 4785.0
9.34643 4703.0
9.3899 4839.0
9.43337 4822.0
9.47683 4840.0
9.5203 4888.0
9.56376 4994.0
9.60723 5046.0
9.65069 5218.0
9.69416 5239.0
9.73763 5299.0
9.78109 5487.0
9.82456 5512.0
9.86802 5486.0
9.91149 5483.0
9.95495 6082.0
9.99842 5916.0
10.0419 5940.0
10.0854 6078.0
10.1288 6257.0
10.1723 6315.0
10.2157 6496.0
10.2592 6434.0
10.3027 6620.0
10.3461 6908.0
10.3896 7256.0
10.4331 7296.0
10.4765 7609.0
10.52 8045.0
10.5635 8507.0
10.6069 8886.0
10.6504 9415.0
10.6939 10051.0
10.7373 10110.0
10.7808 10241.0
10.8243 9882.0
10.8677 9358.0
10.9112 9116.0
10.9547 8983.0
10.9981 8875.0
11.0416 8809.0
11.0851 8905.0
11.1285 8830.0
11.172 8801.0
11.2155 8900.0
11.2589 9021.0
11.3024 9037.0
11.3459 9037.0
11.3893 9231.0
11.4328 9184.0
11.4763 9174.0
11.5197 8894.0
11.5632 9149.0
11.6067 9089.0
11.6501 9147.0
11.6936 9234.0
11.7371 9053.0
11.7805 9268.0
11.824 9233.0
11.8674 9194.0
11.9109 9422.0
11.9544 9552.0
11.9978 9315.0
12.0413 9439.0
12.0848 9615.0
12.1282 9744.0
12.1717 9825.0
12.2152 9918.0
12.2586 9856.0
12.3021 9905.0
12.3456 9923.0
12.389 9578.0
12.4325 9383.0
12.476 9235.0
12.5194 9114.0
12.5629 8955.0
12.6064 8989.0
12.6498 8936.0
12.6933 9144.0
12.7368 8921.0
12.7802 9074.0
12.8237 8946.0
12.8672 8980.0
12.9106 8644.0
12.9541 8590.0
12.9976 8243.0
13.041 8110.0
13.0845 7990.0
13.128 8044.0
13.1714 7669.0
13.2149 7757.0
13.2584 7546.0
13.3018 7694.0
13.3453 7479.0
13.3887 7323.0
13.4322 7270.0
13.4757 7074.0
13.5191 7138.0
13.5626 7144.0
13.6061 7104.0
13.6495 6825.0
13.693 6921.0
13.7365 6730.0
13.7799 6675.0
13.8234 6496.0
13.8669 6443.0
13.9103 6516.0
13.9538 6502.0
13.9973 6376.0
14.0407 6424.0
14.0842 6077.0
14.1277 6257.0
14.1711 6362.0
14.2146 6166.0
14.2581 5965.0
14.3015 5914.0
14.345 6018.0
14.3885 6063.0
14.4319 5930.0
14.4754 5875.0
14.5189 5809.0
14.5623 5747.0
14.6058 5883.0
14.6493 5815.0
14.6927 5775.0
14.7362 5808.0
14.7797 5924.0
14.8231 5772.0
14.8666 5954.0
14.9101 5883.0
14.9535 5660.0
14.997 5680.0
15.0404 5473.0
15.0839 5327.0
15.1274 5223.0
15.1708 5213.0
15.2143 5125.0
15.2578 5194.0
15.3012 5091.0
15.3447 5096.0
15.3882 4838.0
15.4316 5034.0
15.4751 5105.0
15.5186 5093.0
15.562 4992.0
15.6055 5044.0
15.649 4963.0
15.6924 4875.0
15.7359 4876.0
15.7794 4758.0
15.8228 4767.0
15.8663 4864.0
15.9098 4657.0
15.9532 4792.0
15.9967 4738.0
16.0402 4806.0
16.0836 4632.0
16.1271 4557.0
16.1706 4726.0
16.214 4589.0
16.2575 4610.0
16.301 4597.0
16.3444 4654.0
16.3879 4756.0
16.4314 4743.0
16.4748 4760.0
16.5183 4961.0
16.5618 4863.0
16.6052 5013.0
16.6487 5218.0
16.6921 5408.0
16.7356 5649.0
16.7791 6046.0
16.8225 6269.0
16.866 6689.0
16.9095 7254.0
16.9529 7308.0
16.9964 6781.0
17.0399 6163.0
17.0833 5536.0
17.1268 5086.0
17.1703 4969.0
17.2137 4854.0
17.2572 4968.0
17.3007 4802.0
17.3441 4787.0
17.3876 4918.0
17.4311 4948.0
17.4745 5003.0
17.518 4976.0
17.5615 5217.0
17.6049 5013.0
17.6484 5235.0
17.6919 5216.0
17.7353 5156.0
17.7788 5142.0
17.8223 5286.0
17.8657 5248.0
17.9092 5259.0
17.9527 5248.0
17.9961 5352.0
18.0396 5373.0
18.0831 5324.0
18.1265 5614.0
18.17 5797.0
18.2134 5820.0
18.2569 6031.0
18.3004 5809.0
18.3438 6021.0
18.3873 6037.0
18.4308 5989.0
18.4742 6125.0
18.5177 6243.0
18.5612 6014.0
18.6046 5945.0
18.6481 5911.0
18.6916 5859.0
18.735 5978.0
18.7785 6097.0
18.822 5988.0
18.8654 6212.0
18.9089 6124.0
18.9524 6213.0
18.9958 6462.0
19.0393 6480.0
19.0828 6667.0
19.1262 6587.0
19.1697 6650.0
19.2132 6558.0
19.2566 6571.0
19.3001 6594.0
19.3436 6898.0
19.387 7030.0
19.4305 7220.0
19.474 7507.0
19.5174 7567.0
19.5609 7937.0
19.6044 7895.0
19.6478 7812.0
19.6913 7857.0
19.7348 7643.0
19.7782 7918.0
19.8217 8088.0
19.8651 8239.0
19.9086 8517.0
19.9521 8857.0
19.9955 9322.0
20.039 9369.0
20.0825 9077.0
20.1259 8676.0
20.1694 8159.0
20.2129 8065.0
20.2563 7959.0
20.2998 7876.0
20.3433 7899.0
20.3867 7855.0
20.4302 8022.0
20.4737 7817.0
20.5171 7879.0
20.5606 7982.0
20.6041 8179.0
20.6475 7991.0
20.691 8154.0
20.7345 8261.0
20.7779 8222.0
20.8214 8358.0
20.8649 8455.0
20.9083 8633.0
20.9518 8833.0
20.9953 8614.0
21.0387 8648.0
21.0822 8712.0
21.1257 8840.0
21.1691 8844.0
21.2126 8757.0
21.2561 8764.0
21.2995 8871.0
21.343 8894.0
21.3864 9127.0
21.4299 9225.0
21.4734 9392.0
21.5168 9366.0
21.5603 9400.0
21.6038 9595.0
21.6472 9613.0
21.6907 9612.0
21.7342 9599.0
21.7776 9528.0
21.8211 9529.0
21.8646 9308.0
21.908 9205.0
21.9515 9147.0
21.995 9183.0
22.0384 9036.0
22.0819 8915.0
22.1254 8980.0
22.1688 9031.0
22.2123 9107.0
22.2558 9475.0
22.2992 9354.0
22.3427 9793.0
22.3862 9830.0
22.4296 10017.0
22.4731 9905.0
22.5166 9764.0
22.56 9340.0
22.6035 9235.0
22.647 9094.0
22.6904 8879.0
22.7339 8801.0
22.7774 8732.0
22.8208 8622.0
22.8643 8651.0
22.9078 8675.0
22.9512 8640.0
22.9947 8652.0
23.0381 8645.0
23.0816 8665.0
23.1251 8592.0
23.1685 8817.0
23.212 8697.0
23.2555 8731.0
23.2989 8420.0
23.3424 8397.0
23.3859 8311.0
23.4293 8286.0
23.4728 8336.0
23.5163 8235.0
23.5597 8346.0
23.6032 8261.0
23.6467 8297.0
23.6901 8386.0
23.7336 8412.0
23.7771 8445.0
23.8205 8779.0
23.864 8916.0
23.9075 9282.0
23.9509 9950.0
23.9944 10986.0
24.0379 11995.0
24.0813 13249.0
24.1248 14571.0
24.1683 16338.0
24.2117 16782.0
24.2552 15749.0
24.2987 13693.0
24.3421 11291.0
24.3856 9370.0
24.4291 8558.0
24.4725 8052.0
24.516 7727.0
24.5595 7720.0
24.6029 7618.0
24.6464 7612.0
24.6898 7506.0
24.7333 7672.0
24.7768 7556.0
24.8202 7406.0
24.8637 7312.0
24.9072 7152.0
24.9506 7131.0
24.9941 6958.0
25.0376 6863.0
25.081 6910.0
25.1245 6903.0
25.168 7109.0
25.2114 6960.0
25.2549 6978.0
25.2984 7037.0
25.3418 7160.0
25.3853 7115.0
25.4288 7015.0
25.4722 7104.0
25.5157 7124.0
25.5592 7143.0
25.6026 7176.0
25.6461 7023.0
25.6896 6957.0
25.733 6826.0
25.7765 6864.0
25.82 6818.0
25.8634 6671.0
25.9069 6454.0
25.9504 6432.0
25.9938 6313.0
26.0373 6279.0
26.0808 6353.0
26.1242 6459.0
26.1677 6849.0
26.2111 7045.0
26.2546 6984.0
26.2981 7022.0
26.3415 6868.0
26.385 6597.0
26.4285 6221.0
26.4719 6124.0
26.5154 5864.0
26.5589 5759.0
26.6023 5696.0
26.6458 5569.0
26.6893 5553.0
26.7327 5556.0
26.7762 5495.0
26.8197 5452.0
26.8631 5377.0
26.9066 5381.0
26.9501 5263.0
26.9935 5211.0
27.037 5077.0
27.0805 5172.0
27.1239 5248.0
27.1674 5089.0
27.2109 5173.0
27.2543 5102.0
27.2978 5052.0
27.3413 4757.0
27.3847 4965.0
27.4282 4899.0
27.4717 4964.0
27.5151 4845.0
27.5586 4843.0
27.6021 4905.0
27.6455 4900.0
27.689 4800.0
27.7325 4763.0
27.7759 4791.0
27.8194 4741.0
27.8628 4654.0
27.9063 4637.0
27.9498 4611.0
27.9932 4772.0
28.0367 4690.0
28.0802 4636.0
28.1236 4777.0
28.1671 4808.0
28.2106 4759.0
28.254 4816.0
28.2975 4496.0
28.341 4496.0
28.3844 4478.0
28.4279 4409.0
28.4714 4452.0
28.5148 4588.0
28.5583 4413.0
28.6018 4394.0
28.6452 4363.0
28.6887 4470.0
28.7322 4418.0
28.7756 4234.0
28.8191 4319.0
28.8626 4192.0
28.906 4205.0
28.9495 4268.0
28.993 4249.0
29.0364 4249.0
29.0799 4125.0
29.1234 4151.0
29.1668 4203.0
29.2103 4224.0
29.2538 4099.0
29.2972 4083.0
29.3407 4102.0
29.3841 4023.0
29.4276 4074.0
29.4711 4040.0
29.5145 4061.0
29.558 4098.0
29.6015 3972.0
29.6449 3940.0
29.6884 3934.0
29.7319 3959.0
29.7753 3883.0
29.8188 3940.0
29.8623 4003.0
29.9057 3927.0
29.9492 3887.0
29.9927 3882.0
30.0361 3848.0
30.0796 3959.0
30.1231 3897.0
30.1665 3859.0
30.21 3748.0
30.2535 3618.0
30.2969 3679.0
30.3404 3501.0
30.3839 3604.0
30.4273 3695.0
30.4708 3551.0
30.5143 3661.0
30.5577 3485.0
30.6012 3598.0
30.6447 3548.0
30.6881 3557.0
30.7316 3517.0
30.7751 3546.0
30.8185 3516.0
30.862 3515.0
30.9055 3519.0
30.9489 3568.0
30.9924 3513.0
31.0358 3468.0
31.0793 3487.0
31.1228 3529.0
31.1662 3452.0
31.2097 3342.0
31.2532 3414.0
31.2966 3387.0
31.3401 3396.0
31.3836 3454.0
31.427 3325.0
31.4705 3435.0
31.514 3275.0
31.5574 3377.0
31.6009 3348.0
31.6444 3274.0
31.6878 3241.0
31.7313 3237.0
31.7748 3390.0
31.8182 3260.0
31.8617 3357.0
31.9052 3280.0
31.9486 3331.0
31.9921 3283.0
32.0356 3177.0
32.079 3143.0
32.1225 3289.0
32.166 3120.0
32.2094 3229.0
32.2529 3259.0
32.2964 3306.0
32.3398 3218.0
32.3833 3299.0
32.4268 3185.0
32.4702 3227.0
32.5137 3202.0
32.5572 3159.0
32.6006 3090.0
32.6441 3182.0
32.6875 3056.0
32.731 3170.0
32.7745 3137.0
32.8179 3099.0
32.8614 3203.0
32.9049 3045.0
32.9483 3106.0
32.9918 3122.0
33.0353 3071.0
33.0787 3207.0
33.1222 2984.0
33.1657 3037.0
33.2091 3120.0
33.2526 3030.0
33.2961 3076.0
33.3395 2979.0
33.383 3062.0
33.4265 3012.0
33.4699 2994.0
33.5134 3012.0
33.5569 2892.0
33.6003 2966.0
33.6438 2982.0
33.6873 2916.0
33.7307 2829.0
33.7742 3040.0
33.8177 2964.0
33.8611 2906.0
33.9046 2954.0
33.9481 2994.0
33.9915 2925.0
34.035 3029.0
34.0785 2998.0
34.1219 2969.0
34.1654 2973.0
34.2088 3027.0
34.2523 2881.0
34.2958 2991.0
34.3392 2873.0
34.3827 2804.0
34.4262 2849.0
34.4696 2793.0
34.5131 2854.0
34.5566 2793.0
34.6 2883.0
34.6435 2845.0
34.687 2844.0
34.7304 2877.0
34.7739 2740.0
34.8174 2817.0
34.8608 2867.0
34.9043 2855.0
34.9478 2874.0
34.9912 2807.0
35.0347 2788.0
35.0782 2916.0
35.1216 2788.0
35.1651 2906.0
35.2086 2787.0
35.252 2867.0
35.2955 2898.0
35.339 2881.0
35.3824 2884.0
35.4259 2789.0
35.4694 2883.0
35.5128 2902.0
35.5563 2878.0
35.5998 2750.0
35.6432 2895.0
35.6867 2861.0
35.7302 2755.0
35.7736 2766.0
35.8171 2764.0
35.8605 2769.0
35.904 2677.0
35.9475 2706.0
35.9909 2848.0
36.0344 2761.0
36.0779 2755.0
36.1213 2711.0
36.1648 2617.0
36.2083 2656.0
36.2517 2644.0
36.2952 2760.0
36.3387 2744.0
36.3821 2710.0
36.4256 2737.0
36.4691 2715.0
36.5125 2710.0
36.556 2764.0
36.5995 2738.0
36.6429 2741.0
36.6864 2639.0
36.7299 2767.0
36.7733 2678.0
36.8168 2626.0
36.8603 2788.0
36.9037 2772.0
36.9472 2732.0
36.9907 2756.0
37.0341 2810.0
37.0776 2647.0
37.1211 2736.0
37.1645 2667.0
37.208 2681.0
37.2515 2648.0
37.2949 2770.0
37.3384 2684.0
37.3818 2748.0
37.4253 2681.0
37.4688 2602.0
37.5122 2626.0
37.5557 2687.0
37.5992 2617.0
37.6426 2723.0
37.6861 2714.0
37.7296 2643.0
37.773 2564.0
37.8165 2592.0
37.86 2538.0
37.9034 2583.0
37.9469 2612.0
37.9904 2666.0
38.0338 2598.0
38.0773 2601.0
38.1208 2570.0
38.1642 2556.0
38.2077 2662.0
38.2512 2594.0
38.2946 2632.0
38.3381 2634.0
38.3816 2587.0
38.425 2517.0
38.4685 2627.0
38.512 2520.0
38.5554 2609.0
38.5989 2601.0
38.6424 2651.0
38.6858 2601.0
38.7293 2576.0
38.7728 2685.0
38.8162 2628.0
38.8597 2716.0
38.9032 2625.0
38.9466 2697.0
38.9901 2692.0
39.0335 2668.0
39.077 2584.0
39.1205 2540.0
39.1639 2489.0
39.2074 2602.0
39.2509 2569.0
39.2943 2569.0
39.3378 2554.0
39.3813 2567.0
39.4247 2503.0
39.4682 2520.0
39.5117 2548.0
39.5551 2460.0
39.5986 2675.0
39.6421 2620.0
39.6855 2623.0
39.729 2640.0
39.7725 2562.0
39.8159 2502.0
39.8594 2562.0
39.9029 2544.0
39.9463 2572.0
39.9898 2557.0
40.0333 2567.0
40.0767 2626.0
40.1202 2454.0
40.1637 2581.0
40.2071 2576.0
40.2506 2583.0
40.2941 2554.0
40.3375 2536.0
40.381 2506.0
40.4245 2515.0
40.4679 2492.0
40.5114 2563.0
40.5548 2499.0
40.5983 2445.0
40.6418 2468.0
40.6852 2514.0
40.7287 2461.0
40.7722 2584.0
40.8156 2599.0
40.8591 2461.0
40.9026 2469.0
40.946 2463.0
40.9895 2513.0
41.033 2490.0
41.0764 2486.0
41.1199 2467.0
41.1634 2410.0
41.2068 2542.0
41.2503 2495.0
41.2938 2429.0
41.3372 2464.0
41.3807 2531.0
41.4242 2490.0
41.4676 2529.0
41.5111 2426.0
41.5546 2550.0
41.598 2451.0
41.6415 2460.0
41.685 2475.0
41.7284 2485.0
41.7719 2524.0
41.8154 2449.0
41.8588 2585.0
41.9023 2458.0
41.9458 2584.0
41.9892 2516.0
42.0327 2548.0
42.0762 2426.0
42.1196 2537.0
42.1631 2497.0
42.2065 2459.0
42.25 2405.0
42.2935 2525.0
42.3369 2411.0
42.3804 2408.0
42.4239 2404.0
42.4673 2372.0
42.5108 2405.0
42.5543 2438.0
42.5977 2383.0
42.6412 2433.0
42.6847 2466.0
42.7281 2425.0
42.7716 2353.0
42.8151 2360.0
42.8585 2402.0
42.902 2393.0
42.9455 2531.0
42.9889 2322.0
43.0324 2369.0
43.0759 2366.0
43.1193 2441.0
43.1628 2433.0
43.2063 2311.0
43.2497 2350.0
43.2932 2334.0
43.3367 2444.0
43.3801 2289.0
43.4236 2326.0
43.4671 2209.0
43.5105 2251.0
43.554 2363.0
43.5975 2410.0
43.6409 2293.0
43.6844 2193.0
43.7279 2248.0
43.7713 2282.0
43.8148 2305.0
43.8582 2320.0
43.9017 2316.0
43.9452 2271.0
43.9886 2283.0
44.0321 2314.0
44.0756 2325.0
44.119 2411.0
44.1625 2244.0
44.206 2284.0
44.2494 2275.0
44.2929 2313.0
44.3364 2270.0
44.3798 2280.0
44.4233 2198.0
44.4668 2308.0
44.5102 2239.0
44.5537 2322.0
44.5972 2293.0
44.6406 2264.0
44.6841 2302.0
44.7276 2281.0
44.771 2299.0
44.8145 2209.0
44.858 2155.0
44.9014 2232.0
44.9449 2318.0
44.9884 2245.0
45.0318 2228.0
45.0753 2238.0
45.1188 2195.0
45.1622 2220.0
45.2057 2275.0
45.2492 2213.0
45.2926 2170.0
45.3361 2220.0
45.3795 2254.0
45.423 2181.0
45.4665 2176.0
45.5099 2174.0
45.5534 2192.0
45.5969 2122.0
45.6403 2129.0
45.6838 2282.0
45.7273 2131.0
45.7707 2095.0
45.8142 2232.0
45.8577 2209.0
45.9011 2253.0
45.9446 2171.0
45.9881 2110.0
46.0315 2067.0
46.075 2248.0
46.1185 2188.0
46.1619 2165.0
46.2054 2198.0
46.2489 2203.0
46.2923 2154.0
46.3358 2118.0
46.3793 2130.0
46.4227 2150.0
46.4662 2017.0
46.5097 2097.0
46.5531 2153.0
46.5966 2063.0
46.6401 2035.0
46.6835 2092.0
46.727 2080.0
46.7705 2106.0
46.8139 2066.0
46.8574 2151.0
46.9009 2189.0
46.9443 2111.0
46.9878 2236.0
47.0312 2116.0
47.0747 2095.0
47.1182 2075.0
47.1616 2163.0
47.2051 2127.0
47.2486 2144.0
47.292 2043.0
47.3355 2074.0
47.379 2145.0
47.4224 1999.0
47.4659 2005.0
47.5094 2113.0
47.5528 2025.0
47.5963 2107.0
47.6398 2008.0
47.6832 2015.0
47.7267 1971.0
47.7702 2010.0
47.8136 1912.0
47.8571 1941.0
47.9006 1950.0
47.944 1959.0
47.9875 1991.0
48.031 1967.0
48.0744 1903.0
48.1179 1852.0
48.1614 1970.0
48.2048 1885.0
48.2483 1940.0
48.2918 1913.0
48.3352 1933.0
48.3787 1913.0
48.4222 1892.0
48.4656 1879.0
48.5091 1871.0
48.5525 1842.0
48.596 1854.0
48.6395 1930.0
48.6829 1925.0
48.7264 1895.0
48.7699 1861.0
48.8133 1846.0
48.8568 1863.0
48.9003 1805.0
48.9437 1924.0
48.9872 1886.0
49.0307 1830.0
49.0741 1825.0
49.1176 1755.0
49.1611 1824.0
49.2045 1833.0
49.248 1851.0
49.2915 1878.0
49.3349 1856.0
49.3784 1870.0
49.4219 1840.0
49.4653 1829.0
49.5088 1812.0
49.5523 1805.0
49.5957 1793.0
49.6392 1817.0
49.6827 1774.0
49.7261 1761.0
49.7696 1776.0
49.8131 1774.0
49.8565 1760.0
49.9 1782.0
49.9435 1733.0
49.9869 1799.0
50.0304 1790.0
50.0739 1735.0
50.1173 1690.0
50.1608 1751.0
50.2042 1709.0
50.2477 1654.0
50.2912 1742.0
50.3346 1658.0
50.3781 1741.0
50.4216 1746.0
50.465 1694.0
50.5085 1716.0
50.552 1762.0
50.5954 1792.0
50.6389 1685.0
50.6824 1741.0
50.7258 1723.0
50.7693 1700.0
50.8128 1607.0
50.8562 1602.0
50.8997 1702.0
50.9432 1756.0
50.9866 1701.0
51.0301 1627.0
51.0736 1618.0
51.117 1641.0
51.1605 1693.0
51.204 1687.0
51.2474 1609.0
51.2909 1654.0
51.3344 1634.0
51.3778 1667.0
51.4213 1610.0
51.4648 1682.0
51.5082 1637.0
51.5517 1549.0
51.5952 1625.0
51.6386 1659.0
51.6821 1596.0
51.7256 1651.0
51.769 1582.0
51.8125 1570.0
51.8559 1608.0
51.8994 1644.0
51.9429 1561.0
51.9863 1567.0
52.0298 1618.0
52.0733 1509.0
52.1167 1537.0
52.1602 1546.0
52.2037 1546.0
52.2471 1576.0
52.2906 1472.0
52.3341 1481.0
52.3775 1474.0
52.421 1509.0
52.4645 1394.0
52.5079 1462.0
52.5514 1491.0
52.5949 1535.0
52.6383 1448.0
52.6818 1539.0
52.7253 1439.0
52.7687 1554.0
52.8122 1465.0
52.8557 1469.0
52.8991 1393.0
52.9426 1466.0
52.9861 1489.0
53.0295 1454.0
53.073 1514.0
53.1165 1451.0
53.1599 1484.0
53.2034 1489.0
53.2469 1433.0
53.2903 1403.0
53.3338 1461.0
53.3772 1414.0
53.4207 1422.0
53.4642 1498.0
53.5076 1403.0
53.5511 1420.0
53.5946 1408.0
53.638 1376.0
53.6815 1385.0
53.725 1450.0
53.7684 1374.0
53.8119 1387.0
53.8554 1402.0
53.8988 1315.0
53.9423 1460.0
53.9858 1359.0
54.0292 1341.0
54.0727 1383.0
54.1162 1306.0
54.1596 1354.0
54.2031 1375.0
54.2466 1363.0
54.29 1376.0
54.3335 1327.0
54.377 1337.0
54.4204 1356.0
54.4639 1304.0
54.5074 1345.0
54.5508 1396.0
54.5943 1294.0
54.6378 1333.0
54.6812 1312.0
54.7247 1366.0
54.7682 1306.0
54.8116 1348.0
54.8551 1282.0
54.8986 1342.0
54.942 1394.0
54.9855 1312.0
55.0289 1336.0
55.0724 1305.0
55.1159 1302.0
55.1593 1365.0
55.2028 1304.0
55.2463 1331.0
55.2897 1316.0
55.3332 1300.0
55.3767 1325.0
55.4201 1338.0
55.4636 1313.0
55.5071 1293.0
55.5505 1328.0
55.594 1310.0
55.6375 1270.0
55.6809 1343.0
55.7244 1333.0
55.7679 1355.0
55.8113 1332.0
55.8548 1310.0
55.8983 1299.0
55.9417 1370.0
55.9852 1406.0
56.0287 1316.0
56.0721 1245.0
56.1156 1334.0
56.1591 1334.0
56.2025 1348.0
56.246 1284.0
56.2895 1236.0
56.3329 1205.0
56.3764 1246.0
56.4199 1278.0
56.4633 1244.0
56.5068 1293.0
56.5502 1180.0
56.5937 1209.0
56.6372 1297.0
56.6806 1289.0
56.7241 1197.0
56.7676 1225.0
56.811 1199.0
56.8545 1260.0
56.898 1221.0
56.9414 1219.0
56.9849 1252.0
57.0284 1233.0
57.0718 1226.0
57.1153 1173.0
57.1588 1189.0
57.2022 1213.0
57.2457 1241.0
57.2892 1158.0
57.3326 1187.0
57.3761 1195.0
57.4196 1209.0
57.463 1166.0
57.5065 1209.0
57.55 1225.0
57.5934 1178.0
57.6369 1211.0
57.6804 1149.0
57.7238 1162.0
57.7673 1181.0
57.8108 1205.0
57.8542 1146.0
57.8977 1135.0
57.9412 1203.0
57.9846 1211.0
58.0281 1169.0
58.0716 1157.0
58.115 1175.0
58.1585 1163.0
58.2019 1183.0
58.2454 1122.0
58.2889 1201.0
58.3323 1156.0
58.3758 1042.0
58.4193 1130.0
58.4627 1158.0
58.5062 1112.0
58.5497 1180.0
58.5931 1175.0
58.6366 1145.0
58.6801 1133.0
58.7235 1151.0
58.767 1165.0
58.8105 1126.0
58.8539 1096.0
58.8974 1166.0
58.9409 1170.0
58.9843 1152.0
59.0278 1181.0
59.0713 1124.0
59.1147 1117.0
59.1582 1139.0
59.2017 1126.0
59.2451 1171.0
59.2886 1153.0
59.3321 1082.0
59.3755 1131.0
59.419 1139.0
59.4625 1139.0
59.5059 1114.0
59.5494 1133.0
59.5929 1128.0
59.6363 1121.0
59.6798 1178.0
59.7233 1119.0
59.7667 1142.0
59.8102 1056.0
59.8536 1129.0
59.8971 1060.0
59.9406 1135.0
59.984 1109.0
59.9949 1098.0