File: XRD/2025_06_12_Ag_Behenate_3_60_8m_pXRD.xy
3.00043 43040.0
3.0439 41128.0
3.08736 39635.0
3.13083 37433.0
3.1743 35178.0
3.21776 33631.0
3.26123 31588.0
3.30469 29853.0
3.34816 27991.0
3.39163 26433.0
3.43509 24937.0
3.47856 23438.0
3.52202 22112.0
3.56549 20884.0
3.60895 19118.0
3.65242 18291.0
3.69589 17178.0
3.73935 16041.0
3.78282 14826.0
3.82628 13771.0
3.86975 13179.0
3.91321 12172.0
3.95668 11367.0
4.00015 10565.0
4.04361 9866.0
4.08708 8854.0
4.13054 8494.0
4.17401 7906.0
4.21747 7392.0
4.26094 6979.0
4.30441 6645.0
4.34787 6050.0
4.39134 5856.0
4.4348 5761.0
4.47827 5638.0
4.52173 5494.0
4.5652 4784.0
4.60867 4201.0
4.65213 3643.0
4.6956 3229.0
4.73906 2915.0
4.78253 2674.0
4.826 2598.0
4.86946 2361.0
4.91293 2225.0
4.95639 2250.0
4.99986 2218.0
5.04332 2166.0
5.08679 2149.0
5.13026 2114.0
5.17372 2081.0
5.21719 2125.0
5.26065 2071.0
5.30412 2026.0
5.34758 2072.0
5.39105 2116.0
5.43452 1918.0
5.47798 1841.0
5.52145 1787.0
5.56491 1580.0
5.60838 1549.0
5.65184 1561.0
5.69531 1504.0
5.73878 1536.0
5.78224 1529.0
5.82571 1638.0
5.86917 1802.0
5.91264 2028.0
5.9561 2280.0
5.99957 2366.0
6.04304 2292.0
6.0865 1717.0
6.12997 1430.0
6.17343 1178.0
6.2169 992.0
6.26037 962.0
6.30383 866.0
6.3473 847.0
6.39076 882.0
6.43423 797.0
6.47769 782.0
6.52116 772.0
6.56463 731.0
6.60809 777.0
6.65156 718.0
6.69502 717.0
6.73849 674.0
6.78195 677.0
6.82542 652.0
6.86889 629.0
6.91235 649.0
6.95582 603.0
6.99928 674.0
7.04275 668.0
7.08621 667.0
7.12968 713.0
7.17315 743.0
7.21661 852.0
7.26008 844.0
7.30354 1048.0
7.34701 1124.0
7.39047 1401.0
7.43394 1640.0
7.47741 1894.0
7.52087 1926.0
7.56434 1570.0
7.6078 1127.0
7.65127 855.0
7.69474 627.0
7.7382 468.0
7.78167 462.0
7.82513 393.0
7.8686 391.0
7.91206 421.0
7.95553 374.0
7.999 420.0
8.04246 354.0
8.08593 366.0
8.12939 335.0
8.17286 345.0
8.21632 305.0
8.25979 343.0
8.30326 357.0
8.34672 383.0
8.39019 353.0
8.43365 342.0
8.47712 334.0
8.52058 373.0
8.56405 415.0
8.60752 388.0
8.65098 403.0
8.69445 403.0
8.73791 435.0
8.78138 496.0
8.82485 558.0
8.86831 658.0
8.91178 776.0
8.95524 874.0
8.99871 942.0
9.04217 1005.0
9.08564 816.0
9.12911 605.0
9.17257 547.0
9.21604 400.0
9.2595 320.0
9.30297 320.0
9.34643 314.0
9.3899 296.0
9.43337 343.0
9.47683 306.0
9.5203 306.0
9.56376 294.0
9.60723 323.0
9.65069 293.0
9.69416 303.0
9.73763 293.0
9.78109 283.0
9.82456 249.0
9.86802 276.0
9.91149 323.0
9.95495 296.0
9.99842 276.0
10.0419 334.0
10.0854 352.0
10.1288 340.0
10.1723 373.0
10.2157 367.0
10.2592 413.0
10.3027 494.0
10.3461 511.0
10.3896 679.0
10.4331 791.0
10.4765 826.0
10.52 962.0
10.5635 940.0
10.6069 762.0
10.6504 576.0
10.6939 434.0
10.7373 354.0
10.7808 324.0
10.8243 264.0
10.8677 318.0
10.9112 305.0
10.9547 304.0
10.9981 271.0
11.0416 271.0
11.0851 293.0
11.1285 315.0
11.172 303.0
11.2155 278.0
11.2589 268.0
11.3024 299.0
11.3459 283.0
11.3893 266.0
11.4328 280.0
11.4763 275.0
11.5197 269.0
11.5632 267.0
11.6067 275.0
11.6501 273.0
11.6936 297.0
11.7371 304.0
11.7805 280.0
11.824 350.0
11.8674 332.0
11.9109 425.0
11.9544 475.0
11.9978 507.0
12.0413 555.0
12.0848 505.0
12.1282 475.0
12.1717 389.0
12.2152 340.0
12.2586 294.0
12.3021 292.0
12.3456 260.0
12.389 276.0
12.4325 274.0
12.476 279.0
12.5194 246.0
12.5629 256.0
12.6064 263.0
12.6498 298.0
12.6933 245.0
12.7368 256.0
12.7802 293.0
12.8237 235.0
12.8672 274.0
12.9106 262.0
12.9541 276.0
12.9976 289.0
13.041 280.0
13.0845 261.0
13.128 284.0
13.1714 298.0
13.2149 301.0
13.2584 274.0
13.3018 312.0
13.3453 361.0
13.3887 363.0
13.4322 391.0
13.4757 493.0
13.5191 554.0
13.5626 577.0
13.6061 556.0
13.6495 442.0
13.693 385.0
13.7365 313.0
13.7799 278.0
13.8234 289.0
13.8669 248.0
13.9103 265.0
13.9538 268.0
13.9973 264.0
14.0407 271.0
14.0842 243.0
14.1277 237.0
14.1711 223.0
14.2146 249.0
14.2581 259.0
14.3015 268.0
14.345 244.0
14.3885 246.0
14.4319 232.0
14.4754 262.0
14.5189 262.0
14.5623 246.0
14.6058 217.0
14.6493 240.0
14.6927 236.0
14.7362 290.0
14.7797 238.0
14.8231 228.0
14.8666 270.0
14.9101 304.0
14.9535 304.0
14.997 314.0
15.0404 320.0
15.0839 349.0
15.1274 350.0
15.1708 346.0
15.2143 297.0
15.2578 247.0
15.3012 234.0
15.3447 273.0
15.3882 272.0
15.4316 221.0
15.4751 265.0
15.5186 221.0
15.562 244.0
15.6055 243.0
15.649 222.0
15.6924 241.0
15.7359 230.0
15.7794 250.0
15.8228 218.0
15.8663 225.0
15.9098 242.0
15.9532 237.0
15.9967 242.0
16.0402 246.0
16.0836 269.0
16.1271 236.0
16.1706 224.0
16.214 233.0
16.2575 256.0
16.301 267.0
16.3444 268.0
16.3879 250.0
16.4314 279.0
16.4748 312.0
16.5183 323.0
16.5618 362.0
16.6052 388.0
16.6487 399.0
16.6921 316.0
16.7356 326.0
16.7791 285.0
16.8225 257.0
16.866 224.0
16.9095 228.0
16.9529 237.0
16.9964 232.0
17.0399 231.0
17.0833 239.0
17.1268 223.0
17.1703 233.0
17.2137 241.0
17.2572 208.0
17.3007 185.0
17.3441 215.0
17.3876 190.0
17.4311 220.0
17.4745 219.0
17.518 225.0
17.5615 224.0
17.6049 235.0
17.6484 238.0
17.6919 229.0
17.7353 210.0
17.7788 205.0
17.8223 228.0
17.8657 206.0
17.9092 258.0
17.9527 224.0
17.9961 245.0
18.0396 299.0
18.0831 246.0
18.1265 249.0
18.17 245.0
18.2134 277.0
18.2569 238.0
18.3004 244.0
18.3438 245.0
18.3873 246.0
18.4308 222.0
18.4742 245.0
18.5177 242.0
18.5612 259.0
18.6046 221.0
18.6481 234.0
18.6916 236.0
18.735 238.0
18.7785 258.0
18.822 283.0
18.8654 288.0
18.9089 315.0
18.9524 322.0
18.9958 333.0
19.0393 446.0
19.0828 569.0
19.1262 773.0
19.1697 880.0
19.2132 1028.0
19.2566 969.0
19.3001 967.0
19.3436 837.0
19.387 962.0
19.4305 929.0
19.474 935.0
19.5174 854.0
19.5609 654.0
19.6044 535.0
19.6478 465.0
19.6913 402.0
19.7348 375.0
19.7782 390.0
19.8217 335.0
19.8651 280.0
19.9086 288.0
19.9521 257.0
19.9955 299.0
20.039 282.0
20.0825 282.0
20.1259 320.0
20.1694 248.0
20.2129 302.0
20.2563 304.0
20.2998 290.0
20.3433 295.0
20.3867 295.0
20.4302 246.0
20.4737 285.0
20.5171 280.0
20.5606 318.0
20.6041 315.0
20.6475 330.0
20.691 327.0
20.7345 345.0
20.7779 273.0
20.8214 266.0
20.8649 259.0
20.9083 290.0
20.9518 262.0
20.9953 283.0
21.0387 273.0
21.0822 268.0
21.1257 294.0
21.1691 307.0
21.2126 295.0
21.2561 278.0
21.2995 287.0
21.343 257.0
21.3864 289.0
21.4299 236.0
21.4734 286.0
21.5168 294.0
21.5603 261.0
21.6038 284.0
21.6472 276.0
21.6907 297.0
21.7342 311.0
21.7776 315.0
21.8211 344.0
21.8646 355.0
21.908 339.0
21.9515 354.0
21.995 334.0
22.0384 385.0
22.0819 401.0
22.1254 374.0
22.1688 385.0
22.2123 371.0
22.2558 403.0
22.2992 353.0
22.3427 327.0
22.3862 388.0
22.4296 355.0
22.4731 425.0
22.5166 416.0
22.56 422.0
22.6035 491.0
22.647 506.0
22.6904 508.0
22.7339 542.0
22.7774 568.0
22.8208 582.0
22.8643 656.0
22.9078 713.0
22.9512 784.0
22.9947 894.0
23.0381 1012.0
23.0816 920.0
23.1251 823.0
23.1685 645.0
23.212 520.0
23.2555 443.0
23.2989 385.0
23.3424 361.0
23.3859 361.0
23.4293 392.0
23.4728 411.0
23.5163 454.0
23.5597 504.0
23.6032 555.0
23.6467 540.0
23.6901 511.0
23.7336 491.0
23.7771 458.0
23.8205 426.0
23.864 358.0
23.9075 353.0
23.9509 315.0
23.9944 311.0
24.0379 313.0
24.0813 280.0
24.1248 319.0
24.1683 292.0
24.2117 321.0
24.2552 297.0
24.2987 313.0
24.3421 371.0
24.3856 319.0
24.4291 346.0
24.4725 317.0
24.516 339.0
24.5595 339.0
24.6029 360.0
24.6464 336.0
24.6898 344.0
24.7333 319.0
24.7768 324.0
24.8202 310.0
24.8637 317.0
24.9072 346.0
24.9506 371.0
24.9941 393.0
25.0376 363.0
25.081 392.0
25.1245 389.0
25.168 424.0
25.2114 433.0
25.2549 480.0
25.2984 483.0
25.3418 545.0
25.3853 582.0
25.4288 682.0
25.4722 737.0
25.5157 821.0
25.5592 849.0
25.6026 780.0
25.6461 778.0
25.6896 775.0
25.733 705.0
25.7765 544.0
25.82 570.0
25.8634 506.0
25.9069 506.0
25.9504 424.0
25.9938 398.0
26.0373 442.0
26.0808 390.0
26.1242 396.0
26.1677 392.0
26.2111 442.0
26.2546 445.0
26.2981 443.0
26.3415 413.0
26.385 407.0
26.4285 452.0
26.4719 432.0
26.5154 535.0
26.5589 474.0
26.6023 568.0
26.6458 514.0
26.6893 550.0
26.7327 564.0
26.7762 530.0
26.8197 483.0
26.8631 497.0
26.9066 499.0
26.9501 487.0
26.9935 523.0
27.037 512.0
27.0805 523.0
27.1239 538.0
27.1674 563.0
27.2109 618.0
27.2543 553.0
27.2978 611.0
27.3413 641.0
27.3847 649.0
27.4282 591.0
27.4717 603.0
27.5151 658.0
27.5586 602.0
27.6021 632.0
27.6455 626.0
27.689 583.0
27.7325 641.0
27.7759 604.0
27.8194 537.0
27.8628 520.0
27.9063 545.0
27.9498 458.0
27.9932 463.0
28.0367 481.0
28.0802 437.0
28.1236 471.0
28.1671 476.0
28.2106 462.0
28.254 481.0
28.2975 482.0
28.341 412.0
28.3844 411.0
28.4279 431.0
28.4714 438.0
28.5148 449.0
28.5583 474.0
28.6018 455.0
28.6452 437.0
28.6887 427.0
28.7322 449.0
28.7756 450.0
28.8191 449.0
28.8626 433.0
28.906 378.0
28.9495 406.0
28.993 396.0
29.0364 379.0
29.0799 391.0
29.1234 380.0
29.1668 379.0
29.2103 355.0
29.2538 390.0
29.2972 350.0
29.3407 351.0
29.3841 353.0
29.4276 416.0
29.4711 367.0
29.5145 395.0
29.558 387.0
29.6015 376.0
29.6449 417.0
29.6884 356.0
29.7319 374.0
29.7753 367.0
29.8188 371.0
29.8623 363.0
29.9057 400.0
29.9492 413.0
29.9927 428.0
30.0361 377.0
30.0796 404.0
30.1231 410.0
30.1665 392.0
30.21 347.0
30.2535 384.0
30.2969 344.0
30.3404 335.0
30.3839 362.0
30.4273 341.0
30.4708 371.0
30.5143 368.0
30.5577 408.0
30.6012 346.0
30.6447 369.0
30.6881 393.0
30.7316 367.0
30.7751 351.0
30.8185 353.0
30.862 331.0
30.9055 325.0
30.9489 283.0
30.9924 367.0
31.0358 374.0
31.0793 346.0
31.1228 364.0
31.1662 385.0
31.2097 420.0
31.2532 385.0
31.2966 371.0
31.3401 352.0
31.3836 365.0
31.427 323.0
31.4705 317.0
31.514 358.0
31.5574 339.0
31.6009 340.0
31.6444 303.0
31.6878 360.0
31.7313 374.0
31.7748 340.0
31.8182 317.0
31.8617 308.0
31.9052 339.0
31.9486 325.0
31.9921 307.0
32.0356 303.0
32.079 341.0
32.1225 307.0
32.166 319.0
32.2094 304.0
32.2529 342.0
32.2964 345.0
32.3398 351.0
32.3833 337.0
32.4268 395.0
32.4702 373.0
32.5137 368.0
32.5572 401.0
32.6006 398.0
32.6441 407.0
32.6875 417.0
32.731 411.0
32.7745 467.0
32.8179 515.0
32.8614 530.0
32.9049 511.0
32.9483 490.0
32.9918 515.0
33.0353 481.0
33.0787 457.0
33.1222 437.0
33.1657 423.0
33.2091 395.0
33.2526 457.0
33.2961 454.0
33.3395 442.0
33.383 470.0
33.4265 455.0
33.4699 481.0
33.5134 530.0
33.5569 492.0
33.6003 598.0
33.6438 705.0
33.6873 649.0
33.7307 691.0
33.7742 601.0
33.8177 596.0
33.8611 503.0
33.9046 485.0
33.9481 462.0
33.9915 461.0
34.035 414.0
34.0785 422.0
34.1219 389.0
34.1654 383.0
34.2088 375.0
34.2523 375.0
34.2958 302.0
34.3392 358.0
34.3827 367.0
34.4262 351.0
34.4696 345.0
34.5131 362.0
34.5566 345.0
34.6 374.0
34.6435 367.0
34.687 331.0
34.7304 386.0
34.7739 331.0
34.8174 360.0
34.8608 369.0
34.9043 374.0
34.9478 379.0
34.9912 389.0
35.0347 421.0
35.0782 438.0
35.1216 402.0
35.1651 412.0
35.2086 435.0
35.252 411.0
35.2955 394.0
35.339 368.0
35.3824 355.0
35.4259 365.0
35.4694 375.0
35.5128 350.0
35.5563 339.0
35.5998 357.0
35.6432 370.0
35.6867 370.0
35.7302 345.0
35.7736 313.0
35.8171 338.0
35.8605 314.0
35.904 322.0
35.9475 304.0
35.9909 273.0
36.0344 322.0
36.0779 286.0
36.1213 330.0
36.1648 331.0
36.2083 370.0
36.2517 378.0
36.2952 396.0
36.3387 412.0
36.3821 392.0
36.4256 391.0
36.4691 401.0
36.5125 353.0
36.556 360.0
36.5995 335.0
36.6429 383.0
36.6864 359.0
36.7299 328.0
36.7733 332.0
36.8168 248.0
36.8603 317.0
36.9037 308.0
36.9472 323.0
36.9907 331.0
37.0341 334.0
37.0776 333.0
37.1211 336.0
37.1645 279.0
37.208 304.0
37.2515 298.0
37.2949 298.0
37.3384 283.0
37.3818 307.0
37.4253 315.0
37.4688 327.0
37.5122 285.0
37.5557 330.0
37.5992 333.0
37.6426 357.0
37.6861 367.0
37.7296 404.0
37.773 415.0
37.8165 393.0
37.86 408.0
37.9034 409.0
37.9469 410.0
37.9904 379.0
38.0338 349.0
38.0773 315.0
38.1208 323.0
38.1642 337.0
38.2077 319.0
38.2512 288.0
38.2946 332.0
38.3381 326.0
38.3816 304.0
38.425 324.0
38.4685 316.0
38.512 357.0
38.5554 284.0
38.5989 342.0
38.6424 351.0
38.6858 314.0
38.7293 289.0
38.7728 321.0
38.8162 299.0
38.8597 302.0
38.9032 334.0
38.9466 316.0
38.9901 340.0
39.0335 353.0
39.077 358.0
39.1205 377.0
39.1639 413.0
39.2074 371.0
39.2509 438.0
39.2943 367.0
39.3378 402.0
39.3813 355.0
39.4247 392.0
39.4682 352.0
39.5117 317.0
39.5551 300.0
39.5986 314.0
39.6421 317.0
39.6855 328.0
39.729 305.0
39.7725 320.0
39.8159 297.0
39.8594 319.0
39.9029 326.0
39.9463 330.0
39.9898 332.0
40.0333 377.0
40.0767 371.0
40.1202 372.0
40.1637 398.0
40.2071 393.0
40.2506 448.0
40.2941 483.0
40.3375 489.0
40.381 588.0
40.4245 586.0
40.4679 533.0
40.5114 493.0
40.5548 486.0
40.5983 516.0
40.6418 427.0
40.6852 373.0
40.7287 382.0
40.7722 394.0
40.8156 337.0
40.8591 324.0
40.9026 307.0
40.946 302.0
40.9895 295.0
41.033 345.0
41.0764 324.0
41.1199 359.0
41.1634 364.0
41.2068 323.0
41.2503 334.0
41.2938 315.0
41.3372 333.0
41.3807 325.0
41.4242 326.0
41.4676 337.0
41.5111 318.0
41.5546 334.0
41.598 370.0
41.6415 332.0
41.685 328.0
41.7284 350.0
41.7719 370.0
41.8154 395.0
41.8588 362.0
41.9023 399.0
41.9458 398.0
41.9892 346.0
42.0327 338.0
42.0762 337.0
42.1196 314.0
42.1631 311.0
42.2065 319.0
42.25 272.0
42.2935 308.0
42.3369 281.0
42.3804 262.0
42.4239 297.0
42.4673 289.0
42.5108 276.0
42.5543 279.0
42.5977 259.0
42.6412 302.0
42.6847 271.0
42.7281 282.0
42.7716 262.0
42.8151 269.0
42.8585 324.0
42.902 233.0
42.9455 306.0
42.9889 258.0
43.0324 341.0
43.0759 292.0
43.1193 345.0
43.1628 350.0
43.2063 370.0
43.2497 338.0
43.2932 351.0
43.3367 366.0
43.3801 323.0
43.4236 314.0
43.4671 344.0
43.5105 338.0
43.554 319.0
43.5975 316.0
43.6409 305.0
43.6844 264.0
43.7279 309.0
43.7713 268.0
43.8148 291.0
43.8582 266.0
43.9017 280.0
43.9452 291.0
43.9886 280.0
44.0321 295.0
44.0756 278.0
44.119 324.0
44.1625 296.0
44.206 349.0
44.2494 319.0
44.2929 328.0
44.3364 324.0
44.3798 291.0
44.4233 310.0
44.4668 295.0
44.5102 305.0
44.5537 288.0
44.5972 298.0
44.6406 303.0
44.6841 306.0
44.7276 305.0
44.771 325.0
44.8145 300.0
44.858 312.0
44.9014 321.0
44.9449 309.0
44.9884 268.0
45.0318 261.0
45.0753 296.0
45.1188 311.0
45.1622 286.0
45.2057 300.0
45.2492 247.0
45.2926 270.0
45.3361 288.0
45.3795 265.0
45.423 264.0
45.4665 262.0
45.5099 267.0
45.5534 286.0
45.5969 261.0
45.6403 294.0
45.6838 276.0
45.7273 278.0
45.7707 319.0
45.8142 286.0
45.8577 284.0
45.9011 281.0
45.9446 275.0
45.9881 285.0
46.0315 296.0
46.075 284.0
46.1185 288.0
46.1619 302.0
46.2054 313.0
46.2489 293.0
46.2923 290.0
46.3358 309.0
46.3793 322.0
46.4227 293.0
46.4662 300.0
46.5097 289.0
46.5531 293.0
46.5966 308.0
46.6401 341.0
46.6835 304.0
46.727 311.0
46.7705 302.0
46.8139 263.0
46.8574 278.0
46.9009 249.0
46.9443 284.0
46.9878 286.0
47.0312 273.0
47.0747 279.0
47.1182 283.0
47.1616 264.0
47.2051 286.0
47.2486 272.0
47.292 305.0
47.3355 239.0
47.379 233.0
47.4224 241.0
47.4659 261.0
47.5094 229.0
47.5528 264.0
47.5963 259.0
47.6398 277.0
47.6832 264.0
47.7267 260.0
47.7702 260.0
47.8136 241.0
47.8571 261.0
47.9006 257.0
47.944 258.0
47.9875 250.0
48.031 231.0
48.0744 234.0
48.1179 263.0
48.1614 244.0
48.2048 260.0
48.2483 289.0
48.2918 248.0
48.3352 295.0
48.3787 247.0
48.4222 234.0
48.4656 241.0
48.5091 232.0
48.5525 231.0
48.596 258.0
48.6395 221.0
48.6829 261.0
48.7264 236.0
48.7699 239.0
48.8133 227.0
48.8568 230.0
48.9003 226.0
48.9437 269.0
48.9872 282.0
49.0307 256.0
49.0741 261.0
49.1176 266.0
49.1611 286.0
49.2045 263.0
49.248 246.0
49.2915 269.0
49.3349 256.0
49.3784 276.0
49.4219 279.0
49.4653 240.0
49.5088 242.0
49.5523 285.0
49.5957 250.0
49.6392 265.0
49.6827 266.0
49.7261 243.0
49.7696 249.0
49.8131 261.0
49.8565 270.0
49.9 288.0
49.9435 265.0
49.9869 264.0
50.0304 294.0
50.0739 246.0
50.1173 307.0
50.1608 261.0
50.2042 285.0
50.2477 281.0
50.2912 300.0
50.3346 271.0
50.3781 304.0
50.4216 272.0
50.465 289.0
50.5085 273.0
50.552 277.0
50.5954 294.0
50.6389 301.0
50.6824 259.0
50.7258 257.0
50.7693 242.0
50.8128 304.0
50.8562 281.0
50.8997 261.0
50.9432 294.0
50.9866 294.0
51.0301 278.0
51.0736 278.0
51.117 263.0
51.1605 286.0
51.204 257.0
51.2474 297.0
51.2909 276.0
51.3344 292.0
51.3778 303.0
51.4213 314.0
51.4648 293.0
51.5082 300.0
51.5517 303.0
51.5952 335.0
51.6386 303.0
51.6821 277.0
51.7256 279.0
51.769 300.0
51.8125 287.0
51.8559 288.0
51.8994 259.0
51.9429 289.0
51.9863 274.0
52.0298 310.0
52.0733 248.0
52.1167 304.0
52.1602 271.0
52.2037 301.0
52.2471 294.0
52.2906 247.0
52.3341 265.0
52.3775 284.0
52.421 249.0
52.4645 274.0
52.5079 284.0
52.5514 274.0
52.5949 282.0
52.6383 262.0
52.6818 257.0
52.7253 283.0
52.7687 234.0
52.8122 238.0
52.8557 262.0
52.8991 260.0
52.9426 240.0
52.9861 260.0
53.0295 209.0
53.073 263.0
53.1165 266.0
53.1599 237.0
53.2034 266.0
53.2469 276.0
53.2903 258.0
53.3338 265.0
53.3772 263.0
53.4207 277.0
53.4642 298.0
53.5076 269.0
53.5511 279.0
53.5946 257.0
53.638 257.0
53.6815 260.0
53.725 259.0
53.7684 249.0
53.8119 267.0
53.8554 258.0
53.8988 278.0
53.9423 283.0
53.9858 264.0
54.0292 250.0
54.0727 304.0
54.1162 273.0
54.1596 268.0
54.2031 270.0
54.2466 216.0
54.29 234.0
54.3335 246.0
54.377 221.0
54.4204 261.0
54.4639 233.0
54.5074 264.0
54.5508 239.0
54.5943 210.0
54.6378 210.0
54.6812 241.0
54.7247 250.0
54.7682 241.0
54.8116 237.0
54.8551 250.0
54.8986 259.0
54.942 243.0
54.9855 227.0
55.0289 268.0
55.0724 247.0
55.1159 271.0
55.1593 269.0
55.2028 240.0
55.2463 218.0
55.2897 275.0
55.3332 229.0
55.3767 232.0
55.4201 235.0
55.4636 270.0
55.5071 233.0
55.5505 248.0
55.594 220.0
55.6375 228.0
55.6809 258.0
55.7244 250.0
55.7679 287.0
55.8113 244.0
55.8548 265.0
55.8983 262.0
55.9417 242.0
55.9852 267.0
56.0287 258.0
56.0721 227.0
56.1156 256.0
56.1591 233.0
56.2025 224.0
56.246 203.0
56.2895 233.0
56.3329 194.0
56.3764 232.0
56.4199 260.0
56.4633 233.0
56.5068 236.0
56.5502 257.0
56.5937 262.0
56.6372 247.0
56.6806 249.0
56.7241 232.0
56.7676 271.0
56.811 263.0
56.8545 231.0
56.898 241.0
56.9414 227.0
56.9849 231.0
57.0284 238.0
57.0718 215.0
57.1153 217.0
57.1588 223.0
57.2022 238.0
57.2457 220.0
57.2892 213.0
57.3326 193.0
57.3761 214.0
57.4196 220.0
57.463 195.0
57.5065 228.0
57.55 204.0
57.5934 203.0
57.6369 225.0
57.6804 193.0
57.7238 212.0
57.7673 212.0
57.8108 227.0
57.8542 225.0
57.8977 217.0
57.9412 216.0
57.9846 229.0
58.0281 233.0
58.0716 242.0
58.115 262.0
58.1585 242.0
58.2019 233.0
58.2454 257.0
58.2889 230.0
58.3323 230.0
58.3758 217.0
58.4193 235.0
58.4627 233.0
58.5062 227.0
58.5497 211.0
58.5931 232.0
58.6366 207.0
58.6801 213.0
58.7235 189.0
58.767 207.0
58.8105 226.0
58.8539 220.0
58.8974 208.0
58.9409 212.0
58.9843 224.0
59.0278 187.0
59.0713 227.0
59.1147 217.0
59.1582 184.0
59.2017 217.0
59.2451 237.0
59.2886 209.0
59.3321 218.0
59.3755 212.0
59.419 183.0
59.4625 182.0
59.5059 214.0
59.5494 208.0
59.5929 203.0
59.6363 202.0
59.6798 227.0
59.7233 222.0
59.7667 195.0
59.8102 190.0
59.8536 200.0
59.8971 205.0
59.9406 207.0
59.984 179.0
59.9949 200.0