File: XRD/2025_06_03_CBN_SA_Slurry_3_60_8min.xy
3.00043 43202.0
3.0439 41112.0
3.08736 39355.0
3.13083 37823.0
3.1743 35355.0
3.21776 33779.0
3.26123 32033.0
3.30469 29948.0
3.34816 28246.0
3.39163 26682.0
3.43509 25000.0
3.47856 23999.0
3.52202 22413.0
3.56549 21258.0
3.60895 20092.0
3.65242 18782.0
3.69589 17705.0
3.73935 16797.0
3.78282 15739.0
3.82628 14781.0
3.86975 13678.0
3.91321 13164.0
3.95668 12214.0
4.00015 11626.0
4.04361 11106.0
4.08708 10729.0
4.13054 10425.0
4.17401 10366.0
4.21747 10185.0
4.26094 10004.0
4.30441 9800.0
4.34787 9006.0
4.39134 8019.0
4.4348 7130.0
4.47827 6333.0
4.52173 5837.0
4.5652 5419.0
4.60867 5321.0
4.65213 5413.0
4.6956 5368.0
4.73906 5599.0
4.78253 5954.0
4.826 6341.0
4.86946 7247.0
4.91293 8062.0
4.95639 9501.0
4.99986 11258.0
5.04332 12835.0
5.08679 14220.0
5.13026 14927.0
5.17372 14855.0
5.21719 13472.0
5.26065 10943.0
5.30412 8324.0
5.34758 6420.0
5.39105 5561.0
5.43452 5296.0
5.47798 5310.0
5.52145 5413.0
5.56491 5427.0
5.60838 5682.0
5.65184 5652.0
5.69531 5464.0
5.73878 4931.0
5.78224 4271.0
5.82571 3669.0
5.86917 3103.0
5.91264 2752.0
5.9561 2505.0
5.99957 2368.0
6.04304 2328.0
6.0865 2053.0
6.12997 2035.0
6.17343 1967.0
6.2169 1898.0
6.26037 1731.0
6.30383 1784.0
6.3473 1727.0
6.39076 1614.0
6.43423 1529.0
6.47769 1465.0
6.52116 1485.0
6.56463 1382.0
6.60809 1335.0
6.65156 1293.0
6.69502 1232.0
6.73849 1260.0
6.78195 1231.0
6.82542 1243.0
6.86889 1172.0
6.91235 1207.0
6.95582 1202.0
6.99928 1273.0
7.04275 1204.0
7.08621 1165.0
7.12968 1190.0
7.17315 1179.0
7.21661 1222.0
7.26008 1254.0
7.30354 1209.0
7.34701 1097.0
7.39047 1108.0
7.43394 1043.0
7.47741 1033.0
7.52087 1126.0
7.56434 1122.0
7.6078 1183.0
7.65127 1242.0
7.69474 1289.0
7.7382 1311.0
7.78167 1393.0
7.82513 1350.0
7.8686 1213.0
7.91206 1192.0
7.95553 1063.0
7.999 1002.0
8.04246 978.0
8.08593 1032.0
8.12939 1026.0
8.17286 1001.0
8.21632 1031.0
8.25979 1007.0
8.30326 1084.0
8.34672 1127.0
8.39019 1213.0
8.43365 1231.0
8.47712 1269.0
8.52058 1349.0
8.56405 1379.0
8.60752 1270.0
8.65098 1362.0
8.69445 1350.0
8.73791 1275.0
8.78138 1305.0
8.82485 1319.0
8.86831 1416.0
8.91178 1410.0
8.95524 1469.0
8.99871 1481.0
9.04217 1610.0
9.08564 1666.0
9.12911 1711.0
9.17257 1669.0
9.21604 1511.0
9.2595 1535.0
9.30297 1350.0
9.34643 1438.0
9.3899 1363.0
9.43337 1401.0
9.47683 1404.0
9.5203 1424.0
9.56376 1366.0
9.60723 1408.0
9.65069 1316.0
9.69416 1332.0
9.73763 1320.0
9.78109 1371.0
9.82456 1593.0
9.86802 1509.0
9.91149 1747.0
9.95495 1941.0
9.99842 2128.0
10.0419 2394.0
10.0854 2662.0
10.1288 2871.0
10.1723 2900.0
10.2157 2921.0
10.2592 2913.0
10.3027 2822.0
10.3461 2501.0
10.3896 2152.0
10.4331 2083.0
10.4765 2070.0
10.52 2171.0
10.5635 2319.0
10.6069 2475.0
10.6504 2579.0
10.6939 2580.0
10.7373 2499.0
10.7808 2403.0
10.8243 2325.0
10.8677 2196.0
10.9112 2172.0
10.9547 2321.0
10.9981 2677.0
11.0416 2911.0
11.0851 3142.0
11.1285 3478.0
11.172 3764.0
11.2155 3962.0
11.2589 4043.0
11.3024 4053.0
11.3459 4127.0
11.3893 4006.0
11.4328 3937.0
11.4763 3724.0
11.5197 3382.0
11.5632 2883.0
11.6067 2659.0
11.6501 2278.0
11.6936 2199.0
11.7371 2075.0
11.7805 2147.0
11.824 2145.0
11.8674 1997.0
11.9109 1898.0
11.9544 1796.0
11.9978 1823.0
12.0413 1736.0
12.0848 1840.0
12.1282 1881.0
12.1717 2145.0
12.2152 2414.0
12.2586 2819.0
12.3021 3419.0
12.3456 4040.0
12.389 4727.0
12.4325 4914.0
12.476 5225.0
12.5194 5220.0
12.5629 4839.0
12.6064 4221.0
12.6498 3657.0
12.6933 2934.0
12.7368 2519.0
12.7802 2371.0
12.8237 2247.0
12.8672 2355.0
12.9106 2333.0
12.9541 2082.0
12.9976 1976.0
13.041 1932.0
13.0845 1790.0
13.128 1569.0
13.1714 1542.0
13.2149 1466.0
13.2584 1683.0
13.3018 1689.0
13.3453 1789.0
13.3887 1757.0
13.4322 1749.0
13.4757 1740.0
13.5191 1711.0
13.5626 1551.0
13.6061 1535.0
13.6495 1536.0
13.693 1588.0
13.7365 1546.0
13.7799 1641.0
13.8234 1629.0
13.8669 1594.0
13.9103 1619.0
13.9538 1581.0
13.9973 1558.0
14.0407 1606.0
14.0842 1702.0
14.1277 1877.0
14.1711 2169.0
14.2146 2412.0
14.2581 2730.0
14.3015 3017.0
14.345 3290.0
14.3885 3379.0
14.4319 3483.0
14.4754 3369.0
14.5189 3259.0
14.5623 3080.0
14.6058 2715.0
14.6493 2413.0
14.6927 2214.0
14.7362 1955.0
14.7797 1750.0
14.8231 1684.0
14.8666 1621.0
14.9101 1617.0
14.9535 1602.0
14.997 1709.0
15.0404 1768.0
15.0839 1960.0
15.1274 2152.0
15.1708 2294.0
15.2143 2391.0
15.2578 2474.0
15.3012 2527.0
15.3447 2498.0
15.3882 2314.0
15.4316 2295.0
15.4751 2163.0
15.5186 2020.0
15.562 1841.0
15.6055 1797.0
15.649 1811.0
15.6924 1859.0
15.7359 1995.0
15.7794 2071.0
15.8228 2409.0
15.8663 2675.0
15.9098 3050.0
15.9532 3653.0
15.9967 4199.0
16.0402 5012.0
16.0836 5388.0
16.1271 5775.0
16.1706 5712.0
16.214 5479.0
16.2575 4882.0
16.301 4478.0
16.3444 3473.0
16.3879 2870.0
16.4314 2485.0
16.4748 2190.0
16.5183 1890.0
16.5618 1885.0
16.6052 1785.0
16.6487 1950.0
16.6921 2015.0
16.7356 2115.0
16.7791 2352.0
16.8225 2361.0
16.866 2523.0
16.9095 2626.0
16.9529 2650.0
16.9964 2523.0
17.0399 2551.0
17.0833 2321.0
17.1268 2113.0
17.1703 1968.0
17.2137 1846.0
17.2572 1858.0
17.3007 1821.0
17.3441 1846.0
17.3876 1897.0
17.4311 1897.0
17.4745 2075.0
17.518 2098.0
17.5615 2326.0
17.6049 2551.0
17.6484 2715.0
17.6919 2864.0
17.7353 3096.0
17.7788 3220.0
17.8223 3453.0
17.8657 3549.0
17.9092 3781.0
17.9527 4094.0
17.9961 4425.0
18.0396 4764.0
18.0831 5113.0
18.1265 5325.0
18.17 5527.0
18.2134 5899.0
18.2569 6295.0
18.3004 6647.0
18.3438 6729.0
18.3873 6675.0
18.4308 6457.0
18.4742 6117.0
18.5177 5429.0
18.5612 4965.0
18.6046 4060.0
18.6481 3333.0
18.6916 2877.0
18.735 2606.0
18.7785 2471.0
18.822 2490.0
18.8654 2565.0
18.9089 2787.0
18.9524 3005.0
18.9958 3248.0
19.0393 3466.0
19.0828 3591.0
19.1262 3566.0
19.1697 3676.0
19.2132 3623.0
19.2566 3396.0
19.3001 3221.0
19.3436 3197.0
19.387 3034.0
19.4305 3039.0
19.474 3115.0
19.5174 3089.0
19.5609 3100.0
19.6044 2992.0
19.6478 2992.0
19.6913 2886.0
19.7348 2990.0
19.7782 3097.0
19.8217 3189.0
19.8651 3163.0
19.9086 3172.0
19.9521 3206.0
19.9955 2983.0
20.039 2865.0
20.0825 2781.0
20.1259 2821.0
20.1694 3011.0
20.2129 3152.0
20.2563 3575.0
20.2998 3927.0
20.3433 4745.0
20.3867 5272.0
20.4302 5619.0
20.4737 5742.0
20.5171 5719.0
20.5606 5428.0
20.6041 5095.0
20.6475 4446.0
20.691 3831.0
20.7345 3398.0
20.7779 3102.0
20.8214 2921.0
20.8649 2764.0
20.9083 2690.0
20.9518 2624.0
20.9953 2530.0
21.0387 2414.0
21.0822 2358.0
21.1257 2257.0
21.1691 2533.0
21.2126 2564.0
21.2561 2747.0
21.2995 3148.0
21.343 3231.0
21.3864 3406.0
21.4299 3650.0
21.4734 3858.0
21.5168 3872.0
21.5603 4142.0
21.6038 4175.0
21.6472 4309.0
21.6907 4371.0
21.7342 4191.0
21.7776 4116.0
21.8211 3928.0
21.8646 3614.0
21.908 3310.0
21.9515 3051.0
21.995 2902.0
22.0384 2922.0
22.0819 2884.0
22.1254 2761.0
22.1688 2716.0
22.2123 2855.0
22.2558 2851.0
22.2992 3009.0
22.3427 3079.0
22.3862 2965.0
22.4296 2798.0
22.4731 2668.0
22.5166 2452.0
22.56 2160.0
22.6035 2131.0
22.647 2040.0
22.6904 2003.0
22.7339 2085.0
22.7774 2060.0
22.8208 2034.0
22.8643 2047.0
22.9078 2029.0
22.9512 1966.0
22.9947 1959.0
23.0381 1962.0
23.0816 1943.0
23.1251 1895.0
23.1685 1743.0
23.212 1690.0
23.2555 1562.0
23.2989 1581.0
23.3424 1533.0
23.3859 1548.0
23.4293 1551.0
23.4728 1420.0
23.5163 1435.0
23.5597 1542.0
23.6032 1642.0
23.6467 1665.0
23.6901 1678.0
23.7336 1640.0
23.7771 1700.0
23.8205 1758.0
23.864 1910.0
23.9075 2044.0
23.9509 2124.0
23.9944 2110.0
24.0379 2235.0
24.0813 2295.0
24.1248 2156.0
24.1683 2162.0
24.2117 1951.0
24.2552 1911.0
24.2987 1741.0
24.3421 1705.0
24.3856 1618.0
24.4291 1679.0
24.4725 1699.0
24.516 1805.0
24.5595 1927.0
24.6029 2036.0
24.6464 2152.0
24.6898 2258.0
24.7333 2324.0
24.7768 2303.0
24.8202 2295.0
24.8637 2032.0
24.9072 1901.0
24.9506 1722.0
24.9941 1759.0
25.0376 1777.0
25.081 1794.0
25.1245 1857.0
25.168 1816.0
25.2114 1810.0
25.2549 1811.0
25.2984 1687.0
25.3418 1646.0
25.3853 1599.0
25.4288 1490.0
25.4722 1620.0
25.5157 1571.0
25.5592 1629.0
25.6026 1594.0
25.6461 1596.0
25.6896 1664.0
25.733 1595.0
25.7765 1632.0
25.82 1520.0
25.8634 1393.0
25.9069 1382.0
25.9504 1304.0
25.9938 1299.0
26.0373 1305.0
26.0808 1251.0
26.1242 1362.0
26.1677 1338.0
26.2111 1337.0
26.2546 1315.0
26.2981 1332.0
26.3415 1332.0
26.385 1238.0
26.4285 1249.0
26.4719 1203.0
26.5154 1127.0
26.5589 1073.0
26.6023 1157.0
26.6458 1193.0
26.6893 1207.0
26.7327 1283.0
26.7762 1243.0
26.8197 1193.0
26.8631 1359.0
26.9066 1288.0
26.9501 1338.0
26.9935 1397.0
27.037 1438.0
27.0805 1388.0
27.1239 1545.0
27.1674 1565.0
27.2109 1487.0
27.2543 1471.0
27.2978 1461.0
27.3413 1311.0
27.3847 1235.0
27.4282 1232.0
27.4717 1205.0
27.5151 1195.0
27.5586 1257.0
27.6021 1337.0
27.6455 1289.0
27.689 1296.0
27.7325 1210.0
27.7759 1196.0
27.8194 1136.0
27.8628 1150.0
27.9063 1062.0
27.9498 1091.0
27.9932 1060.0
28.0367 1112.0
28.0802 1096.0
28.1236 1105.0
28.1671 1096.0
28.2106 1116.0
28.254 1107.0
28.2975 1045.0
28.341 1064.0
28.3844 1140.0
28.4279 1122.0
28.4714 1176.0
28.5148 1169.0
28.5583 1328.0
28.6018 1245.0
28.6452 1315.0
28.6887 1276.0
28.7322 1342.0
28.7756 1332.0
28.8191 1238.0
28.8626 1201.0
28.906 1104.0
28.9495 1142.0
28.993 1055.0
29.0364 992.0
29.0799 1069.0
29.1234 1092.0
29.1668 1057.0
29.2103 1028.0
29.2538 1052.0
29.2972 941.0
29.3407 966.0
29.3841 901.0
29.4276 887.0
29.4711 830.0
29.5145 849.0
29.558 816.0
29.6015 843.0
29.6449 826.0
29.6884 910.0
29.7319 910.0
29.7753 918.0
29.8188 970.0
29.8623 997.0
29.9057 1020.0
29.9492 988.0
29.9927 1028.0
30.0361 1039.0
30.0796 983.0
30.1231 967.0
30.1665 930.0
30.21 893.0
30.2535 899.0
30.2969 881.0
30.3404 845.0
30.3839 862.0
30.4273 837.0
30.4708 938.0
30.5143 892.0
30.5577 968.0
30.6012 1008.0
30.6447 937.0
30.6881 1002.0
30.7316 1026.0
30.7751 1035.0
30.8185 1099.0
30.862 1083.0
30.9055 1095.0
30.9489 1101.0
30.9924 1016.0
31.0358 1002.0
31.0793 974.0
31.1228 909.0
31.1662 837.0
31.2097 896.0
31.2532 779.0
31.2966 830.0
31.3401 739.0
31.3836 801.0
31.427 774.0
31.4705 836.0
31.514 819.0
31.5574 806.0
31.6009 789.0
31.6444 844.0
31.6878 872.0
31.7313 883.0
31.7748 792.0
31.8182 822.0
31.8617 870.0
31.9052 899.0
31.9486 931.0
31.9921 940.0
32.0356 990.0
32.079 1017.0
32.1225 1066.0
32.166 1027.0
32.2094 982.0
32.2529 983.0
32.2964 948.0
32.3398 901.0
32.3833 930.0
32.4268 895.0
32.4702 814.0
32.5137 900.0
32.5572 931.0
32.6006 999.0
32.6441 957.0
32.6875 981.0
32.731 1029.0
32.7745 916.0
32.8179 949.0
32.8614 878.0
32.9049 824.0
32.9483 836.0
32.9918 796.0
33.0353 766.0
33.0787 750.0
33.1222 779.0
33.1657 769.0
33.2091 707.0
33.2526 736.0
33.2961 723.0
33.3395 726.0
33.383 745.0
33.4265 725.0
33.4699 728.0
33.5134 714.0
33.5569 694.0
33.6003 700.0
33.6438 767.0
33.6873 715.0
33.7307 692.0
33.7742 761.0
33.8177 794.0
33.8611 776.0
33.9046 781.0
33.9481 811.0
33.9915 863.0
34.035 832.0
34.0785 893.0
34.1219 882.0
34.1654 808.0
34.2088 793.0
34.2523 793.0
34.2958 833.0
34.3392 748.0
34.3827 798.0
34.4262 805.0
34.4696 756.0
34.5131 821.0
34.5566 772.0
34.6 894.0
34.6435 821.0
34.687 852.0
34.7304 917.0
34.7739 881.0
34.8174 824.0
34.8608 853.0
34.9043 860.0
34.9478 821.0
34.9912 842.0
35.0347 865.0
35.0782 842.0
35.1216 765.0
35.1651 770.0
35.2086 780.0
35.252 759.0
35.2955 722.0
35.339 726.0
35.3824 685.0
35.4259 721.0
35.4694 715.0
35.5128 754.0
35.5563 737.0
35.5998 711.0
35.6432 731.0
35.6867 688.0
35.7302 718.0
35.7736 757.0
35.8171 779.0
35.8605 749.0
35.904 780.0
35.9475 724.0
35.9909 714.0
36.0344 736.0
36.0779 737.0
36.1213 757.0
36.1648 721.0
36.2083 710.0
36.2517 707.0
36.2952 693.0
36.3387 750.0
36.3821 727.0
36.4256 724.0
36.4691 774.0
36.5125 798.0
36.556 803.0
36.5995 820.0
36.6429 797.0
36.6864 835.0
36.7299 774.0
36.7733 764.0
36.8168 738.0
36.8603 715.0
36.9037 739.0
36.9472 725.0
36.9907 709.0
37.0341 777.0
37.0776 747.0
37.1211 782.0
37.1645 812.0
37.208 835.0
37.2515 818.0
37.2949 988.0
37.3384 993.0
37.3818 978.0
37.4253 1015.0
37.4688 1035.0
37.5122 1026.0
37.5557 976.0
37.5992 943.0
37.6426 860.0
37.6861 878.0
37.7296 842.0
37.773 801.0
37.8165 812.0
37.86 804.0
37.9034 843.0
37.9469 830.0
37.9904 919.0
38.0338 815.0
38.0773 860.0
38.1208 882.0
38.1642 883.0
38.2077 909.0
38.2512 836.0
38.2946 905.0
38.3381 894.0
38.3816 824.0
38.425 776.0
38.4685 841.0
38.512 804.0
38.5554 740.0
38.5989 735.0
38.6424 764.0
38.6858 695.0
38.7293 751.0
38.7728 758.0
38.8162 745.0
38.8597 721.0
38.9032 715.0
38.9466 705.0
38.9901 740.0
39.0335 653.0
39.077 659.0
39.1205 690.0
39.1639 658.0
39.2074 697.0
39.2509 655.0
39.2943 667.0
39.3378 709.0
39.3813 662.0
39.4247 688.0
39.4682 671.0
39.5117 679.0
39.5551 656.0
39.5986 747.0
39.6421 678.0
39.6855 741.0
39.729 676.0
39.7725 730.0
39.8159 727.0
39.8594 665.0
39.9029 696.0
39.9463 717.0
39.9898 736.0
40.0333 696.0
40.0767 752.0
40.1202 726.0
40.1637 732.0
40.2071 685.0
40.2506 756.0
40.2941 721.0
40.3375 729.0
40.381 728.0
40.4245 729.0
40.4679 713.0
40.5114 768.0
40.5548 732.0
40.5983 677.0
40.6418 710.0
40.6852 668.0
40.7287 713.0
40.7722 739.0
40.8156 741.0
40.8591 707.0
40.9026 733.0
40.946 797.0
40.9895 730.0
41.033 712.0
41.0764 735.0
41.1199 738.0
41.1634 688.0
41.2068 711.0
41.2503 690.0
41.2938 686.0
41.3372 728.0
41.3807 689.0
41.4242 721.0
41.4676 758.0
41.5111 677.0
41.5546 716.0
41.598 761.0
41.6415 721.0
41.685 765.0
41.7284 794.0
41.7719 758.0
41.8154 710.0
41.8588 788.0
41.9023 755.0
41.9458 690.0
41.9892 753.0
42.0327 744.0
42.0762 719.0
42.1196 726.0
42.1631 739.0
42.2065 741.0
42.25 787.0
42.2935 796.0
42.3369 792.0
42.3804 781.0
42.4239 753.0
42.4673 749.0
42.5108 748.0
42.5543 732.0
42.5977 770.0
42.6412 715.0
42.6847 747.0
42.7281 718.0
42.7716 759.0
42.8151 707.0
42.8585 670.0
42.902 740.0
42.9455 770.0
42.9889 720.0
43.0324 715.0
43.0759 733.0
43.1193 694.0
43.1628 712.0
43.2063 647.0
43.2497 624.0
43.2932 675.0
43.3367 666.0
43.3801 663.0
43.4236 641.0
43.4671 653.0
43.5105 663.0
43.554 604.0
43.5975 648.0
43.6409 622.0
43.6844 601.0
43.7279 630.0
43.7713 597.0
43.8148 606.0
43.8582 637.0
43.9017 592.0
43.9452 653.0
43.9886 647.0
44.0321 554.0
44.0756 621.0
44.119 629.0
44.1625 608.0
44.206 654.0
44.2494 650.0
44.2929 661.0
44.3364 652.0
44.3798 625.0
44.4233 661.0
44.4668 632.0
44.5102 657.0
44.5537 638.0
44.5972 635.0
44.6406 651.0
44.6841 606.0
44.7276 595.0
44.771 666.0
44.8145 616.0
44.858 614.0
44.9014 648.0
44.9449 615.0
44.9884 660.0
45.0318 648.0
45.0753 575.0
45.1188 623.0
45.1622 576.0
45.2057 598.0
45.2492 562.0
45.2926 583.0
45.3361 623.0
45.3795 563.0
45.423 563.0
45.4665 597.0
45.5099 590.0
45.5534 666.0
45.5969 622.0
45.6403 655.0
45.6838 631.0
45.7273 590.0
45.7707 577.0
45.8142 593.0
45.8577 600.0
45.9011 573.0
45.9446 632.0
45.9881 561.0
46.0315 603.0
46.075 570.0
46.1185 592.0
46.1619 546.0
46.2054 555.0
46.2489 575.0
46.2923 557.0
46.3358 552.0
46.3793 585.0
46.4227 555.0
46.4662 561.0
46.5097 573.0
46.5531 550.0
46.5966 555.0
46.6401 520.0
46.6835 541.0
46.727 583.0
46.7705 554.0
46.8139 542.0
46.8574 543.0
46.9009 590.0
46.9443 584.0
46.9878 542.0
47.0312 565.0
47.0747 581.0
47.1182 615.0
47.1616 553.0
47.2051 559.0
47.2486 551.0
47.292 613.0
47.3355 538.0
47.379 596.0
47.4224 555.0
47.4659 543.0
47.5094 542.0
47.5528 550.0
47.5963 549.0
47.6398 519.0
47.6832 534.0
47.7267 539.0
47.7702 531.0
47.8136 524.0
47.8571 507.0
47.9006 552.0
47.944 501.0
47.9875 468.0
48.031 516.0
48.0744 517.0
48.1179 486.0
48.1614 463.0
48.2048 518.0
48.2483 542.0
48.2918 502.0
48.3352 506.0
48.3787 541.0
48.4222 549.0
48.4656 518.0
48.5091 580.0
48.5525 515.0
48.596 520.0
48.6395 507.0
48.6829 508.0
48.7264 485.0
48.7699 511.0
48.8133 519.0
48.8568 510.0
48.9003 488.0
48.9437 503.0
48.9872 532.0
49.0307 511.0
49.0741 516.0
49.1176 511.0
49.1611 511.0
49.2045 505.0
49.248 533.0
49.2915 501.0
49.3349 508.0
49.3784 512.0
49.4219 473.0
49.4653 472.0
49.5088 466.0
49.5523 524.0
49.5957 473.0
49.6392 483.0
49.6827 504.0
49.7261 483.0
49.7696 498.0
49.8131 499.0
49.8565 485.0
49.9 479.0
49.9435 457.0
49.9869 476.0
50.0304 486.0
50.0739 506.0
50.1173 508.0
50.1608 494.0
50.2042 523.0
50.2477 481.0
50.2912 453.0
50.3346 500.0
50.3781 465.0
50.4216 472.0
50.465 502.0
50.5085 474.0
50.552 475.0
50.5954 467.0
50.6389 447.0
50.6824 468.0
50.7258 497.0
50.7693 465.0
50.8128 478.0
50.8562 463.0
50.8997 488.0
50.9432 471.0
50.9866 496.0
51.0301 511.0
51.0736 549.0
51.117 463.0
51.1605 486.0
51.204 443.0
51.2474 454.0
51.2909 455.0
51.3344 469.0
51.3778 467.0
51.4213 444.0
51.4648 500.0
51.5082 491.0
51.5517 495.0
51.5952 499.0
51.6386 473.0
51.6821 473.0
51.7256 481.0
51.769 449.0
51.8125 440.0
51.8559 490.0
51.8994 440.0
51.9429 435.0
51.9863 476.0
52.0298 461.0
52.0733 462.0
52.1167 431.0
52.1602 445.0
52.2037 423.0
52.2471 452.0
52.2906 415.0
52.3341 437.0
52.3775 430.0
52.421 438.0
52.4645 437.0
52.5079 466.0
52.5514 443.0
52.5949 429.0
52.6383 438.0
52.6818 432.0
52.7253 442.0
52.7687 424.0
52.8122 454.0
52.8557 433.0
52.8991 456.0
52.9426 420.0
52.9861 432.0
53.0295 405.0
53.073 448.0
53.1165 426.0
53.1599 438.0
53.2034 467.0
53.2469 459.0
53.2903 437.0
53.3338 400.0
53.3772 427.0
53.4207 428.0
53.4642 395.0
53.5076 405.0
53.5511 429.0
53.5946 410.0
53.638 385.0
53.6815 413.0
53.725 393.0
53.7684 408.0
53.8119 383.0
53.8554 404.0
53.8988 441.0
53.9423 445.0
53.9858 366.0
54.0292 435.0
54.0727 391.0
54.1162 423.0
54.1596 422.0
54.2031 415.0
54.2466 415.0
54.29 412.0
54.3335 398.0
54.377 461.0
54.4204 420.0
54.4639 484.0
54.5074 427.0
54.5508 401.0
54.5943 432.0
54.6378 401.0
54.6812 429.0
54.7247 409.0
54.7682 399.0
54.8116 359.0
54.8551 411.0
54.8986 403.0
54.942 361.0
54.9855 431.0
55.0289 368.0
55.0724 373.0
55.1159 398.0
55.1593 401.0
55.2028 391.0
55.2463 388.0
55.2897 374.0
55.3332 380.0
55.3767 399.0
55.4201 399.0
55.4636 352.0
55.5071 391.0
55.5505 352.0
55.594 381.0
55.6375 436.0
55.6809 435.0
55.7244 389.0
55.7679 352.0
55.8113 419.0
55.8548 398.0
55.8983 403.0
55.9417 411.0
55.9852 394.0
56.0287 447.0
56.0721 397.0
56.1156 399.0
56.1591 391.0
56.2025 413.0
56.246 395.0
56.2895 364.0
56.3329 372.0
56.3764 379.0
56.4199 377.0
56.4633 358.0
56.5068 410.0
56.5502 397.0
56.5937 366.0
56.6372 364.0
56.6806 377.0
56.7241 376.0
56.7676 359.0
56.811 363.0
56.8545 396.0
56.898 366.0
56.9414 358.0
56.9849 336.0
57.0284 394.0
57.0718 331.0
57.1153 327.0
57.1588 339.0
57.2022 385.0
57.2457 359.0
57.2892 325.0
57.3326 339.0
57.3761 364.0
57.4196 321.0
57.463 331.0
57.5065 352.0
57.55 361.0
57.5934 355.0
57.6369 340.0
57.6804 334.0
57.7238 330.0
57.7673 301.0
57.8108 341.0
57.8542 345.0
57.8977 344.0
57.9412 347.0
57.9846 340.0
58.0281 315.0
58.0716 330.0
58.115 353.0
58.1585 343.0
58.2019 322.0
58.2454 336.0
58.2889 341.0
58.3323 334.0
58.3758 334.0
58.4193 343.0
58.4627 287.0
58.5062 333.0
58.5497 354.0
58.5931 297.0
58.6366 340.0
58.6801 319.0
58.7235 348.0
58.767 315.0
58.8105 332.0
58.8539 313.0
58.8974 312.0
58.9409 340.0
58.9843 357.0
59.0278 309.0
59.0713 301.0
59.1147 305.0
59.1582 312.0
59.2017 335.0
59.2451 335.0
59.2886 339.0
59.3321 311.0
59.3755 305.0
59.419 302.0
59.4625 319.0
59.5059 328.0
59.5494 335.0
59.5929 336.0
59.6363 322.0
59.6798 303.0
59.7233 312.0
59.7667 300.0
59.8102 329.0
59.8536 302.0
59.8971 297.0
59.9406 259.0
59.984 297.0
59.9949 308.0