File: XRD/Figure2_DRdata.dat
r	D(r)_75C	D(r)_25C
0.01	-0.15902	-0.32492
0.03	-0.42903	-0.93336
0.05	-0.56051	-1.42249
0.07	-0.47898	-1.72831
0.09	-0.13465	-1.80809
0.11	0.49167	-1.64514
0.13	1.38615	-1.25039
0.15	2.50308	-0.66066
0.17	3.7696	0.06606
0.19	5.09332	0.85768
0.21	6.37192	1.63657
0.23	7.50372	2.32836
0.25	8.39794	2.87014
0.27	8.98358	3.21696
0.29	9.21598	3.34594
0.31	9.08038	3.25773
0.33	8.5923	2.97522
0.35	7.7947	2.5398
0.37	6.75253	2.00571
0.39	5.54533	1.43333
0.41	4.25878	0.88217
0.43	2.97631	0.40434
0.45	1.77153	0.03927
0.47	0.70245	-0.18982
0.49	-0.1922	-0.27734
0.51	-0.89413	-0.23479
0.53	-1.40432	-0.08813
0.55	-1.73994	0.12633
0.57	-1.92973	0.36701
0.59	-2.0088	0.59259
0.61	-2.01328	0.76718
0.63	-1.97584	0.86465
0.65	-1.9222	0.87154
0.67	-1.86925	0.78821
0.69	-1.8247	0.6282
0.71	-1.78818	0.41584
0.73	-1.75338	0.18241
0.75	-1.71093	-0.03851
0.77	-1.6513	-0.21598
0.79	-1.56749	-0.32627
0.81	-1.45686	-0.35626
0.83	-1.32214	-0.30541
0.85	-1.17125	-0.1859
0.87	-1.01623	-0.02093
0.89	-0.87147	0.15859
0.91	-0.75147	0.31837
0.93	-0.66866	0.42563
0.95	-0.63146	0.45374
0.97	-0.64306	0.38594
0.99	-0.70086	0.21772
1.01	-0.7968	-0.04253
1.03	-0.91836	-0.37455
1.05	-1.05007	-0.74868
1.07	-1.17529	-1.12945
1.09	-1.27788	-1.47947
1.11	-1.34363	-1.76332
1.13	-1.36115	-1.9506
1.15	-1.32222	-2.0181
1.17	-1.22158	-1.9507
1.19	-1.0563	-1.74131
1.21	-0.82502	-1.38997
1.23	-0.52716	-0.90266
1.25	-0.1624	-0.29007
1.27	0.26933	0.43309
1.29	0.76739	1.24834
1.31	1.32958	2.13305
1.33	1.95076	3.05977
1.35	2.62159	3.99565
1.37	3.32735	4.90229
1.39	4.04724	5.7366
1.41	4.75445	6.4527
1.43	5.41712	7.00508
1.45	6.00014	7.35263
1.47	6.46775	7.46316
1.49	6.78669	7.31773
1.51	6.92949	6.91397
1.53	6.87752	6.2679
1.55	6.62343	5.41373
1.57	6.17258	4.40138
1.59	5.54322	3.29207
1.61	4.76546	2.15242
1.63	3.87893	1.04779
1.65	2.92953	0.03585
1.67	1.96552	-0.83882
1.69	1.03349	-1.54829
1.71	0.17459	-2.08255
1.73	-0.57857	-2.44848
1.75	-1.20398	-2.66677
1.77	-1.69112	-2.76727
1.79	-2.04065	-2.78376
1.81	-2.26298	-2.74886
1.83	-2.37613	-2.68986
1.85	-2.40301	-2.62619
1.87	-2.36859	-2.56849
1.89	-2.29732	-2.51961
1.91	-2.21104	-2.47671
1.93	-2.12756	-2.43434
1.95	-2.05989	-2.38743
1.97	-2.01621	-2.33377
1.99	-2.0003	-2.27541
2.01	-2.01232	-2.21872
2.03	-2.04965	-2.17322
2.05	-2.10766	-2.14929
2.07	-2.18029	-2.1554
2.09	-2.26037	-2.19538
2.11	-2.33965	-2.26624
2.13	-2.40878	-2.3571
2.15	-2.45722	-2.44931
2.17	-2.47335	-2.518
2.19	-2.44479	-2.53469
2.21	-2.35915	-2.47067
2.23	-2.20498	-2.30062
2.25	-1.97308	-2.00604
2.27	-1.6579	-1.57794
2.29	-1.2588	-1.01852
2.31	-0.78102	-0.3417
2.33	-0.23626	0.42761
2.35	0.35749	1.25519
2.37	0.97668	2.10017
2.39	1.59363	2.91807
2.41	2.17848	3.66415
2.43	2.70144	4.29668
2.45	3.13517	4.77993
2.47	3.45696	5.0867
2.49	3.65061	5.20022
2.51	3.70759	5.11537
2.53	3.62768	4.8391
2.55	3.41877	4.39006
2.57	3.09602	3.79733
2.59	2.68054	3.09843
2.61	2.19757	2.33653
2.63	1.67453	1.55717
2.65	1.13912	0.8047
2.67	0.61743	0.11877
2.69	0.13249	-0.46886
2.71	-0.29689	-0.93668
2.73	-0.65688	-1.27485
2.75	-0.93891	-1.48539
2.77	-1.13971	-1.58112
2.79	-1.26093	-1.5835
2.81	-1.30856	-1.51965
2.83	-1.29218	-1.4189
2.85	-1.22406	-1.30934
2.87	-1.11816	-1.21481
2.89	-0.98919	-1.1527
2.91	-0.85156	-1.13279
2.93	-0.71855	-1.15721
2.95	-0.60145	-1.22138
2.97	-0.50905	-1.31577
2.99	-0.44718	-1.42809
3.01	-0.41865	-1.54552
3.03	-0.42336	-1.65664
3.05	-0.45872	-1.75293
3.07	-0.52025	-1.82944
3.09	-0.60234	-1.88487
3.11	-0.69901	-1.92099
3.13	-0.8047	-1.94175
3.15	-0.9148	-1.95213
3.17	-1.02607	-1.95713
3.19	-1.13666	-1.96096
3.21	-1.24598	-1.96654
3.23	-1.3543	-1.97531
3.25	-1.46213	-1.98741
3.27	-1.56968	-2.0019
3.29	-1.67626	-2.01711
3.31	-1.77993	-2.0309
3.33	-1.87733	-2.04085
3.35	-1.96381	-2.04427
3.37	-2.03386	-2.03825
3.39	-2.08165	-2.01959
3.41	-2.10181	-1.98494
3.43	-2.09011	-1.93096
3.45	-2.04412	-1.85468
3.47	-1.96354	-1.754
3.49	-1.85037	-1.62811
3.51	-1.70875	-1.47794
3.53	-1.54446	-1.30634
3.55	-1.36435	-1.11802
3.57	-1.17555	-0.91917
3.59	-0.98476	-0.71686
3.61	-0.79766	-0.51824
3.63	-0.61852	-0.3297
3.65	-0.45004	-0.15621
3.67	-0.29349	-8.69994E-4
3.69	-0.14903	0.13516
3.71	-0.01619	0.25239
3.73	0.10563	0.3524
3.75	0.21671	0.43706
3.77	0.31673	0.50777
3.79	0.40461	0.5648
3.81	0.47869	0.60702
3.83	0.537	0.63193
3.85	0.57768	0.63611
3.87	0.59948	0.61606
3.89	0.60213	0.56905
3.91	0.58666	0.4941
3.93	0.55544	0.3926
3.95	0.51206	0.26867
3.97	0.46095	0.12902
3.99	0.4069	-0.01768
4.01	0.35446	-0.16171
4.03	0.3074	-0.29347
4.05	0.26823	-0.40468
4.07	0.23801	-0.48926
4.09	0.21623	-0.54404
4.11	0.2011	-0.56881
4.13	0.18988	-0.5661
4.15	0.17941	-0.54046
4.17	0.16669	-0.49757
4.19	0.14935	-0.44326
4.21	0.12603	-0.38267
4.23	0.09657	-0.31968
4.25	0.06192	-0.25673
4.27	0.02397	-0.19493
4.29	-0.01489	-0.13451
4.31	-0.0522	-0.07542
4.33	-0.08589	-0.01793
4.35	-0.11466	0.03692
4.37	-0.13815	0.08711
4.39	-0.15697	0.12977
4.41	-0.17254	0.16162
4.43	-0.18671	0.17957
4.45	-0.20135	0.18148
4.47	-0.21785	0.16679
4.49	-0.23673	0.13702
4.51	-0.25739	0.09585
4.53	-0.27796	0.04893
4.55	-0.29544	0.00333
4.57	-0.30602	-0.03334
4.59	-0.30552	-0.05386
4.61	-0.28996	-0.05233
4.63	-0.25608	-0.02499
4.65	-0.20191	0.02934
4.67	-0.12703	0.10908
4.69	-0.0328	0.21013
4.71	0.07772	0.32639
4.73	0.2	0.45053
4.75	0.32844	0.57482
4.77	0.45693	0.69194
4.79	0.57938	0.79569
4.81	0.69029	0.88146
4.83	0.78519	0.9464
4.85	0.86093	0.98946
4.87	0.91587	1.01111
4.89	0.94987	1.013
4.91	0.96411	0.99755
4.93	0.96082	0.96754
4.95	0.94293	0.92577
4.97	0.91373	0.87485
4.99	0.87649	0.8171
5.01	0.83416	0.75448
5.03	0.7892	0.68869
5.05	0.74341	0.62126
5.07	0.69793	0.55359
5.09	0.65331	0.48702
5.11	0.60954	0.42283
5.13	0.56629	0.36222
5.15	0.523	0.3062
5.17	0.47906	0.25553
5.19	0.43391	0.21061
5.21	0.38718	0.17145
5.23	0.33872	0.13763
5.25	0.28864	0.10834
5.27	0.23728	0.08251
5.29	0.1852	0.05887
5.31	0.13313	0.03612
5.33	0.08192	0.0131
5.35	0.03246	-0.01109
5.37	-0.01438	-0.03701
5.39	-0.05778	-0.06477
5.41	-0.09705	-0.09408
5.43	-0.13163	-0.12426
5.45	-0.16115	-0.15433
5.47	-0.18542	-0.18311
5.49	-0.20445	-0.2094
5.51	-0.21841	-0.23203
5.53	-0.22763	-0.25003
5.55	-0.23258	-0.26267
5.57	-0.2338	-0.26954
5.59	-0.23185	-0.27048
5.61	-0.22733	-0.26562
5.63	-0.22073	-0.2553
5.65	-0.21251	-0.24001
5.67	-0.20296	-0.22033
5.69	-0.19228	-0.19691
5.71	-0.1805	-0.1704
5.73	-0.16756	-0.14151
5.75	-0.15331	-0.11097
5.77	-0.13754	-0.07959
5.79	-0.12005	-0.04823
5.81	-0.10069	-0.0178
5.83	-0.07944	0.01075
5.85	-0.0564	0.03652
5.87	-0.03186	0.05873
5.89	-0.00626	0.07677
5.91	0.01979	0.09032
5.93	0.04557	0.09935
5.95	0.07031	0.10416
5.97	0.09327	0.1053
5.99	0.11378	0.10351
6.01	0.13134	0.09962
6.03	0.14568	0.09438
6.05	0.15676	0.08842
6.07	0.16478	0.0821
6.09	0.17015	0.07553
6.11	0.17344	0.06859
6.13	0.1753	0.06098
6.15	0.17639	0.05238
6.17	0.17726	0.04253
6.19	0.17833	0.03136
6.21	0.17983	0.01904
6.23	0.18177	0.00604
6.25	0.18399	-0.00696
6.27	0.18621	-0.01912
6.29	0.18808	-0.02959
6.31	0.18924	-0.03764
6.33	0.18946	-0.04272
6.35	0.18862	-0.04459
6.37	0.18676	-0.04328
6.39	0.18409	-0.03908
6.41	0.18094	-0.03242
6.43	0.1777	-0.02377
6.45	0.17474	-0.01357
6.47	0.17233	-0.00212
6.49	0.17056	0.01041
6.51	0.16932	0.02393
6.53	0.16828	0.03835
6.55	0.16689	0.05346
6.57	0.16446	0.06882
6.59	0.16022	0.08366
6.61	0.15343	0.09689
6.63	0.14347	0.10716
6.65	0.12987	0.113
6.67	0.11244	0.11302
6.69	0.09124	0.10615
6.71	0.06659	0.09188
6.73	0.03902	0.07035
6.75	0.00925	0.04249
6.77	-0.02188	0.00989
6.79	-0.0535	-0.02529
6.81	-0.08474	-0.06067
6.83	-0.11474	-0.09386
6.85	-0.14274	-0.12286
6.87	-0.168	-0.14624
6.89	-0.18988	-0.16337
6.91	-0.20781	-0.1744
6.93	-0.2213	-0.18022
6.95	-0.22996	-0.1822
6.97	-0.23352	-0.18198
6.99	-0.2319	-0.18112
7.01	-0.22523	-0.18086
7.03	-0.21388	-0.18191
7.05	-0.19848	-0.18441
7.07	-0.17991	-0.18792
7.09	-0.15922	-0.19159
7.11	-0.13762	-0.19439
7.13	-0.1163	-0.19533
7.15	-0.09639	-0.19369
7.17	-0.07879	-0.18921
7.19	-0.0641	-0.18211
7.21	-0.05256	-0.17313
7.23	-0.04403	-0.16334
7.25	-0.038	-0.15397
7.27	-0.03372	-0.1462
7.29	-0.03027	-0.14094
7.31	-0.02671	-0.13872
7.33	-0.02224	-0.13957
7.35	-0.01631	-0.14306
7.37	-0.00869	-0.14843
7.39	4.59784E-4	-0.15472
7.41	0.01063	-0.16097
7.43	0.021	-0.16637
7.45	0.0306	-0.17042
7.47	0.0384	-0.17299
7.49	0.04346	-0.17427
7.51	0.04506	-0.17474
7.53	0.04282	-0.175
7.55	0.03671	-0.17566
7.57	0.02707	-0.1772
7.59	0.01457	-0.17985
7.61	9.51523E-5	-0.18357
7.63	-0.01533	-0.18808
7.65	-0.03071	-0.19288
7.67	-0.04515	-0.19741
7.69	-0.05797	-0.20113
7.71	-0.06875	-0.20361
7.73	-0.07734	-0.20465
7.75	-0.08388	-0.2042
7.77	-0.08867	-0.20246
7.79	-0.09217	-0.1997
7.81	-0.09485	-0.19626
7.83	-0.09717	-0.1924
7.85	-0.09948	-0.18831
7.87	-0.10198	-0.18399
7.89	-0.1047	-0.17934
7.91	-0.10752	-0.17416
7.93	-0.11021	-0.16824
7.95	-0.11246	-0.16146
7.97	-0.1139	-0.15382
7.99	-0.11425	-0.14551
8.01	-0.11326	-0.1369
8.03	-0.11082	-0.12852
8.05	-0.10691	-0.12095
8.07	-0.10166	-0.11469
8.09	-0.09533	-0.11014
8.11	-0.08822	-0.10742
8.13	-0.0807	-0.10639
8.15	-0.07315	-0.1066
8.17	-0.06589	-0.10738
8.19	-0.05921	-0.10794
8.21	-0.05324	-0.1075
8.23	-0.04805	-0.10541
8.25	-0.04356	-0.10129
8.27	-0.03957	-0.0951
8.29	-0.03584	-0.08716
8.31	-0.03201	-0.07811
8.33	-0.02777	-0.06879
8.35	-0.0228	-0.06013
8.37	-0.01688	-0.05297
8.39	-0.00987	-0.04793
8.41	-0.00179	-0.04528
8.43	0.00724	-0.04488
8.45	0.01696	-0.04621
8.47	0.027	-0.04844
8.49	0.03698	-0.05057
8.51	0.04648	-0.05157
8.53	0.05515	-0.05058
8.55	0.06274	-0.04702
8.57	0.06912	-0.04071
8.59	0.07429	-0.0319
8.61	0.0784	-0.02125
8.63	0.08169	-0.00967
8.65	0.0845	0.00175
8.67	0.08714	0.01196
8.69	0.08989	0.0201
8.71	0.09293	0.02563
8.73	0.09634	0.0284
8.75	0.10001	0.02867
8.77	0.10373	0.02705
8.79	0.10717	0.02441
8.81	0.10992	0.02169
8.83	0.1116	0.01978
8.85	0.11184	0.01938
8.87	0.1104	0.02086
8.89	0.10716	0.02422
8.91	0.10214	0.02913
8.93	0.09553	0.03496
8.95	0.0876	0.04089
8.97	0.07873	0.04611
8.99	0.06932	0.04986
9.01	0.05975	0.05164
9.03	0.05035	0.05123
9.05	0.04137	0.04875
9.07	0.03294	0.04461
9.09	0.02514	0.03945
9.11	0.01794	0.03404
9.13	0.01129	0.02912
9.15	0.00511	0.02531
9.17	-6.52479E-4	0.02301
9.19	-0.00602	0.02233
9.21	-0.01098	0.0231
9.23	-0.01545	0.0249
9.25	-0.01934	0.02716
9.27	-0.02254	0.02919
9.29	-0.02492	0.03039
9.31	-0.02641	0.03028
9.33	-0.02697	0.02859
9.35	-0.02661	0.0253
9.37	-0.02539	0.02065
9.39	-0.02342	0.01507
9.41	-0.02086	0.00913
9.43	-0.01788	0.00343
9.45	-0.01468	-0.00148
9.47	-0.01143	-0.00517
9.49	-0.00831	-0.00743
9.51	-0.00547	-0.00822
9.53	-0.00303	-0.00774
9.55	-0.00106	-0.0063
9.57	3.81542E-4	-0.00435
9.59	0.00132	-0.00234
9.61	0.0018	-6.65894E-4
9.63	0.00196	3.59903E-4
9.65	0.00195	5.82422E-4
9.67	0.00201	-8.58606E-6
9.69	0.00235	-0.00129
9.71	0.00323	-0.00304
9.73	0.00486	-0.00498
9.75	0.00737	-0.00684
9.77	0.01081	-0.00838
9.79	0.01511	-0.00944
9.81	0.02007	-0.00995
9.83	0.02534	-0.0099
9.85	0.0305	-0.00937
9.87	0.03506	-0.00847
9.89	0.03853	-0.00732
9.91	0.0405	-0.00605
9.93	0.04067	-0.00476
9.95	0.0389	-0.00354
9.97	0.03528	-0.00246
9.99	0.03004	-0.00159
10.01	0.02364
10.03	0.01661
10.05	0.00954
10.07	0.00298
10.09	-0.00262
10.11	-0.007
10.13	-0.01008
10.15	-0.01198
10.17	-0.01301
10.19	-0.01358
10.21	-0.01414
10.23	-0.0151
10.25	-0.01672
10.27	-0.01914
10.29	-0.02226
10.31	-0.02582
10.33	-0.02942
10.35	-0.0326
10.37	-0.03488
10.39	-0.03593
10.41	-0.03557
10.43	-0.03381
10.45	-0.03093
10.47	-0.02735
10.49	-0.02366
10.51	-0.02045
10.53	-0.01829
10.55	-0.01758
10.57	-0.01849
10.59	-0.02099
10.61	-0.02473
10.63	-0.02922
10.65	-0.03378
10.67	-0.03776
10.69	-0.04052
10.71	-0.04163
10.73	-0.04087
10.75	-0.03831
10.77	-0.03425
10.79	-0.02922
10.81	-0.02387
10.83	-0.01889
10.85	-0.01486
10.87	-0.01223
10.89	-0.01122
10.91	-0.01178
10.93	-0.01364
10.95	-0.01632
10.97	-0.01925
10.99	-0.02187
11.01	-0.02369
11.03	-0.02438
11.05	-0.02386
11.07	-0.02227
11.09	-0.01997
11.11	-0.01746
11.13	-0.01532
11.15	-0.0141
11.17	-0.01422
11.19	-0.01592
11.21	-0.0192
11.23	-0.02382
11.25	-0.02933
11.27	-0.03514
11.29	-0.04062
11.31	-0.04519
11.33	-0.04839
11.35	-0.04999
11.37	-0.05001
11.39	-0.04869
11.41	-0.0465
11.43	-0.04403
11.45	-0.0419
11.47	-0.04069
11.49	-0.04081
11.51	-0.04246
11.53	-0.04556
11.55	-0.04983
11.57	-0.05474
11.59	-0.05968
11.61	-0.06397
11.63	-0.06702
11.65	-0.06842
11.67	-0.06795
11.69	-0.06567
11.71	-0.06189
11.73	-0.05709
11.75	-0.0519
11.77	-0.04695
11.79	-0.04281
11.81	-0.03988
11.83	-0.03834
11.85	-0.03814
11.87	-0.03901
11.89	-0.04048
11.91	-0.04201
11.93	-0.04305
11.95	-0.04314
11.97	-0.04197
11.99	-0.03943
12.01	-0.03564
12.03	-0.0309
12.05	-0.02565
12.07	-0.02037
12.09	-0.01555
12.11	-0.01153
12.13	-0.00852
12.15	-0.00656
12.17	-0.00549
12.19	-0.00503
12.21	-0.00483
12.23	-0.00454
12.25	-0.00388
12.27	-0.00271
12.29	-0.00103
12.31	9.93373E-4
12.33	0.00307
12.35	0.00488
12.37	0.00607
12.39	0.00641
12.41	0.00581
12.43	0.00435
12.45	0.00228
12.47	1.58809E-6
12.49	-0.00201
12.51	-0.00328
12.53	-0.00343
12.55	-0.00224
12.57	2.8554E-4
12.59	0.00394
12.61	0.00832
12.63	0.01286
12.65	0.01697
12.67	0.02012
12.69	0.02191
12.71	0.02214
12.73	0.02089
12.75	0.01847
12.77	0.01538
12.79	0.01223
12.81	0.00965
12.83	0.00817
12.85	0.00813
12.87	0.00963
12.89	0.01251
12.91	0.01636
12.93	0.02062
12.95	0.02463
12.97	0.0278
12.99	0.02965
13.01	0.02995
13.03	0.0287
13.05	0.02621
13.07	0.02297
13.09	0.01964
13.11	0.01689
13.13	0.01533
13.15	0.01538
13.17	0.01724
13.19	0.02079
13.21	0.0257
13.23	0.03139
13.25	0.03719
13.27	0.04242
13.29	0.04646
13.31	0.0489
13.33	0.04954
13.35	0.04843
13.37	0.04587
13.39	0.04232
13.41	0.03833
13.43	0.03446
13.45	0.0312
13.47	0.02891
13.49	0.02774
13.51	0.02767
13.53	0.02853
13.55	0.03004
13.57	0.03185
13.59	0.03364
13.61	0.03515
13.63	0.03622
13.65	0.03682
13.67	0.037
13.69	0.03689
13.71	0.03666
13.73	0.03643
13.75	0.03632
13.77	0.03631
13.79	0.03635
13.81	0.03629
13.83	0.03595
13.85	0.03516
13.87	0.03378
13.89	0.03177
13.91	0.02916
13.93	0.02612
13.95	0.02287
13.97	0.01974
13.99	0.01702
14.01	0.01499
14.03	0.01387
14.05	0.01375
14.07	0.01458
14.09	0.01623
14.11	0.01842
14.13	0.02084
14.15	0.02315
14.17	0.02503
14.19	0.02625
14.21	0.02669
14.23	0.02634
14.25	0.0253
14.27	0.0238
14.29	0.02212
14.31	0.02057
14.33	0.01942
14.35	0.01892
14.37	0.01918
14.39	0.02021
14.41	0.02191
14.43	0.02409
14.45	0.02645
14.47	0.02869
14.49	0.0305
14.51	0.03163
14.53	0.03193
14.55	0.03133
14.57	0.02989
14.59	0.0278
14.61	0.02529
14.63	0.02267
14.65	0.02023
14.67	0.01824
14.69	0.01687
14.71	0.01619
14.73	0.01616
14.75	0.01662
14.77	0.01735
14.79	0.01808
14.81	0.01855
14.83	0.01855
14.85	0.01797
14.87	0.01683
14.89	0.01525
14.91	0.01346
14.93	0.01175
14.95	0.01042
14.97	0.0097
14.99	0.00975
15.01	0.01056
15.03	0.01196
15.05	0.01366
15.07	0.01522
15.09	0.01619
15.11	0.01615
15.13	0.01479
15.15	0.01198
15.17	0.00781
15.19	0.00263
15.21	-0.00303
15.23	-0.00849
15.25	-0.01304
15.27	-0.01601
15.29	-0.01691
15.31	-0.0155
15.33	-0.01187
15.35	-0.00639
15.37	2.71926E-4
15.39	0.00727
15.41	0.01367
15.43	0.0186
15.45	0.02138
15.47	0.0216
15.49	0.01919
15.51	0.01444
15.53	0.00795
15.55	5.39583E-4
15.57	-0.00687
15.59	-0.01338
15.61	-0.01828
15.63	-0.02108
15.65	-0.02163
15.67	-0.02008
15.69	-0.01688
15.71	-0.01266
15.73	-0.00815
15.75	-0.00402
15.77	-8.43132E-4
15.79	0.00105
15.81	0.00155
15.83	7.9902E-4
15.85	-8.76408E-4
15.87	-0.00304
15.89	-0.00523
15.91	-0.00705
15.93	-0.00825
15.95	-0.00873
15.97	-0.00859
15.99	-0.00804
16.01	-0.00741
16.03	-0.00701
16.05	-0.00709
16.07	-0.00781
16.09	-0.00915
16.11	-0.01096
16.13	-0.01297
16.15	-0.01486
16.17	-0.01631
16.19	-0.01707
16.21	-0.01705
16.23	-0.01628
16.25	-0.01496
16.27	-0.01342
16.29	-0.01204
16.31	-0.01119
16.33	-0.01117
16.35	-0.01214
16.37	-0.01408
16.39	-0.0168
16.41	-0.01996
16.43	-0.02314
16.45	-0.02587
16.47	-0.02776
16.49	-0.02851
16.51	-0.02798
16.53	-0.02624
16.55	-0.0235
16.57	-0.0201
16.59	-0.01645
16.61	-0.01298
16.63	-0.01006
16.65	-0.00795
16.67	-0.00679
16.69	-0.00658
16.71	-0.00722
16.73	-0.00853
16.75	-0.01031
16.77	-0.01233
16.79	-0.01446
16.81	-0.01657
16.83	-0.01861
16.85	-0.02057
16.87	-0.02243
16.89	-0.02416
16.91	-0.02568
16.93	-0.02687
16.95	-0.02755
16.97	-0.02756
16.99	-0.02671
17.01	-0.02491
17.03	-0.02216
17.05	-0.01858
17.07	-0.01442
17.09	-0.01006
17.11	-0.00594
17.13	-0.00252
17.15	-1.91746E-4
17.17	7.47494E-4
17.19	1.76992E-4
17.21	-0.00183
17.23	-0.00502
17.25	-0.00897
17.27	-0.01315
17.29	-0.01701
17.31	-0.02005
17.33	-0.0219
17.35	-0.02234
17.37	-0.0214
17.39	-0.01926
17.41	-0.0163
17.43	-0.01301
17.45	-0.0099
17.47	-0.00745
17.49	-0.00603
17.51	-0.00583
17.53	-0.00691
17.55	-0.00909
17.57	-0.01208
17.59	-0.01546
17.61	-0.0188
17.63	-0.02166
17.65	-0.02369
17.67	-0.02466
17.69	-0.02448
17.71	-0.02321
17.73	-0.02104
17.75	-0.01825
17.77	-0.01516
17.79	-0.01213
17.81	-0.00945
17.83	-0.00738
17.85	-0.00607
17.87	-0.00556
17.89	-0.0058
17.91	-0.00665
17.93	-0.00791
17.95	-0.00933
17.97	-0.01066
17.99	-0.01166
18.01	-0.01213
18.03	-0.01198
18.05	-0.01116
18.07	-0.00974
18.09	-0.00787
18.11	-0.00579
18.13	-0.00375
18.15	-0.00205
18.17	-9.35516E-4
18.19	-6.12932E-4
18.21	-0.00117
18.23	-0.00259
18.25	-0.0047
18.27	-0.00725
18.29	-0.00987
18.31	-0.01217
18.33	-0.01375
18.35	-0.01432
18.37	-0.01369
18.39	-0.01184
18.41	-0.00893
18.43	-0.0053
18.45	-0.00141
18.47	0.00222
18.49	0.00504
18.51	0.00662
18.53	0.00667
18.55	0.0051
18.57	0.00207
18.59	-0.00207
18.61	-0.00677
18.63	-0.01139
18.65	-0.01528
18.67	-0.01785
18.69	-0.01869
18.71	-0.01762
18.73	-0.01469
18.75	-0.01024
18.77	-0.00478
18.79	0.00102
18.81	0.00646
18.83	0.01087
18.85	0.01374
18.87	0.01475
18.89	0.01383
18.91	0.01117
18.93	0.00713
18.95	0.00228
18.97	-0.00278
18.99	-0.00742
19.01	-0.01113
19.03	-0.01353
19.05	-0.01441
19.07	-0.01378
19.09	-0.01183
19.11	-0.00886
19.13	-0.00529
19.15	-0.00157
19.17	0.0019
19.19	0.00478
19.21	0.00684
19.23	0.00798
19.25	0.00821
19.27	0.00766
19.29	0.00653
19.31	0.00507
19.33	0.00355
19.35	0.00221
19.37	0.00126
19.39	8.37011E-4
19.41	0.00101
19.43	0.00176
19.45	0.00302
19.47	0.00463
19.49	0.00641
19.51	0.00814
19.53	0.00961
19.55	0.01063
19.57	0.01105
19.59	0.0108
19.61	0.00987
19.63	0.00836
19.65	0.00644
19.67	0.00433
19.69	0.00228
19.71	5.69818E-4
19.73	-5.84803E-4
19.75	-0.00102
19.77	-6.85511E-4
19.79	3.9053E-4
19.81	0.00206
19.83	0.00409
19.85	0.00619
19.87	0.00808
19.89	0.00949
19.91	0.01021
19.93	0.01016
19.95	0.00935
19.97	0.00792
19.99	0.00607