File: XRD/Figure4_OOpartial.csv
r,O1-O1_75C,O1-O1_25C,r,O1-O1_MD
0,1,0,1,1
0.0075,1,0,1.05,1
0.03,1,0,1.1,1
0.06,1,0,1.15,1
0.09,1,0,1.2,1
0.12,1,0,1.25,1
0.15,1,0,1.3,1
0.18,1,0,1.35,1
0.21,1,0,1.4,1
0.24,1,0,1.45,1
0.27,1,0,1.5,1
0.3,1,0,1.55,1
0.33,1,0,1.6,1
0.36,1,0,1.65,1
0.39,1,0,1.7,1
0.42,1,0,1.75,1
0.45,1,0,1.8,1
0.48,1,0,1.85,1
0.51,1,0,1.9,1
0.54,1,0,1.95,1
0.57,1,0,2,1
0.6,1,0,2.05,1
0.63,1,0,2.1,1
0.66,1,0,2.15,1
0.69,1,0,2.2,1
0.72,1,0,2.25,1
0.75,1,0,2.3,1
0.78,1,0,2.35,1
0.81,1,0,2.4,1
0.84,1,0,2.45,1
0.87,1,0,2.5,1.03491
0.9,1,0,2.55,1.08913
0.93,1,0,2.6,1.17409
0.96,1,0,2.65,1.29822
0.99,1,0,2.7,1.5692
1.02,1,0,2.75,1.85486
1.05,1,0,2.8,2.17587
1.08,1,0,2.85,2.32522
1.11,1,0,2.9,2.51027
1.14,1,0,2.95,2.54567
1.17,1,0,3,2.55258
1.2,1,0,3.05,2.50293
1.23,1,0,3.1,2.43476
1.26,1,0,3.15,2.38893
1.29,1,0,3.2,2.32922
1.32,1,0,3.25,2.25931
1.35,1,0,3.3,2.19299
1.38,1,0,3.35,2.12934
1.41,1,0,3.4,2.06609
1.44,1,0,3.45,2.01517
1.47,1,0,3.5,1.97141
1.5,1,0,3.55,1.92302
1.53,1,0,3.6,1.87197
1.56,1,0,3.65,1.83136
1.59,1,0,3.7,1.79672
1.62,1,0,3.75,1.76323
1.65,1,0,3.8,1.73895
1.68,1,0,3.85,1.71467
1.71,1,0,3.9,1.69039
1.74,1,0,3.95,1.67234
1.77,1,0,4,1.65779
1.8,1,0,4.05,1.64324
1.83,1,0,4.1,1.62869
1.86,1,0,4.15,1.61414
1.89,1,0,4.2,1.59969
1.92,1,0,4.25,1.58673
1.95,1,0,4.3,1.57377
1.98,1,0,4.35,1.56081
2.01,1,0,4.4,1.55032
2.04,1,0,4.45,1.54151
2.07,1,0,4.5,1.53271
2.1,1,0,4.55,1.5239
2.13,1,0,4.6,1.5151
2.16,1,0,4.65,1.50675
2.19,1,0,4.7,1.5016
2.22,1,0,4.75,1.49645
2.25,1,0,4.8,1.4913
2.28,1,0,4.85,1.48615
2.31,1,0,4.9,1.481
2.34,1.00037,0,4.95,1.47585
2.37,1.00842,0,5,1.47381
2.4,1.02349,0,5.05,1.47381
2.43,1.02545,5.65E-05,5.1,1.47381
2.46,1.03147,3.67E-05,5.15,1.47381
2.49,1.03546,8.34E-04,5.2,1.47381
2.52,1.02005,0.0054,5.25,1.47381
2.55,1.01338,0.02145,5.3,1.47381
2.58,1.01555,0.05191,5.35,1.4769
2.61,1.02598,0.09367,5.4,1.48156
2.64,1.04065,0.13099,5.45,1.48623
2.67,1.05808,0.17992,5.5,1.49089
2.7,1.08958,0.27524,5.55,1.49556
2.73,1.14968,0.40113,5.6,1.50022
2.76,1.25159,0.53408,5.65,1.50557
2.79,1.38096,0.63073,5.7,1.51511
2.82,1.51441,0.68894,5.75,1.52465
2.85,1.65109,0.73095,5.8,1.53419
2.88,1.77135,0.75429,5.85,1.54373
2.91,1.86983,0.782,5.9,1.5538
2.94,1.95109,0.80078,5.95,1.56907
2.97,1.97562,0.82617,6,1.58435
3,1.95072,0.81178,6.05,1.59955
3.03,1.8855,0.77709,6.1,1.6143
3.06,1.85848,0.73758,6.15,1.62905
3.09,1.84154,0.71071,6.2,1.64377
3.12,1.80901,0.68758,6.25,1.65818
3.15,1.77528,0.70989,6.3,1.6726
3.18,1.75144,0.76179,6.35,1.68964
3.21,1.73977,0.83762,6.4,1.72135
3.24,1.72209,0.91555,6.45,1.75185
3.27,1.70405,0.96327,6.5,1.7757
3.3,1.65758,0.96935,6.55,1.79955
3.33,1.6168,0.93217,6.6,1.81702
3.36,1.57816,0.88523,6.65,1.83073
3.39,1.56344,0.84279,6.7,1.84444
3.42,1.55367,0.79929,6.75,1.86025
3.45,1.54864,0.77167,6.8,1.8776
3.48,1.54415,0.74329,6.85,1.89494
3.51,1.52506,0.71157,6.9,1.91273
3.54,1.491,0.69048,6.95,1.93425
3.57,1.4466,0.6659,7,1.95577
3.6,1.41671,0.64906,7.05,1.97966
3.63,1.39367,0.63621,7.1,2.01581
3.66,1.38398,0.63267,7.15,2.0374
3.69,1.39446,0.62421,7.2,2.04865
3.72,1.40996,0.61472,7.25,2.05991
3.75,1.42804,0.59759,7.3,2.07117
3.78,1.45015,0.57598,7.35,2.0753
3.81,1.48455,0.54493,7.4,2.07443
3.84,1.51693,0.51664,7.45,2.07357
3.87,1.52993,0.48196,7.5,2.06348
3.9,1.54274,0.46176,7.55,2.04826
3.93,1.54971,0.45352,7.6,2.03559
3.96,1.56506,0.44436,7.65,2.02434
3.99,1.574,0.43452,7.7,2.01308
4.02,1.59149,0.42382,7.75,2.00182
4.05,1.60944,0.41495,7.8,1.99098
4.08,1.64005,0.41561,7.85,1.98036
4.11,1.68532,0.42371,7.9,1.96973
4.14,1.72886,0.42914,7.95,1.95911
4.17,1.75565,0.44012,8,1.95156
4.2,1.76145,0.44397,8.05,1.94566
4.23,1.74968,0.45479,8.1,1.93977
4.26,1.72834,0.46493,8.15,1.93387
4.29,1.7146,0.47735,8.2,1.92797
4.32,1.69412,0.48883,8.25,1.92479
4.35,1.63244,0.50469,8.3,1.92341
4.38,1.56978,0.51631,8.35,1.92202
4.41,1.51987,0.51522,8.4,1.92064
4.44,1.49086,0.51122,8.45,1.91926
4.47,1.46567,0.50848,8.5,1.91787
4.5,1.43307,0.51176,8.55,1.91734
4.53,1.39707,0.52283,8.6,1.92052
4.56,1.35933,0.53819,8.65,1.92371
4.59,1.34526,0.55822,8.7,1.92689
4.62,1.33468,0.57577,8.75,1.93007
4.65,1.33831,0.5876,8.8,1.93326
4.68,1.33344,0.59852,8.85,1.93584
4.71,1.33624,0.6033,8.9,1.93804
4.74,1.34228,0.61966,8.95,1.94024
4.77,1.35168,0.62351,9,1.94244
4.8,1.36384,0.62812,9.05,1.94464
4.83,1.37175,0.61696,9.1,1.94661
4.86,1.37057,0.59718,9.15,1.94719
4.89,1.37835,0.58499,9.2,1.94777
4.92,1.39316,0.57083,9.25,1.94835
4.95,1.41035,0.56138,9.3,1.94893
4.98,1.42401,0.56943,9.35,1.94951
5.01,1.44834,0.573,9.4,1.95173
5.04,1.48222,0.57189,9.45,1.95474
5.07,1.51537,0.56954,9.5,1.95775
5.10001,1.54512,0.56919,9.55,1.96076
5.13001,1.57445,0.56526,9.6,1.96378
5.16001,1.60755,0.56682,9.65,1.96512
5.19001,1.63031,0.57289,9.7,1.96546
5.22001,1.64511,0.58139,9.75,1.9658
5.25001,1.65925,0.58391,9.8,1.96614
5.28001,1.66165,0.58743,9.85,1.96648
5.31001,1.6481,0.57607,9.9,1.96682
5.34001,1.60876,0.56616,9.95,1.96716
5.37001,1.54946,0.56686,10,1.96782
5.40001,1.50206,0.56598,,
5.43001,1.46881,0.57929,,
5.46001,1.43411,0.59113,,
5.49001,1.4072,0.60481,,
5.52001,1.39921,0.61956,,
5.55001,1.40726,0.63527,,
5.58001,1.43078,0.65904,,
5.61001,1.44856,0.68614,,
5.64001,1.4705,0.70029,,
5.67001,1.48802,0.70926,,
5.70001,1.5043,0.71809,,
5.73001,1.52171,0.71031,,
5.76001,1.5431,0.70107,,
5.79001,1.56922,0.68666,,
5.82001,1.60601,0.67017,,
5.85001,1.64475,0.65853,,
5.88001,1.68618,0.65574,,
5.91001,1.72216,0.65557,,
5.94001,1.7516,0.65463,,
5.97001,1.7769,0.65917,,
6.00001,1.80348,0.66857,,
6.03001,1.83549,0.68937,,
6.06001,1.85905,0.71575,,
6.09001,1.87562,0.7521,,
6.12001,1.88305,0.77394,,
6.15001,1.88927,0.79575,,
6.18001,1.89934,0.81029,,
6.21001,1.90122,0.81876,,
6.24001,1.9061,0.82268,,
6.27001,1.91817,0.82501,,
6.30001,1.9203,0.8334,,
6.33001,1.91454,0.83008,,
6.36001,1.89895,0.81883,,
6.39001,1.88144,0.79656,,
6.42001,1.8736,0.77991,,
6.45001,1.87978,0.7679,,
6.48001,1.8882,0.76272,,
6.51002,1.90049,0.76668,,
6.54002,1.91417,0.78466,,
6.57002,1.9199,0.80557,,
6.60002,1.91832,0.82471,,
6.63002,1.9122,0.84336,,
6.66002,1.89924,0.8633,,
6.69002,1.89562,0.88114,,
6.72002,1.91108,0.88842,,
6.75002,1.92833,0.89043,,
6.78002,1.94154,0.8864,,
6.81002,1.93879,0.88224,,
6.84002,1.93954,0.87053,,
6.87002,1.94145,0.85916,,
6.90002,1.94148,0.86581,,
6.93002,1.94358,0.88096,,
6.96002,1.9439,0.90516,,
6.99002,1.96029,0.92132,,
7.02002,1.99417,0.94405,,
7.05002,2.03503,0.96082,,
7.08002,2.06236,0.9723,,
7.11002,2.06511,0.98904,,
7.14002,2.04531,1.00177,,
7.17002,2.02443,1.02191,,
7.20002,1.99765,1.04351,,
7.23002,1.97035,1.06392,,
7.26002,1.95399,1.08269,,
7.29002,1.94423,1.09685,,
7.32002,1.94265,1.10642,,
7.35002,1.94572,1.11803,,
7.38002,1.95349,1.12318,,
7.41002,1.96301,1.13162,,
7.44002,1.9648,1.13395,,
7.47002,1.95493,1.13189,,
7.50002,1.94222,1.12451,,
7.53002,1.9323,1.11577,,
7.56002,1.92016,1.1018,,
7.59002,1.90542,1.09445,,
7.62002,1.90337,1.08714,,
7.65002,1.90049,1.08456,,
7.68002,1.89821,1.08733,,
7.71002,1.90478,1.08566,,
7.74002,1.9313,1.08419,,
7.77002,1.96243,1.08208,,
7.80002,1.99221,1.07832,,
7.83002,2.02225,1.07601,,
7.86002,2.04224,1.07484,,
7.89002,2.0317,1.07106,,
7.92002,2.00904,1.07036,,
7.95003,1.98189,1.06308,,
7.98003,1.95834,1.04838,,
8.01002,1.94352,1.02949,,
8.04002,1.93266,1.00751,,
8.07002,1.92266,0.9969,,
8.10002,1.90959,0.99208,,
8.13002,1.90415,0.99369,,
8.16002,1.90554,1.00092,,
8.19002,1.90859,0.99546,,
8.22002,1.91265,0.98481,,
8.25002,1.91958,0.97062,,
8.28002,1.92643,0.94789,,
8.31002,1.94193,0.92785,,
8.34002,1.96416,0.90559,,
8.37002,1.99517,0.88655,,
8.40002,2.02008,0.87913,,
8.43002,2.05164,0.8743,,
8.46002,2.06059,0.86684,,
8.49002,2.04764,0.86343,,
8.52002,2.02309,0.85807,,
8.55002,1.99233,0.84919,,
8.58002,1.96129,0.84841,,
8.61002,1.94533,0.84886,,
8.64002,1.95065,0.85881,,
8.67002,1.9458,0.86935,,
8.70002,1.92564,0.87867,,
8.73002,1.90002,0.88306,,
8.76002,1.88108,0.88598,,
8.79002,1.87618,0.88173,,
8.82002,1.87883,0.88085,,
8.85002,1.88822,0.87987,,
8.88002,1.89773,0.88177,,
8.91002,1.90577,0.8806,,
8.94002,1.90869,0.87552,,
8.97002,1.90736,0.86652,,
9.00002,1.90052,0.86538,,
9.03002,1.88629,0.86807,,
9.06002,1.86639,0.87876,,
9.09001,1.85066,0.8907,,
9.12001,1.85529,0.90183,,
9.15001,1.8645,0.90991,,
9.18001,1.8695,0.92248,,
9.21001,1.87655,0.93078,,
9.24001,1.89402,0.9366,,
9.27001,1.91433,0.94434,,
9.30001,1.94156,0.9505,,
9.33001,1.95519,0.95969,,
9.36001,1.9541,0.9643,,
9.39001,1.9477,0.96508,,
9.42001,1.93781,0.96446,,
9.45001,1.92937,0.95865,,
9.48001,1.91677,0.94804,,
9.51001,1.90601,0.93524,,
9.54001,1.89698,0.924,,
9.57001,1.90578,0.91549,,
9.60001,1.91836,0.9105,,
9.63001,1.93361,0.90953,,
9.66001,1.94919,0.91438,,
9.69001,1.96297,0.91805,,
9.72001,1.9837,0.92818,,
9.75001,2.00981,0.93313,,
9.78001,2.03505,0.93436,,
9.81001,2.07193,0.93698,,
9.84001,2.10714,0.93347,,
9.87001,2.13281,0.93215,,
9.90001,2.16032,0.9323,,
9.93001,2.17938,0.93574,,
9.96001,2.18565,0.94242,,
9.99001,2.18738,0.94881,,
10.02001,2.18557,0.95259,,
10.05001,2.17408,0.95214,,
10.08001,2.16411,0.94915,,
10.11001,2.15023,0.94832,,
10.14001,2.14162,0.94802,,
10.17,2.13776,0.94372,,
10.2,2.13272,0.94322,,
10.23,2.12709,0.94781,,
10.26,2.12623,0.94882,,
10.29,2.12317,0.94986,,
10.32,2.12032,0.94834,,
10.35,2.1139,0.94837,,
10.38,2.10937,0.94836,,
10.41,2.10555,0.95168,,
10.44,2.10111,0.95319,,
10.47,2.09155,0.95466,,
10.5,2.0857,0.95571,,
10.53,2.08158,0.95007,,
10.56,2.07953,0.94524,,
10.59,2.07557,0.94538,,
10.62,2.06106,0.94657,,
10.65,2.04021,0.9466,,
10.68,2.01531,0.94985,,
10.71,1.99041,0.95943,,
10.74,1.97078,0.95803,,
10.77,1.95698,0.95861,,
10.8,1.94026,0.95898,,
10.83,1.92219,0.96362,,
10.86,1.90396,0.97007,,
10.89,1.89348,0.9811,,
10.92,1.89917,0.99984,,
10.95,1.9134,1.01574,,
10.98,1.93156,1.03271,,
11.01,1.95308,1.04416,,
11.04,1.97679,1.05138,,
11.07,1.99123,1.0525,,
11.1,1.98751,1.05567,,
11.13,1.97272,1.05941,,
11.16,1.95274,1.05857,,
11.19,1.94181,1.05982,,
11.22,1.9368,1.05841,,
11.25,1.94045,1.05587,,
11.27999,1.94382,1.04958,,
11.30999,1.94929,1.04332,,
11.33999,1.957,1.03599,,
11.36999,1.97066,1.02366,,
11.39999,1.98824,1.02159,,
11.42999,2.00742,1.01632,,
11.45999,2.02411,1.01267,,
11.48999,2.03617,1.00519,,
11.51999,2.04082,1.00197,,
11.54999,2.04601,0.99935,,
11.57999,2.05544,0.99637,,
11.60999,2.06896,1.0004,,
11.63999,2.08511,1.00491,,
11.66999,2.09776,1.00865,,
11.69999,2.10863,1.01259,,
11.72999,2.12711,1.01687,,
11.75999,2.14238,1.01986,,
11.78999,2.15692,1.02622,,
11.81999,2.15749,1.03257,,
11.84999,2.14105,1.03201,,
11.87999,2.12046,1.03194,,
11.90999,2.10996,1.03322,,
11.93999,2.11124,1.03793,,
11.96999,2.11338,1.04066,,
11.99999,2.12048,1.04041,,
12.02999,2.13413,1.03811,,
12.05999,2.15202,1.03725,,
12.08999,2.16495,1.03907,,
12.11999,2.16275,1.04503,,
12.14999,2.14679,1.04818,,
12.17999,2.12038,1.04723,,
12.20999,2.09567,1.04692,,
12.23999,2.0806,1.0503,,
12.26999,2.0767,1.05427,,
12.29999,2.07458,1.06004,,
12.32999,2.077,1.05994,,
12.35999,2.07457,1.06053,,
12.38999,2.07223,1.06168,,
12.41998,2.06399,1.0654,,
12.44998,2.04993,1.06117,,
12.47998,2.03052,1.05666,,
12.50998,2.01112,1.05378,,
12.53998,1.99168,1.05203,,
12.56998,1.9818,1.04996,,
12.59998,1.97908,1.04265,,
12.62998,1.98654,1.03381,,
12.65998,1.99813,1.02014,,
12.68998,2.00429,1.00748,,
12.71998,2.00411,1.00099,,
12.74998,2.00286,0.99802,,
12.77998,2.00008,0.99306,,
12.80998,1.99932,0.98785,,
12.83998,1.99631,0.98253,,
12.86998,1.99086,0.98054,,
12.89998,1.98611,0.97938,,
12.92998,1.98002,0.97777,,
12.95998,1.97547,0.97838,,
12.98998,1.97147,0.97426,,
13.01998,1.97821,0.96757,,
13.04998,1.99436,0.9643,,
13.07998,2.01213,0.96175,,
13.10998,2.02264,0.96712,,
13.13998,2.02493,0.97262,,
13.16998,2.01617,0.97986,,
13.19998,2.01036,0.98754,,
13.22998,2.00412,0.99585,,
13.25998,1.99165,1.00616,,
13.28998,1.97186,1.01868,,
13.31998,1.9434,1.029,,
13.34998,1.91119,1.03525,,
13.37998,1.88761,1.03849,,
13.40998,1.8809,1.04159,,
13.43998,1.8933,1.04464,,
13.46998,1.91477,1.04618,,
13.49998,1.9394,1.04831,,
13.52997,1.96215,1.04874,,
13.55997,1.97876,1.04819,,
13.58997,1.98675,1.04746,,
13.61997,1.99406,1.04355,,
13.64997,1.99844,1.03819,,
13.67997,2.00778,1.0348,,
13.70997,2.01477,1.03176,,
13.73997,2.01594,1.0285,,
13.76997,2.01276,1.02381,,
13.79997,2.01075,1.01814,,
13.82997,2.00593,1.01316,,
13.85997,2.00281,1.00914,,
13.88997,2.00115,1.00459,,
13.91997,2.00383,1.00433,,
13.94997,2.00087,1.00621,,
13.97997,1.9986,1.01213,,
14.00997,1.9931,1.01892,,
14.03997,1.99561,1.02657,,
14.06997,1.99396,1.0292,,
14.09997,1.98682,1.02621,,
14.12997,1.97022,1.02002,,
14.15997,1.9543,1.01331,,
14.18997,1.93848,1.00804,,
14.21997,1.92617,1.00383,,
14.24997,1.92004,0.99495,,
14.27997,1.91582,0.98868,,
14.30997,1.91644,0.98147,,
14.33997,1.92337,0.97551,,
14.36997,1.92983,0.97418,,
14.39997,1.93754,0.97559,,
14.42997,1.94556,0.97517,,
14.45997,1.9556,0.97613,,
14.48997,1.96734,0.97906,,
14.51997,1.97356,0.98427,,
14.54997,1.97457,0.99166,,
14.57997,1.97473,0.99822,,
14.60997,1.97495,1.00203,,
14.63997,1.97468,1.00633,,
14.66996,1.96666,1.00456,,
14.69996,1.9521,1.00478,,
14.72996,1.92879,1.00287,,
14.75996,1.90149,1.00295,,
14.78996,1.87478,,,
14.81996,1.85981,,,
14.84996,1.85476,,,
14.87996,1.85941,,,