File: XRD/Figure1_SQdata.csv
Q,CBD_75C_SQ,75C_EPSR,Q,CBD_SCL_SQ,25C_EPSR
0.5,1.02741,1.70506,0.1,-1.47961,-1.87369
0.55,1.31359,1.56145,0.15,-1.47032,-1.56779
0.6,1.3212,1.45681,0.2,-1.39339,-1.22257
0.65,1.26021,1.40877,0.25,-1.29789,-0.87705
0.7,1.21837,1.43379,0.3,-1.16064,-0.58539
0.75,1.22902,1.51337,0.35,-0.9328,-0.36278
0.8,1.3021,1.62684,0.4,-0.62681,-0.20878
0.85,1.4368,1.75383,0.45,-0.23745,-0.10707
0.9,1.61638,1.87043,0.5,0.09889,-0.03202
0.95,1.80397,1.96775,0.55,0.19614,0.03629
1,1.95068,2.04923,0.6,0.06573,0.10072
1.05,2.03432,2.12266,0.65,-0.12061,0.16368
1.1,2.07742,2.19796,0.7,-0.26416,0.21385
1.15,2.12154,2.28171,0.75,-0.31443,0.24805
1.2,2.19432,2.37065,0.8,-0.26088,0.25993
1.25,2.29219,2.45548,0.85,-0.12202,0.25702
1.3,2.39901,2.5247,0.9,0.10156,0.25973
1.35,2.48947,2.56729,0.95,0.36234,0.29213
1.4,2.5405,2.57816,1,0.57604,0.37468
1.45,2.54554,2.55842,1.05,0.70224,0.51482
1.5,2.4955,2.51263,1.1,0.76845,0.70582
1.55,2.40086,2.4452,1.15,0.83196,0.92423
1.6,2.27361,2.35746,1.2,0.93523,1.13803
1.65,2.12551,2.24834,1.25,1.08285,1.31348
1.7,1.97211,2.11672,1.3,1.25071,1.42459
1.75,1.8188,1.96458,1.35,1.39992,1.46149
1.8,1.6811,1.80031,1.4,1.49385,1.42914
1.85,1.55634,1.63854,1.45,1.51505,1.34523
1.9,1.44452,1.49606,1.5,1.46263,1.23204
1.95,1.34513,1.38677,1.55,1.34781,1.10894
2,1.25577,1.31583,1.6,1.18994,0.98741
2.05,1.17761,1.27745,1.65,1.00608,0.86791
2.1,1.10884,1.25669,1.7,0.81416,0.74396
2.15,1.04915,1.23525,1.75,0.62862,0.60621
2.2,1.00017,1.19879,1.8,0.46071,0.44913
2.25,0.96211,1.14312,1.85,0.31549,0.27412
2.3,0.9352,1.07567,1.9,0.19278,0.09063
2.35,0.92018,1.01241,1.95,0.08676,-0.0861
2.4,0.91646,0.97118,2,-0.00803,-0.23993
2.45,0.92116,0.9645,2.05,-0.09356,-0.35887
2.5,0.93449,0.99492,2.1,-0.17137,-0.43825
2.55,0.95473,1.05448,2.15,-0.2406,-0.48191
2.6,0.98436,1.12734,2.2,-0.29989,-0.49961
2.65,1.01914,1.19716,2.25,-0.34619,-0.504
2.7,1.05948,1.25402,2.3,-0.37923,-0.50658
2.75,1.10661,1.29566,2.35,-0.39803,-0.51452
2.8,1.15871,1.32686,2.4,-0.40165,-0.52899
2.85,1.21172,1.35612,2.45,-0.39218,-0.54561
2.9,1.26119,1.38955,2.5,-0.37051,-0.55665
2.95,1.30318,1.42737,2.55,-0.33735,-0.55333
3,1.33388,1.46304,2.6,-0.29329,-0.52875
3.05,1.351,1.48647,2.65,-0.23958,-0.4796
3.1,1.35401,1.48904,2.7,-0.17905,-0.40695
3.15,1.34349,1.46677,2.75,-0.11323,-0.31596
3.2,1.32371,1.42309,2.8,-0.0466,-0.21608
3.25,1.29458,1.36743,2.85,0.01684,-0.11852
3.3,1.26322,1.31126,2.9,0.07234,-0.03418
3.35,1.22959,1.26394,2.95,0.11557,0.02741
3.4,1.19822,1.22962,3,0.14746,0.06096
3.45,1.16821,1.20633,3.05,0.16024,0.06581
3.5,1.14213,1.18844,3.1,0.15672,0.04582
3.55,1.12065,1.1697,3.15,0.13463,0.00838
3.6,1.10342,1.14628,3.2,0.0987,-0.03735
3.65,1.09165,1.11829,3.25,0.05309,-0.0836
3.7,1.08234,1.08898,3.3,0.00167,-0.12484
3.75,1.07813,1.06269,3.35,-0.05103,-0.15916
3.8,1.07791,1.04234,3.4,-0.10356,-0.18821
3.85,1.08095,1.02795,3.45,-0.15472,-0.21566
3.9,1.08933,1.01708,3.5,-0.2006,-0.24524
3.95,1.10218,1.00637,3.55,-0.24313,-0.27916
4,1.11546,0.99389,3.6,-0.28289,-0.31736
4.05,1.13354,0.98029,3.65,-0.31819,-0.35739
4.1,1.15445,0.96902,3.7,-0.35007,-0.39557
4.15,1.17846,0.96454,3.75,-0.37853,-0.42861
4.2,1.20464,0.97038,3.8,-0.40308,-0.45459
4.25,1.23248,0.98758,3.85,-0.42419,-0.47355
4.3,1.26287,1.01393,3.9,-0.4424,-0.48757
4.35,1.29709,1.04542,3.95,-0.45686,-0.49921
4.4,1.33315,1.07835,4,-0.46925,-0.51063
4.45,1.37318,1.11116,4.05,-0.47813,-0.52277
4.5,1.41793,1.1457,4.1,-0.48427,-0.53508
4.55,1.46781,1.18641,4.15,-0.48824,-0.54583
4.6,1.52263,1.23869,4.2,-0.48882,-0.55293
4.65,1.58231,1.3065,4.25,-0.48647,-0.55464
4.7,1.6527,1.39058,4.3,-0.48015,-0.54992
4.75,1.72743,1.48776,4.35,-0.46857,-0.53846
4.8,1.80795,1.59223,4.4,-0.45049,-0.52001
4.85,1.89571,1.6972,4.45,-0.42594,-0.49439
4.9,1.98466,1.79711,4.5,-0.39485,-0.46078
4.95,2.07575,1.88876,4.55,-0.35426,-0.41806
5,2.16246,1.97166,4.6,-0.30411,-0.36536
5.05,2.24425,2.04683,4.65,-0.24539,-0.30237
5.1,2.31888,2.11542,4.7,-0.17765,-0.2296
5.15,2.37651,2.17806,4.75,-0.10125,-0.14852
5.2,2.41635,2.23359,4.8,-0.01702,-0.06077
5.25,2.4364,2.27957,4.85,0.07243,0.03176
5.3,2.43525,2.31324,4.9,0.16853,0.12767
5.35,2.41284,2.33218,4.95,0.26504,0.22588
5.4,2.37666,2.33499,5,0.36001,0.3252
5.45,2.33057,2.32177,5.05,0.45009,0.42361
5.5,2.27587,2.29332,5.1,0.53385,0.5184
5.55,2.21708,2.25088,5.15,0.6094,0.60607
5.6,2.15825,2.19642,5.2,0.67507,0.68202
5.65,2.09831,2.13229,5.25,0.72836,0.74243
5.7,2.03762,2.06116,5.3,0.76941,0.78496
5.75,1.97924,1.98641,5.35,0.79744,0.80948
5.8,1.92598,1.91164,5.4,0.81119,0.81743
5.85,1.87185,1.84015,5.45,0.81281,0.81191
5.9,1.82185,1.77413,5.5,0.80143,0.79623
5.95,1.77279,1.71419,5.55,0.77828,0.77307
6,1.7278,1.65935,5.6,0.74515,0.74374
6.05,1.68575,1.60757,5.65,0.70041,0.70863
6.1,1.64727,1.55672,5.7,0.64835,0.66723
6.15,1.61096,1.5057,5.75,0.58958,0.61911
6.2,1.57874,1.45493,5.8,0.52465,0.56464
6.25,1.54933,1.40638,5.85,0.45722,0.50503
6.3,1.52118,1.36282,5.9,0.3881,0.44223
6.35,1.49523,1.32665,5.95,0.31993,0.37848
6.4,1.47161,1.29896,6,0.2527,0.31562
6.45,1.4483,1.27892,6.05,0.18836,0.2547
6.5,1.42786,1.26403,6.1,0.12757,0.19595
6.55,1.40376,1.25089,6.15,0.06912,0.13916
6.6,1.38167,1.23639,6.2,0.01631,0.08421
6.65,1.35929,1.21869,6.25,-0.03227,0.03148
6.7,1.33424,1.19778,6.3,-0.07637,-0.01803
6.75,1.30978,1.17528,6.35,-0.11595,-0.063
6.8,1.28772,1.1538,6.4,-0.15268,-0.1023
6.85,1.26385,1.13592,6.45,-0.18616,-0.13551
6.9,1.23927,1.12334,6.5,-0.21554,-0.16317
6.95,1.2194,1.1162,6.55,-0.24255,-0.18671
7,1.20053,1.11355,6.6,-0.26879,-0.20799
7.05,1.18315,1.11379,6.65,-0.2911,-0.22871
7.1,1.16781,1.11508,6.7,-0.31279,-0.2499
7.15,1.15844,1.11647,6.75,-0.33458,-0.2717
7.2,1.15283,1.11811,6.8,-0.35456,-0.29345
7.25,1.15392,1.12125,6.85,-0.37325,-0.31406
7.3,1.15706,1.12769,6.9,-0.38956,-0.33271
7.35,1.16848,1.13948,6.95,-0.40447,-0.34883
7.4,1.18362,1.15791,7,-0.41712,-0.36232
7.45,1.2053,1.1832,7.05,-0.4275,-0.37347
7.5,1.23107,1.21443,7.1,-0.43622,-0.38232
7.55,1.25951,1.24967,7.15,-0.44003,-0.38868
7.6,1.29278,1.28637,7.2,-0.44016,-0.39213
7.65,1.32606,1.32193,7.25,-0.43623,-0.39201
7.7,1.36252,1.35429,7.3,-0.42794,-0.38765
7.75,1.39798,1.38214,7.35,-0.41508,-0.37868
7.8,1.43797,1.40509,7.4,-0.39843,-0.36532
7.85,1.46492,1.42365,7.45,-0.37825,-0.34838
7.9,1.49654,1.43876,7.5,-0.35395,-0.32891
7.95,1.52527,1.45173,7.55,-0.32752,-0.30792
8,1.54869,1.46379,7.6,-0.29868,-0.28618
8.05,1.57091,1.47595,7.65,-0.26887,-0.26402
8.1,1.5909,1.48898,7.7,-0.23949,-0.24151
8.15,1.60818,1.50333,7.75,-0.20925,-0.21862
8.2,1.62555,1.51922,7.8,-0.17987,-0.19548
8.25,1.63703,1.53659,7.85,-0.15195,-0.17244
8.3,1.65394,1.5551,7.9,-0.12573,-0.14994
8.35,1.66723,1.57414,7.95,-0.10107,-0.12863
8.4,1.67898,1.59285,8,-0.07753,-0.10889
8.45,1.6884,1.61026,8.05,-0.05548,-0.0907
8.5,1.69473,1.62549,8.1,-0.03393,-0.07362
8.55,1.70212,1.63787,8.15,-0.01252,-0.05685
8.6,1.7055,1.64704,8.2,0.00804,-0.03944
8.65,1.70594,1.65302,8.25,0.02913,-0.02066
8.7,1.70216,1.65601,8.3,0.05011,-1.81E-04
8.75,1.69943,1.65627,8.35,0.06945,0.02179
8.8,1.69121,1.65389,8.4,0.08906,0.04454
8.85,1.68137,1.64881,8.45,0.10703,0.06705
8.9,1.66794,1.64082,8.5,0.12242,0.0881
8.95,1.65337,1.62984,8.55,0.13476,0.10658
9,1.63965,1.61613,8.6,0.14556,0.12163
9.05,1.62607,1.60048,8.65,0.15182,0.13272
9.1,1.60985,1.58421,8.7,0.15676,0.13973
9.15,1.59447,1.56894,8.75,0.1567,0.14283
9.2,1.58009,1.55627,8.8,0.15443,0.14251
9.25,1.56581,1.54736,8.85,0.14789,0.13936
9.3,1.55278,1.54266,8.9,0.14036,0.13404
9.35,1.54401,1.54185,8.95,0.13053,0.12713
9.4,1.53277,1.544,9,0.11892,0.11912
9.45,1.52386,1.54791,9.05,0.10588,0.11033
9.5,1.51875,1.55251,9.1,0.09255,0.10105
9.55,1.51398,1.55713,9.15,0.08137,0.09151
9.6,1.50904,1.56166,9.2,0.07134,0.08205
9.65,1.50653,1.56648,9.25,0.06198,0.07314
9.7,1.50558,1.57228,9.3,0.05368,0.06531
9.75,1.50917,1.57974,9.35,0.04858,0.05914
9.8,1.50808,1.58936,9.4,0.04459,0.05508
9.85,1.51271,1.60127,9.45,0.04288,0.05333
9.9,1.52115,1.61523,9.5,0.04307,0.0538
9.95,1.52594,1.63063,9.55,0.04505,0.05611
10,1.53401,1.64667,9.6,0.04925,0.05972
10.05,1.54176,1.66239,9.65,0.05582,0.06414
10.1,1.55067,1.6768,9.7,0.062,0.06901
10.15,1.56004,1.689,9.75,0.06961,0.0743
10.2,1.5666,1.69827,9.8,0.07748,0.08026
10.25,1.5738,1.70412,9.85,0.08877,0.08729
10.3,1.58076,1.7063,9.9,0.09837,0.09583
10.35,1.58182,1.70479,9.95,0.11239,0.1061
10.4,1.57979,1.69971,10,0.1267,0.11808
10.45,1.58059,1.69118,10.05,0.14129,0.13136
10.5,1.57393,1.67924,10.1,0.15427,0.14531
10.55,1.56943,1.66383,10.15,0.16858,0.15913
10.6,1.55671,1.64484,10.2,0.18104,0.17201
10.65,1.5449,1.6223,10.25,0.19185,0.18326
10.7,1.52617,1.59649,10.3,0.20012,0.1923
10.75,1.5108,1.56807,10.35,0.20632,0.19866
10.8,1.48946,1.53806,10.4,0.21069,0.20195
10.85,1.46751,1.50768,10.45,0.21077,0.20186
10.9,1.44607,1.4781,10.5,0.20665,0.1981
10.95,1.42128,1.45022,10.55,0.19901,0.19052
11,1.39867,1.4245,10.6,0.18711,0.17915
11.05,1.37577,1.40101,10.65,0.17236,0.16427
11.1,1.35567,1.37953,10.7,0.15451,0.14636
11.15,1.33266,1.35983,10.75,0.13257,0.12607
11.2,1.31234,1.34182,10.8,0.10772,0.10416
11.25,1.29555,1.32565,10.85,0.08198,0.08131
11.3,1.28321,1.31168,10.9,0.05476,0.05807
11.35,1.2732,1.30032,10.95,0.0267,0.03481
11.4,1.26609,1.29176,11,-0.00103,0.01173
11.45,1.2594,1.28592,11.05,-0.0287,-0.01105
11.5,1.25083,1.28241,11.1,-0.05545,-0.0334
11.55,1.24776,1.28063,11.15,-0.08031,-0.05509
11.6,1.24559,1.27999,11.2,-0.10391,-0.07581
11.65,1.24545,1.28006,11.25,-0.12451,-0.09517
11.7,1.24598,1.28074,11.3,-0.1429,-0.1128
11.75,1.25158,1.28212,11.35,-0.15834,-0.12844
11.8,1.25586,1.28445,11.4,-0.17148,-0.14199
11.85,1.26083,1.28793,11.45,-0.18417,-0.15354
11.9,1.2713,1.29263,11.5,-0.19358,-0.16335
11.95,1.2808,1.29847,11.55,-0.20135,-0.17175
12,1.28915,1.30534,11.6,-0.20984,-0.17911
12.05,1.30294,1.3132,11.65,-0.21525,-0.18569
12.1,1.31437,1.32219,11.7,-0.21915,-0.19162
12.15,1.32641,1.33266,11.75,-0.22255,-0.19692
12.2,1.3433,1.34502,11.8,-0.22541,-0.20147
12.25,1.35747,1.35964,11.85,-0.22551,-0.20509
12.3,1.37229,1.37665,11.9,-0.22577,-0.20757
12.35,1.38988,1.39586,11.95,-0.22448,-0.20872
12.4,1.40467,1.41677,12,-0.22182,-0.20839
12.45,1.4222,1.43871,12.05,-0.22032,-0.20645
12.5,1.43873,1.461,12.1,-0.21471,-0.20286
12.55,1.45612,1.48315,12.15,-0.20937,-0.19763
12.6,1.47158,1.50486,12.2,-0.20069,-0.19078
12.65,1.48801,1.52606,12.25,-0.19183,-0.18238
12.7,1.5033,1.54676,12.3,-0.17933,-0.17254
12.75,1.51978,1.56694,12.35,-0.16709,-0.16137
12.8,1.53348,1.58645,12.4,-0.15353,-0.14894
12.85,1.54385,1.60499,12.45,-0.13559,-0.1353
12.9,1.55549,1.62213,12.5,-0.11814,-0.12048
12.95,1.56876,1.63746,12.55,-0.09885,-0.10449
13,1.57645,1.65063,12.6,-0.0774,-0.08735
13.05,1.58329,1.6614,12.65,-0.05604,-0.06914
13.1,1.59142,1.66969,12.7,-0.03317,-0.05004
13.15,1.59664,1.67547,12.75,-0.01056,-0.03029
13.2,1.59825,1.67875,12.8,0.01267,-0.01023
13.25,1.60129,1.67947,12.85,0.03663,0.00977
13.3,1.6037,1.67762,12.9,0.05942,0.02934
13.35,1.59825,1.67315,12.95,0.08126,0.04817
13.4,1.59658,1.6661,13,0.10274,0.066
13.45,1.59149,1.65665,13.05,0.12096,0.08266
13.5,1.58018,1.64511,13.1,0.139,0.09799
13.55,1.5751,1.63194,13.15,0.15328,0.11183
13.6,1.566,1.61766,13.2,0.16622,0.12402
13.65,1.55323,1.60283,13.25,0.17676,0.13433
13.7,1.54033,1.58799,13.3,0.18213,0.14252
13.75,1.53224,1.57358,13.35,0.18609,0.14837
13.8,1.5223,1.55995,13.4,0.18612,0.15173
13.85,1.50819,1.54733,13.45,0.18418,0.1526
13.9,1.50151,1.53581,13.5,0.18235,0.15108
13.95,1.49071,1.52541,13.55,0.17456,0.14744
14,1.48588,1.51605,13.6,0.16647,0.142
14.05,1.47508,1.50758,13.65,0.15766,0.13515
14.1,1.46696,1.49992,13.7,0.14861,0.12726
14.15,1.46055,1.49299,13.75,0.13574,0.11865
14.2,1.45431,1.4868,13.8,0.12331,0.10956
14.25,1.44877,1.48146,13.85,0.11147,0.10023
14.3,1.44485,1.47712,13.9,0.09966,0.09082
14.35,1.43953,1.47391,13.95,0.08891,0.08152
14.4,1.44054,1.4719,14,0.07832,0.07249
14.45,1.43286,1.47107,14.05,0.06792,0.0639
14.5,1.42742,1.47126,14.1,0.05701,0.05588
14.55,1.42472,1.47225,14.15,0.04779,0.0485
14.6,1.42567,1.47374,14.2,0.03991,0.0418
14.65,1.42608,1.47549,14.25,0.03203,0.03574
14.7,1.42416,1.47729,14.3,0.02542,0.03023
14.75,1.42485,1.47902,14.35,0.01975,0.02519
14.8,1.42531,1.48065,14.4,0.01162,0.02054
14.85,1.42447,1.4822,14.45,0.00403,0.0162
14.9,1.42744,1.48372,14.5,-8.66E-04,0.01216
14.95,1.42579,1.48526,14.55,-0.00726,0.0084
15,1.43278,1.48687,14.6,-0.0128,0.00491
15.05,1.43782,1.48857,14.65,-0.01568,0.00173
15.1,1.44388,1.49036,14.7,-0.02063,-0.00117
15.15,1.44689,1.49224,14.75,-0.02473,-0.00378
15.2,1.45068,1.49413,14.8,-0.02381,-0.00613
15.25,1.45204,1.49593,14.85,-0.02488,-0.00822
15.3,1.45564,1.49748,14.9,-0.02581,-0.01007
15.35,1.45899,1.49861,14.95,-0.02724,-0.01173
15.4,1.46831,1.49917,15,-0.02478,-0.0132
15.45,1.47123,1.49907,15.05,-0.02245,-0.01455
15.5,1.47853,1.49826,15.1,-0.01981,-0.01582
15.55,1.47975,1.49682,15.15,-0.01859,-0.01702
15.6,1.48224,1.49484,15.2,-0.01366,-0.01816
15.65,1.49074,1.49247,15.25,-0.01177,-0.01921
15.7,1.4907,1.48981,15.3,-0.00939,-0.02011
15.75,1.49131,1.48693,15.35,-0.00503,-0.02078
15.8,1.49497,1.48383,15.4,-0.00248,-0.02115
15.85,1.49617,1.4805,15.45,-0.00129,-0.0212
15.9,1.49777,1.47692,15.5,0.00207,-0.02096
15.95,1.5025,1.47309,15.55,0.00271,-0.02051
16,1.49789,1.46911,15.6,0.00348,-0.01999
16.05,1.50166,1.46507,15.65,0.00595,-0.0195
16.1,1.496,1.46113,15.7,0.00417,-0.01917
16.15,1.49312,1.45741,15.75,0.00304,-0.01906
16.2,1.49249,1.45403,15.8,0.00185,-0.01917
16.25,1.49344,1.45104,15.85,-1.08E-04,-0.01945
16.3,1.48822,1.44845,15.9,-0.00335,-0.01987
16.35,1.48649,1.44626,15.95,-0.00834,-0.02039
16.4,1.49016,1.44449,16,-0.01056,-0.02102
16.45,1.4879,1.44317,16.05,-0.01639,-0.02181
16.5,1.48663,1.44238,16.1,-0.02204,-0.02288
16.55,1.48643,1.44222,16.15,-0.02825,-0.02434
16.6,1.49238,1.4428,16.2,-0.03484,-0.02627
16.65,1.49062,1.44421,16.25,-0.04063,-0.02871
16.7,1.49806,1.44653,16.3,-0.04801,-0.03163
16.75,1.49751,1.44977,16.35,-0.05566,-0.03492
16.8,1.49907,1.45393,16.4,-0.06144,-0.03841
16.85,1.49927,1.45894,16.45,-0.06715,-0.04191
16.9,1.50913,1.46473,16.5,-0.07137,-0.04524
16.95,1.5101,1.47118,16.55,-0.07837,-0.04822
17,1.51455,1.47816,16.6,-0.07913,-0.05073
17.05,1.51707,1.48553,16.65,-0.08358,-0.05265
17.1,1.51761,1.49314,16.7,-0.0862,-0.05391
17.15,1.52157,1.50083,16.75,-0.08708,-0.05444
17.2,1.51963,1.50847,16.8,-0.08823,-0.05419
17.25,1.52007,1.51592,16.85,-0.08811,-0.05311
17.3,1.52185,1.52308,16.9,-0.08532,-0.05118
17.35,1.52748,1.52988,16.95,-0.08458,-0.04839
17.4,1.52214,1.53625,17,-0.08192,-0.04476
17.45,1.52399,1.54214,17.05,-0.0747,-0.04034
17.5,1.52702,1.5475,17.1,-0.06972,-0.03523
17.55,1.52792,1.55229,17.15,-0.06405,-0.02953
17.6,1.52245,1.55645,17.2,-0.05979,-0.02338
17.65,1.52871,1.55994,17.25,-0.05273,-0.01691
17.7,1.53218,1.5627,17.3,-0.04627,-0.01026
17.75,1.53341,1.56469,17.35,-0.04197,-0.00358
17.8,1.52369,1.56586,17.4,-0.03344,0.00302
17.85,1.52707,1.5662,17.45,-0.02568,0.00941
17.9,1.53016,1.5657,17.5,-0.01982,0.01551
17.95,1.52853,1.56436,17.55,-0.01671,0.02124
18,1.53488,1.56222,17.6,-0.00849,0.02657
18.05,1.53296,1.55932,17.65,-9.03E-04,0.03149
18.1,1.52565,1.55573,17.7,0.00362,0.036
18.15,1.52405,1.55154,17.75,0.00906,0.04011
18.2,1.51892,1.5468,17.8,0.01411,0.04382
18.25,1.52017,1.54163,17.85,0.01806,0.04712
18.3,1.5212,1.5361,17.9,0.02431,0.04995
18.35,1.52201,1.5303,17.95,0.02775,0.05227
18.4,1.51528,1.52432,18,0.0291,0.054
18.45,1.51531,1.51826,18.05,0.03234,0.05509
18.5,1.51494,1.51219,18.1,0.03528,0.0555
18.55,1.50905,1.50622,18.15,0.03475,0.05523
18.6,1.50521,1.50042,18.2,0.03577,0.05431
18.65,1.50285,1.49487,18.25,0.03783,0.05278
18.7,1.50244,1.48965,18.3,0.03596,0.05073
18.75,1.49667,1.48484,18.35,0.0364,0.04821
18.8,1.49699,1.4805,18.4,0.03204,0.04529
18.85,1.49108,1.4767,18.45,0.02773,0.042
18.9,1.48641,1.47349,18.5,0.02364,0.03838
18.95,1.48461,1.47091,18.55,0.01892,0.03446
19,1.48625,1.46895,18.6,0.01056,0.03028
19.05,1.48604,1.46761,18.65,0.0016,0.0259
19.1,1.4923,1.46685,18.7,0.00276,0.02138
19.15,1.49049,1.46661,18.75,0.00283,0.01681
19.2,1.49403,1.46682,18.8,1.52E-04,0.01227
19.25,1.49482,1.46742,18.85,-0.00169,0.00786
19.3,1.49977,1.46835,18.9,-0.00722,0.00364
19.35,1.49407,1.46956,18.95,-0.01143,-3.30E-04
19.4,1.50517,1.47101,19,-0.01561,-0.00399
19.45,1.50675,1.47264,19.05,-0.02264,-0.00731
19.5,1.51243,1.47439,19.1,-0.02768,-0.01027
19.55,1.49888,1.47621,19.15,-0.0289,-0.01285
19.6,1.50989,1.47803,19.2,-0.03274,-0.01505
19.65,1.51609,1.4798,19.25,-0.03407,-0.01688
19.7,1.52011,1.48148,19.3,-0.03634,-0.01835
19.75,1.52202,1.48308,19.35,-0.03211,-0.01949
19.8,1.52023,1.4846,19.4,-0.03358,-0.02034
19.85,1.52276,1.4861,19.45,-0.03063,-0.02095
19.9,1.5308,1.48762,19.5,-0.02967,-0.02134
19.95,1.53236,1.48922,19.55,-0.02682,-0.02157
20,1.53289,1.49093,19.6,-0.02676,-0.02166
20.05,1.52506,1.49277,19.65,-0.0246,-0.02164
20.1,1.53379,1.49473,19.7,-0.02012,-0.02152
20.15,1.53015,1.49681,19.75,-0.01657,-0.02132
20.2,1.52998,1.49898,19.8,-0.01713,-0.02104
20.25,1.5348,1.50119,19.85,-0.01419,-0.02068
20.3,1.53192,1.50343,19.9,-0.01124,-0.02024
20.35,1.53196,1.50564,19.95,-0.01112,-0.0197
20.4,1.53821,1.50779,20,-0.00642,-0.01906
20.45,1.5464,1.50982,20.05,-0.00299,-0.0183
20.5,1.53801,1.51167,20.1,-0.00556,-0.01742
20.55,1.53107,1.51328,20.15,-0.00146,-0.01642
20.6,1.53707,1.5146,20.2,-0.00527,-0.01529
20.65,1.53435,1.51559,20.25,0.00341,-0.01406
20.7,1.53181,1.51623,20.3,-1.90E-04,-0.01273
20.75,1.54677,1.5165,20.35,0.00267,-0.01133
20.8,1.55218,1.51643,20.4,0.00566,-0.00988
20.85,1.5556,1.51602,20.45,0.00799,-0.00838
20.9,1.55383,1.51532,20.5,0.01369,-0.00687
20.95,1.55821,1.51435,20.55,0.01412,-0.00537
21,1.56715,1.51314,20.6,0.01929,-0.00391
21.05,1.56209,1.51174,20.65,0.01722,-0.00251
21.1,1.55085,1.51017,20.7,0.01856,-0.00122
21.15,1.5605,1.50848,20.75,0.0238,-5.13E-05
21.2,1.56923,1.50672,20.8,0.02628,9.69E-04
21.25,1.55823,1.50494,20.85,0.03083,0.00184
21.3,1.56493,1.50321,20.9,0.03393,0.00259
21.35,1.56219,1.50157,20.95,0.04203,0.00324
21.4,1.56009,1.50006,21,0.0449,0.00383
21.45,1.55782,1.49874,21.05,0.04686,0.00439
21.5,1.55196,1.4976,21.1,0.04665,0.00495
21.55,1.56077,1.49668,21.15,0.04427,0.00552
21.6,1.54742,1.49598,21.2,0.05021,0.0061
21.65,1.54571,1.49549,21.25,0.04943,0.00668
21.7,1.53793,1.49522,21.3,0.05121,0.00721
21.75,1.53397,1.49515,21.35,0.05355,0.00767
21.8,1.54281,1.49528,21.4,0.05371,0.00802
21.85,1.53818,1.49558,21.45,0.04765,0.00823
21.9,1.52345,1.49605,21.5,0.05286,0.00829
21.95,1.52321,1.49664,21.55,0.05276,0.00821
22,1.53917,1.49732,21.6,0.05197,0.00798
22.05,1.51859,1.49807,21.65,0.05488,0.00763
22.1,1.52822,1.49884,21.7,0.05145,0.00718
22.15,1.51068,1.49962,21.75,0.04908,0.00667
22.2,1.51663,1.50037,21.8,0.04822,0.00613
22.25,1.51505,1.50109,21.85,0.04391,0.00558
22.3,1.51377,1.50176,21.9,0.04119,0.00505
22.35,1.50419,1.50237,21.95,0.04303,0.00455
22.4,1.50901,1.5029,22,0.04274,0.00411
22.45,1.52378,1.50332,22.05,0.03418,0.00373
22.5,1.50704,1.50361,22.1,0.02858,0.00343
22.55,1.50176,1.50374,22.15,0.02895,0.0032
22.6,1.51188,1.50366,22.2,0.03309,0.00305
22.65,1.50882,1.50338,22.25,0.03434,0.00298
22.7,1.51731,1.50286,22.3,0.03635,0.00299
22.75,1.51269,1.50212,22.35,0.03488,0.00306
22.8,1.51766,1.50118,22.4,0.02901,0.00318
22.85,1.51064,1.50005,22.45,0.03002,0.00333
22.9,1.5219,1.49878,22.5,0.03767,0.00349
22.95,1.51127,1.49741,22.55,0.03382,0.00363
23,1.52002,1.496,22.6,0.03546,0.00374
23.05,1.52271,1.49457,22.65,0.03776,0.00379
23.1,1.53716,1.49319,22.7,0.03971,0.00378
23.15,1.51948,1.49189,22.75,0.02265,0.00369
23.2,1.51219,1.4907,22.8,0.01641,0.00353
23.25,1.51984,1.48967,22.85,0.01393,0.00329
23.3,1.50995,1.4888,22.9,0.00827,0.00297
23.35,1.50635,1.48811,22.95,0.00661,0.00257
23.4,1.51238,1.48761,23,0.00694,0.00208
23.45,1.50142,1.48731,23.05,-0.0102,0.00151
23.5,1.51307,1.48721,23.1,-0.01217,8.54E-04
23.55,1.48189,1.4873,23.15,-0.01219,1.02E-04
23.6,1.47534,1.48759,23.2,-0.02002,-7.41E-04
23.65,1.49913,1.48807,23.25,-0.02255,-0.00167
23.7,1.48285,1.48874,23.3,-0.03131,-0.00268
23.75,1.46522,1.48959,23.35,-0.03393,-0.00376
23.8,1.47486,1.49062,23.4,-0.03233,-0.0049
23.85,1.45979,1.49181,23.45,-0.03739,-0.00606
23.9,1.45035,1.49314,23.5,-0.03708,-0.00724
23.95,1.44338,1.49459,23.55,-0.03907,-0.0084
24,1.44128,1.49611,23.6,-0.0441,-0.00952
,,1.49769,23.65,-0.04313,-0.01058
,,1.49929,23.7,-0.04108,-0.01155
,,1.50087,23.75,-0.03941,-0.01241
,,1.50241,23.8,-0.04028,-0.01313
,,1.50389,23.85,-0.03904,-0.01368
,,1.50529,23.9,-0.04376,-0.01405
,,1.50659,23.95,-0.0421,-0.01421
,,1.5078,24,-0.02887,-0.01417
,,1.50889,24.05,-0.03677,-0.0139
,,1.50988,24.1,-0.01952,-0.0134
,,1.51077,24.15,-0.01682,-0.01268
,,1.51154,24.2,-0.00577,-0.01176
,,1.51221,24.25,-0.00387,-0.01063
,,1.51278,24.3,-8.44E-04,-0.00932
,,1.51324,24.35,8.00E-04,-0.00786
,,1.51361,24.4,0.01033,-0.00627
,,1.51387,24.45,0.00635,-0.00458
,,1.51405,24.5,0.00669,-0.00282
,,1.51413,24.55,0.01205,-0.00103
,,1.51414,24.6,0.01715,7.56E-04
,,1.51408,24.65,0.01747,0.0025
,,1.51395,24.7,0.02237,0.00418
,,1.51378,24.75,0.02651,0.00575
,,1.51357,24.8,0.02311,0.0072
,,1.51331,24.85,0.02593,0.0085
,,1.51301,24.9,0.02207,0.00964
,,1.51266,24.95,0.01002,0.01061
,,1.51225,25,0.03232,0.01141
,,1.51176,,,0.01205
,,1.51117,,,0.01252
,,1.51048,,,0.01285
,,1.50967,,,0.01303
,,1.50874,,,0.0131
,,1.50769,,,0.01307
,,1.50652,,,0.01296
,,1.50524,,,0.01279
,,1.50385,,,0.01258
,,1.50236,,,0.01234
,,1.50078,,,0.0121
,,1.49913,,,0.01185
,,1.49742,,,0.0116
,,1.49568,,,0.01134
,,1.49393,,,0.01107
,,1.49221,,,0.01078
,,1.49055,,,0.01044
,,1.48898,,,0.01006
,,1.48754,,,0.00961
,,1.48625,,,0.00907
,,1.48514,,,0.00844
,,1.48423,,,0.0077
,,1.48353,,,0.00685
,,1.48305,,,0.00589
,,1.48279,,,0.00481
,,1.48273,,,0.00364
,,1.48286,,,0.00238
,,1.48317,,,0.00105
,,1.48364,,,-3.32E-04
,,1.48423,,,-0.00173
,,1.48492,,,-0.00314
,,1.48571,,,-0.00451
,,1.48655,,,-0.00584
,,1.48744,,,-0.0071
,,1.48835,,,-0.00828
,,1.48928,,,-0.00934
,,1.49019,,,-0.01029
,,1.4911,,,-0.0111
,,1.49197,,,-0.01178
,,1.49281,,,-0.01231
,,1.49362,,,-0.0127
,,1.49438,,,-0.01294
,,1.49511,,,-0.01306
,,1.4958,,,-0.01304
,,1.49646,,,-0.01292
,,1.49711,,,-0.01269
,,1.49774,,,-0.01237
,,1.49837,,,-0.01197
,,1.499,,,-0.01151
,,1.49963,,,-0.011
,,1.50027,,,-0.01045
,,1.50092,,,-0.00988
,,1.50157,,,-0.00929
,,1.50223,,,-0.0087
,,1.5029,,,-0.00811
,,1.50358,,,-0.00755
,,1.50427,,,-0.007
,,1.50498,,,-0.00648
,,1.50569,,,-0.00599
,,1.50642,,,-0.00553
,,1.50715,,,-0.0051
,,1.50788,,,-0.00468
,,1.50861,,,-0.00427
,,1.50933,,,-0.00387
,,1.51003,,,-0.00346
,,1.5107,,,-0.00304
,,1.51132,,,-0.0026
,,1.5119,,,-0.00213
,,1.51242,,,-0.00164
,,1.51287,,,-0.00112
,,1.51325,,,-5.64E-04
,,1.51354,,,1.57E-05
,,1.51375,,,6.20E-04
,,1.51387,,,0.00125
,,1.5139,,,0.00189
,,1.51385,,,0.00255
,,1.51371,,,0.00322
,,1.51348,,,0.0039
,,1.51316,,,0.00458
,,1.51276,,,0.00527
,,1.51227,,,0.00595
,,1.51169,,,0.00662
,,1.51103,,,0.00728
,,1.51029,,,0.00793
,,1.50947,,,0.00856
,,1.50857,,,0.00917
,,1.50761,,,0.00976
,,1.50659,,,0.01031
,,1.50552,,,0.01082
,,1.50442,,,0.01128
,,1.50328,,,0.0117
,,,,,0.01205
,,,,,0.01233
,,,,,0.01254
,,,,,0.01266
,,,,,0.0127
,,,,,0.01264
,,,,,0.01249
,,,,,0.01224