File: FTIR/Mary/Mechano/CoCrystal/2025_07_09_L_Proline_MC_Lot_131547_25G_Scan1.csv
Created as New Dataset,Sample 801 By YargerLab Date Wednesday, July 09 2025
cm-1,A
4000.00,0.0101
3997.00,0.0101
3994.00,0.0101
3991.00,0.0101
3988.00,0.0102
3985.00,0.0102
3982.00,0.0101
3979.00,0.0101
3976.00,0.0101
3973.00,0.0101
3970.00,0.0101
3967.00,0.0102
3964.00,0.0102
3961.00,0.0101
3958.00,0.0102
3955.00,0.0101
3952.00,0.0101
3949.00,0.0102
3946.00,0.0102
3943.00,0.0101
3940.00,0.0101
3937.00,0.0101
3934.00,0.0101
3931.00,0.0101
3928.00,0.0101
3925.00,0.0101
3922.00,0.0101
3919.00,0.0102
3916.00,0.0102
3913.00,0.0102
3910.00,0.0102
3907.00,0.0101
3904.00,0.0100
3901.00,0.0100
3898.00,0.0100
3895.00,0.0101
3892.00,0.0101
3889.00,0.0100
3886.00,0.0100
3883.00,0.0100
3880.00,0.0101
3877.00,0.0101
3874.00,0.0101
3871.00,0.0101
3868.00,0.0101
3865.00,0.0101
3862.00,0.0100
3859.00,0.0100
3856.00,0.0099
3853.00,0.0100
3850.00,0.0101
3847.00,0.0101
3844.00,0.0100
3841.00,0.0100
3838.00,0.0100
3835.00,0.0100
3832.00,0.0100
3829.00,0.0100
3826.00,0.0099
3823.00,0.0098
3820.00,0.0099
3817.00,0.0099
3814.00,0.0099
3811.00,0.0099
3808.00,0.0098
3805.00,0.0099
3802.00,0.0100
3799.00,0.0099
3796.00,0.0099
3793.00,0.0099
3790.00,0.0098
3787.00,0.0098
3784.00,0.0098
3781.00,0.0098
3778.00,0.0098
3775.00,0.0098
3772.00,0.0097
3769.00,0.0098
3766.00,0.0098
3763.00,0.0097
3760.00,0.0098
3757.00,0.0098
3754.00,0.0097
3751.00,0.0097
3748.00,0.0097
3745.00,0.0097
3742.00,0.0096
3739.00,0.0096
3736.00,0.0095
3733.00,0.0094
3730.00,0.0093
3727.00,0.0093
3724.00,0.0093
3721.00,0.0093
3718.00,0.0093
3715.00,0.0093
3712.00,0.0095
3709.00,0.0094
3706.00,0.0092
3703.00,0.0092
3700.00,0.0092
3697.00,0.0092
3694.00,0.0092
3691.00,0.0092
3688.00,0.0092
3685.00,0.0092
3682.00,0.0092
3679.00,0.0092
3676.00,0.0092
3673.00,0.0091
3670.00,0.0092
3667.00,0.0093
3664.00,0.0093
3661.00,0.0093
3658.00,0.0092
3655.00,0.0091
3652.00,0.0091
3649.00,0.0091
3646.00,0.0093
3643.00,0.0093
3640.00,0.0092
3637.00,0.0091
3634.00,0.0090
3631.00,0.0089
3628.00,0.0089
3625.00,0.0090
3622.00,0.0090
3619.00,0.0090
3616.00,0.0090
3613.00,0.0091
3610.00,0.0092
3607.00,0.0092
3604.00,0.0091
3601.00,0.0091
3598.00,0.0090
3595.00,0.0090
3592.00,0.0090
3589.00,0.0090
3586.00,0.0090
3583.00,0.0091
3580.00,0.0091
3577.00,0.0092
3574.00,0.0091
3571.00,0.0091
3568.00,0.0091
3565.00,0.0092
3562.00,0.0092
3559.00,0.0093
3556.00,0.0093
3553.00,0.0093
3550.00,0.0093
3547.00,0.0093
3544.00,0.0093
3541.00,0.0094
3538.00,0.0095
3535.00,0.0095
3532.00,0.0096
3529.00,0.0098
3526.00,0.0099
3523.00,0.0101
3520.00,0.0102
3517.00,0.0102
3514.00,0.0101
3511.00,0.0100
3508.00,0.0099
3505.00,0.0098
3502.00,0.0098
3499.00,0.0098
3496.00,0.0098
3493.00,0.0097
3490.00,0.0098
3487.00,0.0098
3484.00,0.0098
3481.00,0.0098
3478.00,0.0098
3475.00,0.0098
3472.00,0.0098
3469.00,0.0099
3466.00,0.0099
3463.00,0.0100
3460.00,0.0100
3457.00,0.0100
3454.00,0.0101
3451.00,0.0101
3448.00,0.0102
3445.00,0.0102
3442.00,0.0102
3439.00,0.0103
3436.00,0.0103
3433.00,0.0104
3430.00,0.0104
3427.00,0.0104
3424.00,0.0104
3421.00,0.0105
3418.00,0.0105
3415.00,0.0106
3412.00,0.0106
3409.00,0.0107
3406.00,0.0107
3403.00,0.0106
3400.00,0.0106
3397.00,0.0105
3394.00,0.0104
3391.00,0.0103
3388.00,0.0102
3385.00,0.0102
3382.00,0.0101
3379.00,0.0100
3376.00,0.0099
3373.00,0.0099
3370.00,0.0098
3367.00,0.0098
3364.00,0.0098
3361.00,0.0098
3358.00,0.0097
3355.00,0.0097
3352.00,0.0096
3349.00,0.0096
3346.00,0.0095
3343.00,0.0095
3340.00,0.0095
3337.00,0.0095
3334.00,0.0095
3331.00,0.0094
3328.00,0.0094
3325.00,0.0094
3322.00,0.0094
3319.00,0.0094
3316.00,0.0094
3313.00,0.0094
3310.00,0.0094
3307.00,0.0094
3304.00,0.0093
3301.00,0.0094
3298.00,0.0094
3295.00,0.0093
3292.00,0.0094
3289.00,0.0094
3286.00,0.0095
3283.00,0.0096
3280.00,0.0096
3277.00,0.0096
3274.00,0.0095
3271.00,0.0095
3268.00,0.0097
3265.00,0.0099
3262.00,0.0100
3259.00,0.0100
3256.00,0.0101
3253.00,0.0104
3250.00,0.0104
3247.00,0.0104
3244.00,0.0107
3241.00,0.0109
3238.00,0.0109
3235.00,0.0107
3232.00,0.0109
3229.00,0.0113
3226.00,0.0114
3223.00,0.0115
3220.00,0.0116
3217.00,0.0118
3214.00,0.0120
3211.00,0.0122
3208.00,0.0124
3205.00,0.0126
3202.00,0.0128
3199.00,0.0131
3196.00,0.0133
3193.00,0.0136
3190.00,0.0138
3187.00,0.0141
3184.00,0.0144
3181.00,0.0147
3178.00,0.0150
3175.00,0.0152
3172.00,0.0155
3169.00,0.0158
3166.00,0.0161
3163.00,0.0165
3160.00,0.0168
3157.00,0.0171
3154.00,0.0172
3151.00,0.0177
3148.00,0.0183
3145.00,0.0189
3142.00,0.0191
3139.00,0.0195
3136.00,0.0203
3133.00,0.0209
3130.00,0.0214
3127.00,0.0223
3124.00,0.0229
3121.00,0.0233
3118.00,0.0240
3115.00,0.0252
3112.00,0.0265
3109.00,0.0276
3106.00,0.0291
3103.00,0.0305
3100.00,0.0318
3097.00,0.0336
3094.00,0.0353
3091.00,0.0370
3088.00,0.0390
3085.00,0.0411
3082.00,0.0434
3079.00,0.0459
3076.00,0.0488
3073.00,0.0515
3070.00,0.0538
3067.00,0.0560
3064.00,0.0583
3061.00,0.0602
3058.00,0.0616
3055.00,0.0627
3052.00,0.0633
3049.00,0.0636
3046.00,0.0633
3043.00,0.0627
3040.00,0.0620
3037.00,0.0611
3034.00,0.0599
3031.00,0.0588
3028.00,0.0575
3025.00,0.0562
3022.00,0.0551
3019.00,0.0543
3016.00,0.0542
3013.00,0.0551
3010.00,0.0565
3007.00,0.0569
3004.00,0.0558
3001.00,0.0543
2998.00,0.0534
2995.00,0.0534
2992.00,0.0552
2989.00,0.0603
2986.00,0.0680
2983.00,0.0718
2980.00,0.0678
2977.00,0.0624
2974.00,0.0592
2971.00,0.0575
2968.00,0.0562
2965.00,0.0552
2962.00,0.0552
2959.00,0.0561
2956.00,0.0569
2953.00,0.0562
2950.00,0.0548
2947.00,0.0530
2944.00,0.0516
2941.00,0.0505
2938.00,0.0498
2935.00,0.0493
2932.00,0.0489
2929.00,0.0484
2926.00,0.0479
2923.00,0.0473
2920.00,0.0467
2917.00,0.0462
2914.00,0.0457
2911.00,0.0453
2908.00,0.0448
2905.00,0.0443
2902.00,0.0441
2899.00,0.0437
2896.00,0.0431
2893.00,0.0426
2890.00,0.0423
2887.00,0.0422
2884.00,0.0423
2881.00,0.0426
2878.00,0.0427
2875.00,0.0425
2872.00,0.0421
2869.00,0.0416
2866.00,0.0413
2863.00,0.0410
2860.00,0.0410
2857.00,0.0412
2854.00,0.0412
2851.00,0.0410
2848.00,0.0408
2845.00,0.0408
2842.00,0.0407
2839.00,0.0406
2836.00,0.0408
2833.00,0.0411
2830.00,0.0417
2827.00,0.0422
2824.00,0.0427
2821.00,0.0435
2818.00,0.0444
2815.00,0.0453
2812.00,0.0460
2809.00,0.0467
2806.00,0.0472
2803.00,0.0476
2800.00,0.0477
2797.00,0.0481
2794.00,0.0485
2791.00,0.0490
2788.00,0.0497
2785.00,0.0505
2782.00,0.0509
2779.00,0.0512
2776.00,0.0510
2773.00,0.0506
2770.00,0.0500
2767.00,0.0492
2764.00,0.0484
2761.00,0.0476
2758.00,0.0468
2755.00,0.0460
2752.00,0.0453
2749.00,0.0446
2746.00,0.0440
2743.00,0.0436
2740.00,0.0432
2737.00,0.0428
2734.00,0.0426
2731.00,0.0424
2728.00,0.0422
2725.00,0.0420
2722.00,0.0419
2719.00,0.0419
2716.00,0.0417
2713.00,0.0417
2710.00,0.0416
2707.00,0.0417
2704.00,0.0419
2701.00,0.0421
2698.00,0.0424
2695.00,0.0427
2692.00,0.0430
2689.00,0.0434
2686.00,0.0438
2683.00,0.0441
2680.00,0.0444
2677.00,0.0446
2674.00,0.0449
2671.00,0.0451
2668.00,0.0452
2665.00,0.0454
2662.00,0.0456
2659.00,0.0458
2656.00,0.0460
2653.00,0.0462
2650.00,0.0464
2647.00,0.0466
2644.00,0.0467
2641.00,0.0467
2638.00,0.0467
2635.00,0.0467
2632.00,0.0466
2629.00,0.0467
2626.00,0.0467
2623.00,0.0468
2620.00,0.0468
2617.00,0.0467
2614.00,0.0465
2611.00,0.0463
2608.00,0.0461
2605.00,0.0460
2602.00,0.0461
2599.00,0.0462
2596.00,0.0464
2593.00,0.0466
2590.00,0.0468
2587.00,0.0468
2584.00,0.0468
2581.00,0.0468
2578.00,0.0467
2575.00,0.0466
2572.00,0.0464
2569.00,0.0463
2566.00,0.0462
2563.00,0.0462
2560.00,0.0462
2557.00,0.0461
2554.00,0.0461
2551.00,0.0460
2548.00,0.0460
2545.00,0.0460
2542.00,0.0463
2539.00,0.0466
2536.00,0.0470
2533.00,0.0474
2530.00,0.0478
2527.00,0.0483
2524.00,0.0488
2521.00,0.0493
2518.00,0.0499
2515.00,0.0506
2512.00,0.0511
2509.00,0.0515
2506.00,0.0518
2503.00,0.0519
2500.00,0.0520
2497.00,0.0519
2494.00,0.0518
2491.00,0.0516
2488.00,0.0514
2485.00,0.0512
2482.00,0.0511
2479.00,0.0510
2476.00,0.0509
2473.00,0.0509
2470.00,0.0509
2467.00,0.0510
2464.00,0.0509
2461.00,0.0508
2458.00,0.0507
2455.00,0.0504
2452.00,0.0501
2449.00,0.0499
2446.00,0.0499
2443.00,0.0501
2440.00,0.0503
2437.00,0.0507
2434.00,0.0513
2431.00,0.0519
2428.00,0.0526
2425.00,0.0533
2422.00,0.0540
2419.00,0.0547
2416.00,0.0555
2413.00,0.0563
2410.00,0.0570
2407.00,0.0576
2404.00,0.0584
2401.00,0.0591
2398.00,0.0596
2395.00,0.0601
2392.00,0.0606
2389.00,0.0610
2386.00,0.0612
2383.00,0.0610
2380.00,0.0604
2377.00,0.0599
2374.00,0.0597
2371.00,0.0595
2368.00,0.0591
2365.00,0.0588
2362.00,0.0585
2359.00,0.0581
2356.00,0.0578
2353.00,0.0579
2350.00,0.0571
2347.00,0.0568
2344.00,0.0554
2341.00,0.0553
2338.00,0.0556
2335.00,0.0554
2332.00,0.0551
2329.00,0.0547
2326.00,0.0553
2323.00,0.0545
2320.00,0.0534
2317.00,0.0529
2314.00,0.0524
2311.00,0.0515
2308.00,0.0528
2305.00,0.0507
2302.00,0.0504
2299.00,0.0501
2296.00,0.0500
2293.00,0.0498
2290.00,0.0497
2287.00,0.0494
2284.00,0.0486
2281.00,0.0479
2278.00,0.0472
2275.00,0.0467
2272.00,0.0461
2269.00,0.0455
2266.00,0.0447
2263.00,0.0444
2260.00,0.0440
2257.00,0.0433
2254.00,0.0426
2251.00,0.0421
2248.00,0.0417
2245.00,0.0412
2242.00,0.0408
2239.00,0.0405
2236.00,0.0399
2233.00,0.0394
2230.00,0.0390
2227.00,0.0385
2224.00,0.0381
2221.00,0.0377
2218.00,0.0372
2215.00,0.0367
2212.00,0.0364
2209.00,0.0362
2206.00,0.0359
2203.00,0.0355
2200.00,0.0351
2197.00,0.0349
2194.00,0.0344
2191.00,0.0339
2188.00,0.0336
2185.00,0.0328
2182.00,0.0316
2179.00,0.0311
2176.00,0.0297
2173.00,0.0297
2170.00,0.0303
2167.00,0.0303
2164.00,0.0304
2161.00,0.0278
2158.00,0.0245
2155.00,0.0252
2152.00,0.0256
2149.00,0.0254
2146.00,0.0248
2143.00,0.0245
2140.00,0.0243
2137.00,0.0237
2134.00,0.0228
2131.00,0.0232
2128.00,0.0232
2125.00,0.0231
2122.00,0.0229
2119.00,0.0229
2116.00,0.0229
2113.00,0.0226
2110.00,0.0223
2107.00,0.0218
2104.00,0.0215
2101.00,0.0213
2098.00,0.0208
2095.00,0.0204
2092.00,0.0203
2089.00,0.0203
2086.00,0.0203
2083.00,0.0201
2080.00,0.0200
2077.00,0.0196
2074.00,0.0192
2071.00,0.0188
2068.00,0.0184
2065.00,0.0180
2062.00,0.0179
2059.00,0.0179
2056.00,0.0177
2053.00,0.0185
2050.00,0.0185
2047.00,0.0175
2044.00,0.0174
2041.00,0.0172
2038.00,0.0172
2035.00,0.0166
2032.00,0.0158
2029.00,0.0154
2026.00,0.0155
2023.00,0.0157
2020.00,0.0153
2017.00,0.0151
2014.00,0.0152
2011.00,0.0155
2008.00,0.0151
2005.00,0.0148
2002.00,0.0150
1999.00,0.0157
1996.00,0.0159
1993.00,0.0161
1990.00,0.0164
1987.00,0.0166
1984.00,0.0170
1981.00,0.0175
1978.00,0.0154
1975.00,0.0146
1972.00,0.0141
1969.00,0.0136
1966.00,0.0136
1963.00,0.0137
1960.00,0.0134
1957.00,0.0137
1954.00,0.0137
1951.00,0.0136
1948.00,0.0136
1945.00,0.0134
1942.00,0.0130
1939.00,0.0130
1936.00,0.0130
1933.00,0.0129
1930.00,0.0128
1927.00,0.0128
1924.00,0.0127
1921.00,0.0127
1918.00,0.0127
1915.00,0.0126
1912.00,0.0125
1909.00,0.0123
1906.00,0.0122
1903.00,0.0120
1900.00,0.0119
1897.00,0.0117
1894.00,0.0114
1891.00,0.0113
1888.00,0.0114
1885.00,0.0114
1882.00,0.0114
1879.00,0.0114
1876.00,0.0114
1873.00,0.0112
1870.00,0.0110
1867.00,0.0110
1864.00,0.0110
1861.00,0.0109
1858.00,0.0110
1855.00,0.0110
1852.00,0.0110
1849.00,0.0109
1846.00,0.0110
1843.00,0.0112
1840.00,0.0111
1837.00,0.0111
1834.00,0.0111
1831.00,0.0109
1828.00,0.0108
1825.00,0.0108
1822.00,0.0108
1819.00,0.0107
1816.00,0.0107
1813.00,0.0108
1810.00,0.0108
1807.00,0.0109
1804.00,0.0109
1801.00,0.0107
1798.00,0.0107
1795.00,0.0107
1792.00,0.0107
1789.00,0.0107
1786.00,0.0108
1783.00,0.0108
1780.00,0.0108
1777.00,0.0108
1774.00,0.0109
1771.00,0.0111
1768.00,0.0112
1765.00,0.0112
1762.00,0.0113
1759.00,0.0114
1756.00,0.0114
1753.00,0.0115
1750.00,0.0114
1747.00,0.0115
1744.00,0.0116
1741.00,0.0117
1738.00,0.0117
1735.00,0.0117
1732.00,0.0119
1729.00,0.0118
1726.00,0.0120
1723.00,0.0121
1720.00,0.0122
1717.00,0.0124
1714.00,0.0126
1711.00,0.0128
1708.00,0.0129
1705.00,0.0130
1702.00,0.0132
1699.00,0.0139
1696.00,0.0143
1693.00,0.0147
1690.00,0.0149
1687.00,0.0152
1684.00,0.0161
1681.00,0.0165
1678.00,0.0167
1675.00,0.0172
1672.00,0.0174
1669.00,0.0177
1666.00,0.0181
1663.00,0.0185
1660.00,0.0191
1657.00,0.0195
1654.00,0.0204
1651.00,0.0230
1648.00,0.0237
1645.00,0.0274
1642.00,0.0306
1639.00,0.0353
1636.00,0.0452
1633.00,0.0610
1630.00,0.0760
1627.00,0.0968
1624.00,0.1134
1621.00,0.1263
1618.00,0.1298
1615.00,0.1390
1612.00,0.1405
1609.00,0.1412
1606.00,0.1381
1603.00,0.1307
1600.00,0.1214
1597.00,0.1123
1594.00,0.1055
1591.00,0.1016
1588.00,0.1007
1585.00,0.1024
1582.00,0.1062
1579.00,0.1100
1576.00,0.1188
1573.00,0.1267
1570.00,0.1338
1567.00,0.1451
1564.00,0.1531
1561.00,0.1548
1558.00,0.1750
1555.00,0.1772
1552.00,0.1772
1549.00,0.1757
1546.00,0.1706
1543.00,0.1651
1540.00,0.1615
1537.00,0.1558
1534.00,0.1453
1531.00,0.1390
1528.00,0.1299
1525.00,0.1227
1522.00,0.1155
1519.00,0.1103
1516.00,0.1038
1513.00,0.0976
1510.00,0.0911
1507.00,0.0868
1504.00,0.0849
1501.00,0.0792
1498.00,0.0759
1495.00,0.0742
1492.00,0.0704
1489.00,0.0682
1486.00,0.0669
1483.00,0.0670
1480.00,0.0734
1477.00,0.0846
1474.00,0.0917
1471.00,0.0884
1468.00,0.0806
1465.00,0.0765
1462.00,0.0777
1459.00,0.0809
1456.00,0.0967
1453.00,0.1097
1450.00,0.1235
1447.00,0.1239
1444.00,0.1185
1441.00,0.1162
1438.00,0.1125
1435.00,0.1091
1432.00,0.1021
1429.00,0.0951
1426.00,0.0903
1423.00,0.0913
1420.00,0.0980
1417.00,0.1148
1414.00,0.1289
1411.00,0.1428
1408.00,0.1520
1405.00,0.1565
1402.00,0.1570
1399.00,0.1549
1396.00,0.1535
1393.00,0.1562
1390.00,0.1602
1387.00,0.1729
1384.00,0.1901
1381.00,0.2086
1378.00,0.2240
1375.00,0.2275
1372.00,0.2203
1369.00,0.2041
1366.00,0.1871
1363.00,0.1711
1360.00,0.1579
1357.00,0.1451
1354.00,0.1336
1351.00,0.1236
1348.00,0.1144
1345.00,0.1055
1342.00,0.0975
1339.00,0.0907
1336.00,0.0854
1333.00,0.0810
1330.00,0.0781
1327.00,0.0772
1324.00,0.0806
1321.00,0.0916
1318.00,0.0971
1315.00,0.0865
1312.00,0.0750
1309.00,0.0678
1306.00,0.0649
1303.00,0.0679
1300.00,0.0835
1297.00,0.1151
1294.00,0.1332
1291.00,0.1379
1288.00,0.1353
1285.00,0.1258
1282.00,0.1082
1279.00,0.0920
1276.00,0.0809
1273.00,0.0739
1270.00,0.0705
1267.00,0.0712
1264.00,0.0725
1261.00,0.0746
1258.00,0.0851
1255.00,0.0922
1252.00,0.0847
1249.00,0.0740
1246.00,0.0667
1243.00,0.0625
1240.00,0.0598
1237.00,0.0568
1234.00,0.0538
1231.00,0.0515
1228.00,0.0498
1225.00,0.0484
1222.00,0.0468
1219.00,0.0455
1216.00,0.0445
1213.00,0.0432
1210.00,0.0416
1207.00,0.0400
1204.00,0.0386
1201.00,0.0373
1198.00,0.0362
1195.00,0.0352
1192.00,0.0345
1189.00,0.0338
1186.00,0.0334
1183.00,0.0334
1180.00,0.0349
1177.00,0.0398
1174.00,0.0522
1171.00,0.0674
1168.00,0.0661
1165.00,0.0577
1162.00,0.0509
1159.00,0.0431
1156.00,0.0379
1153.00,0.0352
1150.00,0.0335
1147.00,0.0316
1144.00,0.0301
1141.00,0.0291
1138.00,0.0283
1135.00,0.0276
1132.00,0.0270
1129.00,0.0265
1126.00,0.0260
1123.00,0.0255
1120.00,0.0251
1117.00,0.0247
1114.00,0.0244
1111.00,0.0242
1108.00,0.0243
1105.00,0.0248
1102.00,0.0259
1099.00,0.0276
1096.00,0.0302
1093.00,0.0360
1090.00,0.0477
1087.00,0.0621
1084.00,0.0642
1081.00,0.0509
1078.00,0.0391
1075.00,0.0326
1072.00,0.0295
1069.00,0.0283
1066.00,0.0286
1063.00,0.0311
1060.00,0.0362
1057.00,0.0416
1054.00,0.0448
1051.00,0.0465
1048.00,0.0472
1045.00,0.0491
1042.00,0.0568
1039.00,0.0714
1036.00,0.0885
1033.00,0.0936
1030.00,0.0766
1027.00,0.0573
1024.00,0.0446
1021.00,0.0375
1018.00,0.0334
1015.00,0.0304
1012.00,0.0284
1009.00,0.0273
1006.00,0.0268
1003.00,0.0270
1000.00,0.0279
997.00,0.0296
994.00,0.0325
991.00,0.0372
988.00,0.0448
985.00,0.0528
982.00,0.0540
979.00,0.0492
976.00,0.0407
973.00,0.0319
970.00,0.0265
967.00,0.0239
964.00,0.0232
961.00,0.0239
958.00,0.0265
955.00,0.0337
952.00,0.0469
949.00,0.0591
946.00,0.0595
943.00,0.0457
940.00,0.0349
937.00,0.0302
934.00,0.0291
931.00,0.0304
928.00,0.0323
925.00,0.0352
922.00,0.0419
919.00,0.0498
916.00,0.0582
913.00,0.0652
910.00,0.0513
907.00,0.0437
904.00,0.0482
901.00,0.0491
898.00,0.0407
895.00,0.0343
892.00,0.0327
889.00,0.0340
886.00,0.0367
883.00,0.0377
880.00,0.0358
877.00,0.0333
874.00,0.0323
871.00,0.0341
868.00,0.0398
865.00,0.0499
862.00,0.0561
859.00,0.0574
856.00,0.0654
853.00,0.0819
850.00,0.0970
847.00,0.0992
844.00,0.0924
841.00,0.0840
838.00,0.0759
835.00,0.0711
832.00,0.0687
829.00,0.0664
826.00,0.0622
823.00,0.0562
820.00,0.0501
817.00,0.0452
814.00,0.0422
811.00,0.0411
808.00,0.0429
805.00,0.0492
802.00,0.0611
799.00,0.0784
796.00,0.0914
793.00,0.0941
790.00,0.0961
787.00,0.0984
784.00,0.0886
781.00,0.0713
778.00,0.0575
775.00,0.0487
772.00,0.0430
769.00,0.0389
766.00,0.0355
763.00,0.0327
760.00,0.0303
757.00,0.0287
754.00,0.0275
751.00,0.0264
748.00,0.0255
745.00,0.0247
742.00,0.0238
739.00,0.0233
736.00,0.0229
733.00,0.0226
730.00,0.0227
727.00,0.0229
724.00,0.0231
721.00,0.0235
718.00,0.0246
715.00,0.0266
712.00,0.0293
709.00,0.0332
706.00,0.0385
703.00,0.0449
700.00,0.0513
697.00,0.0564
694.00,0.0586
691.00,0.0583
688.00,0.0568
685.00,0.0558
682.00,0.0561
679.00,0.0577
676.00,0.0601
673.00,0.0630
670.00,0.0651
667.00,0.0690
664.00,0.0683
661.00,0.0680
658.00,0.0704
655.00,0.0771
652.00,0.0897
649.00,0.1083
646.00,0.1292
643.00,0.1445
640.00,0.1474
637.00,0.1376
634.00,0.1206
631.00,0.1021
628.00,0.0854
625.00,0.0714
622.00,0.0602
619.00,0.0513
616.00,0.0443
613.00,0.0397
610.00,0.0359
607.00,0.0328
604.00,0.0303
601.00,0.0285
598.00,0.0274
595.00,0.0265
592.00,0.0259
589.00,0.0260
586.00,0.0268
583.00,0.0283
580.00,0.0308
577.00,0.0332
574.00,0.0345
571.00,0.0339
568.00,0.0304
565.00,0.0267
562.00,0.0246
559.00,0.0235
556.00,0.0229
553.00,0.0224
550.00,0.0226
547.00,0.0223
544.00,0.0225
541.00,0.0230
538.00,0.0231
535.00,0.0233
532.00,0.0238
529.00,0.0237
526.00,0.0242
523.00,0.0251
520.00,0.0250
517.00,0.0254
514.00,0.0258
511.00,0.0265
508.00,0.0263
505.00,0.0261
502.00,0.0270
499.00,0.0273
496.00,0.0279
493.00,0.0280
490.00,0.0281
487.00,0.0291
484.00,0.0307
481.00,0.0322
478.00,0.0335
475.00,0.0368
472.00,0.0435
469.00,0.0523
466.00,0.0636
463.00,0.0809
460.00,0.1043
457.00,0.1436
454.00,0.1794
451.00,0.1992
448.00,0.1982
445.00,0.1677
442.00,0.1236
439.00,0.0930
436.00,0.0749
433.00,0.0632
430.00,0.0577
427.00,0.0545
424.00,0.0544
421.00,0.0522
418.00,0.0531
415.00,0.0541
412.00,0.0583
409.00,0.0632
406.00,0.0680
403.00,0.0710
400.00,0.0802