File: FTIR/Mary/Mechano/CoCrystal/2025_07_09_CBD_MC_Pre_Scan1.csv
Created as New Dataset,Sample 798 By YargerLab Date Wednesday, July 09 2025
cm-1,A
4000.00,0.0054
3997.00,0.0054
3994.00,0.0054
3991.00,0.0055
3988.00,0.0055
3985.00,0.0055
3982.00,0.0054
3979.00,0.0055
3976.00,0.0055
3973.00,0.0055
3970.00,0.0055
3967.00,0.0056
3964.00,0.0056
3961.00,0.0055
3958.00,0.0056
3955.00,0.0056
3952.00,0.0056
3949.00,0.0056
3946.00,0.0056
3943.00,0.0056
3940.00,0.0055
3937.00,0.0056
3934.00,0.0056
3931.00,0.0056
3928.00,0.0056
3925.00,0.0056
3922.00,0.0056
3919.00,0.0056
3916.00,0.0056
3913.00,0.0056
3910.00,0.0055
3907.00,0.0055
3904.00,0.0055
3901.00,0.0054
3898.00,0.0054
3895.00,0.0054
3892.00,0.0054
3889.00,0.0054
3886.00,0.0054
3883.00,0.0054
3880.00,0.0054
3877.00,0.0054
3874.00,0.0054
3871.00,0.0053
3868.00,0.0054
3865.00,0.0053
3862.00,0.0053
3859.00,0.0053
3856.00,0.0053
3853.00,0.0052
3850.00,0.0052
3847.00,0.0054
3844.00,0.0054
3841.00,0.0053
3838.00,0.0052
3835.00,0.0052
3832.00,0.0053
3829.00,0.0053
3826.00,0.0052
3823.00,0.0052
3820.00,0.0052
3817.00,0.0052
3814.00,0.0053
3811.00,0.0053
3808.00,0.0053
3805.00,0.0052
3802.00,0.0051
3799.00,0.0051
3796.00,0.0052
3793.00,0.0053
3790.00,0.0053
3787.00,0.0053
3784.00,0.0053
3781.00,0.0052
3778.00,0.0052
3775.00,0.0053
3772.00,0.0053
3769.00,0.0053
3766.00,0.0052
3763.00,0.0053
3760.00,0.0053
3757.00,0.0052
3754.00,0.0052
3751.00,0.0052
3748.00,0.0051
3745.00,0.0051
3742.00,0.0050
3739.00,0.0050
3736.00,0.0050
3733.00,0.0050
3730.00,0.0049
3727.00,0.0050
3724.00,0.0050
3721.00,0.0050
3718.00,0.0051
3715.00,0.0051
3712.00,0.0050
3709.00,0.0049
3706.00,0.0049
3703.00,0.0050
3700.00,0.0050
3697.00,0.0050
3694.00,0.0049
3691.00,0.0048
3688.00,0.0049
3685.00,0.0049
3682.00,0.0049
3679.00,0.0049
3676.00,0.0048
3673.00,0.0048
3670.00,0.0049
3667.00,0.0049
3664.00,0.0050
3661.00,0.0050
3658.00,0.0050
3655.00,0.0049
3652.00,0.0047
3649.00,0.0047
3646.00,0.0048
3643.00,0.0048
3640.00,0.0049
3637.00,0.0048
3634.00,0.0048
3631.00,0.0048
3628.00,0.0048
3625.00,0.0048
3622.00,0.0048
3619.00,0.0048
3616.00,0.0048
3613.00,0.0049
3610.00,0.0050
3607.00,0.0049
3604.00,0.0050
3601.00,0.0051
3598.00,0.0051
3595.00,0.0051
3592.00,0.0051
3589.00,0.0051
3586.00,0.0052
3583.00,0.0053
3580.00,0.0054
3577.00,0.0055
3574.00,0.0056
3571.00,0.0056
3568.00,0.0057
3565.00,0.0059
3562.00,0.0061
3559.00,0.0063
3556.00,0.0066
3553.00,0.0069
3550.00,0.0073
3547.00,0.0078
3544.00,0.0086
3541.00,0.0095
3538.00,0.0109
3535.00,0.0128
3532.00,0.0157
3529.00,0.0203
3526.00,0.0267
3523.00,0.0328
3520.00,0.0360
3517.00,0.0353
3514.00,0.0319
3511.00,0.0275
3508.00,0.0237
3505.00,0.0210
3502.00,0.0193
3499.00,0.0184
3496.00,0.0181
3493.00,0.0180
3490.00,0.0183
3487.00,0.0187
3484.00,0.0192
3481.00,0.0200
3478.00,0.0208
3475.00,0.0218
3472.00,0.0229
3469.00,0.0242
3466.00,0.0254
3463.00,0.0268
3460.00,0.0283
3457.00,0.0298
3454.00,0.0312
3451.00,0.0326
3448.00,0.0339
3445.00,0.0354
3442.00,0.0367
3439.00,0.0381
3436.00,0.0395
3433.00,0.0406
3430.00,0.0419
3427.00,0.0432
3424.00,0.0446
3421.00,0.0464
3418.00,0.0485
3415.00,0.0508
3412.00,0.0529
3409.00,0.0542
3406.00,0.0542
3403.00,0.0527
3400.00,0.0497
3397.00,0.0455
3394.00,0.0413
3391.00,0.0372
3388.00,0.0336
3385.00,0.0308
3382.00,0.0285
3379.00,0.0265
3376.00,0.0247
3373.00,0.0232
3370.00,0.0219
3367.00,0.0207
3364.00,0.0196
3361.00,0.0186
3358.00,0.0177
3355.00,0.0170
3352.00,0.0162
3349.00,0.0155
3346.00,0.0149
3343.00,0.0144
3340.00,0.0139
3337.00,0.0134
3334.00,0.0130
3331.00,0.0127
3328.00,0.0123
3325.00,0.0120
3322.00,0.0117
3319.00,0.0114
3316.00,0.0111
3313.00,0.0109
3310.00,0.0107
3307.00,0.0104
3304.00,0.0103
3301.00,0.0101
3298.00,0.0098
3295.00,0.0096
3292.00,0.0094
3289.00,0.0093
3286.00,0.0092
3283.00,0.0090
3280.00,0.0089
3277.00,0.0087
3274.00,0.0086
3271.00,0.0085
3268.00,0.0085
3265.00,0.0085
3262.00,0.0084
3259.00,0.0084
3256.00,0.0083
3253.00,0.0083
3250.00,0.0082
3247.00,0.0081
3244.00,0.0081
3241.00,0.0080
3238.00,0.0079
3235.00,0.0077
3232.00,0.0076
3229.00,0.0076
3226.00,0.0076
3223.00,0.0076
3220.00,0.0075
3217.00,0.0075
3214.00,0.0075
3211.00,0.0075
3208.00,0.0075
3205.00,0.0074
3202.00,0.0074
3199.00,0.0074
3196.00,0.0073
3193.00,0.0073
3190.00,0.0073
3187.00,0.0073
3184.00,0.0073
3181.00,0.0073
3178.00,0.0074
3175.00,0.0073
3172.00,0.0074
3169.00,0.0074
3166.00,0.0074
3163.00,0.0074
3160.00,0.0074
3157.00,0.0073
3154.00,0.0071
3151.00,0.0071
3148.00,0.0071
3145.00,0.0071
3142.00,0.0071
3139.00,0.0070
3136.00,0.0070
3133.00,0.0070
3130.00,0.0069
3127.00,0.0070
3124.00,0.0070
3121.00,0.0069
3118.00,0.0069
3115.00,0.0069
3112.00,0.0069
3109.00,0.0069
3106.00,0.0069
3103.00,0.0069
3100.00,0.0070
3097.00,0.0071
3094.00,0.0071
3091.00,0.0072
3088.00,0.0074
3085.00,0.0079
3082.00,0.0088
3079.00,0.0109
3076.00,0.0134
3073.00,0.0132
3070.00,0.0108
3067.00,0.0090
3064.00,0.0083
3061.00,0.0079
3058.00,0.0077
3055.00,0.0076
3052.00,0.0075
3049.00,0.0077
3046.00,0.0079
3043.00,0.0082
3040.00,0.0085
3037.00,0.0089
3034.00,0.0092
3031.00,0.0092
3028.00,0.0089
3025.00,0.0085
3022.00,0.0083
3019.00,0.0082
3016.00,0.0082
3013.00,0.0084
3010.00,0.0087
3007.00,0.0090
3004.00,0.0092
3001.00,0.0095
2998.00,0.0099
2995.00,0.0104
2992.00,0.0112
2989.00,0.0120
2986.00,0.0127
2983.00,0.0135
2980.00,0.0152
2977.00,0.0180
2974.00,0.0222
2971.00,0.0274
2968.00,0.0320
2965.00,0.0342
2962.00,0.0340
2959.00,0.0324
2956.00,0.0299
2953.00,0.0276
2950.00,0.0270
2947.00,0.0291
2944.00,0.0335
2941.00,0.0377
2938.00,0.0416
2935.00,0.0465
2932.00,0.0519
2929.00,0.0573
2926.00,0.0611
2923.00,0.0615
2920.00,0.0600
2917.00,0.0586
2914.00,0.0563
2911.00,0.0519
2908.00,0.0468
2905.00,0.0423
2902.00,0.0392
2899.00,0.0365
2896.00,0.0334
2893.00,0.0305
2890.00,0.0287
2887.00,0.0278
2884.00,0.0274
2881.00,0.0275
2878.00,0.0283
2875.00,0.0296
2872.00,0.0308
2869.00,0.0304
2866.00,0.0300
2863.00,0.0325
2860.00,0.0390
2857.00,0.0459
2854.00,0.0455
2851.00,0.0380
2848.00,0.0300
2845.00,0.0242
2842.00,0.0206
2839.00,0.0189
2836.00,0.0194
2833.00,0.0228
2830.00,0.0266
2827.00,0.0248
2824.00,0.0195
2821.00,0.0156
2818.00,0.0136
2815.00,0.0125
2812.00,0.0118
2809.00,0.0113
2806.00,0.0109
2803.00,0.0105
2800.00,0.0101
2797.00,0.0099
2794.00,0.0096
2791.00,0.0094
2788.00,0.0092
2785.00,0.0090
2782.00,0.0089
2779.00,0.0087
2776.00,0.0086
2773.00,0.0084
2770.00,0.0084
2767.00,0.0083
2764.00,0.0082
2761.00,0.0081
2758.00,0.0080
2755.00,0.0080
2752.00,0.0080
2749.00,0.0080
2746.00,0.0081
2743.00,0.0082
2740.00,0.0083
2737.00,0.0084
2734.00,0.0087
2731.00,0.0091
2728.00,0.0093
2725.00,0.0090
2722.00,0.0086
2719.00,0.0083
2716.00,0.0081
2713.00,0.0079
2710.00,0.0078
2707.00,0.0077
2704.00,0.0076
2701.00,0.0076
2698.00,0.0075
2695.00,0.0075
2692.00,0.0075
2689.00,0.0076
2686.00,0.0076
2683.00,0.0077
2680.00,0.0078
2677.00,0.0078
2674.00,0.0079
2671.00,0.0080
2668.00,0.0081
2665.00,0.0082
2662.00,0.0083
2659.00,0.0083
2656.00,0.0083
2653.00,0.0083
2650.00,0.0082
2647.00,0.0081
2644.00,0.0080
2641.00,0.0080
2638.00,0.0079
2635.00,0.0079
2632.00,0.0080
2629.00,0.0079
2626.00,0.0079
2623.00,0.0079
2620.00,0.0079
2617.00,0.0079
2614.00,0.0078
2611.00,0.0078
2608.00,0.0078
2605.00,0.0077
2602.00,0.0077
2599.00,0.0076
2596.00,0.0076
2593.00,0.0075
2590.00,0.0074
2587.00,0.0074
2584.00,0.0073
2581.00,0.0074
2578.00,0.0073
2575.00,0.0074
2572.00,0.0074
2569.00,0.0074
2566.00,0.0074
2563.00,0.0073
2560.00,0.0074
2557.00,0.0073
2554.00,0.0072
2551.00,0.0072
2548.00,0.0072
2545.00,0.0072
2542.00,0.0071
2539.00,0.0071
2536.00,0.0071
2533.00,0.0071
2530.00,0.0071
2527.00,0.0071
2524.00,0.0071
2521.00,0.0071
2518.00,0.0071
2515.00,0.0071
2512.00,0.0071
2509.00,0.0071
2506.00,0.0070
2503.00,0.0070
2500.00,0.0070
2497.00,0.0071
2494.00,0.0071
2491.00,0.0070
2488.00,0.0071
2485.00,0.0071
2482.00,0.0071
2479.00,0.0071
2476.00,0.0071
2473.00,0.0072
2470.00,0.0071
2467.00,0.0071
2464.00,0.0071
2461.00,0.0072
2458.00,0.0074
2455.00,0.0075
2452.00,0.0073
2449.00,0.0073
2446.00,0.0072
2443.00,0.0070
2440.00,0.0068
2437.00,0.0067
2434.00,0.0066
2431.00,0.0066
2428.00,0.0065
2425.00,0.0065
2422.00,0.0065
2419.00,0.0064
2416.00,0.0063
2413.00,0.0063
2410.00,0.0062
2407.00,0.0061
2404.00,0.0061
2401.00,0.0061
2398.00,0.0061
2395.00,0.0060
2392.00,0.0060
2389.00,0.0060
2386.00,0.0060
2383.00,0.0058
2380.00,0.0056
2377.00,0.0056
2374.00,0.0057
2371.00,0.0056
2368.00,0.0056
2365.00,0.0056
2362.00,0.0056
2359.00,0.0056
2356.00,0.0057
2353.00,0.0057
2350.00,0.0057
2347.00,0.0059
2344.00,0.0058
2341.00,0.0058
2338.00,0.0060
2335.00,0.0060
2332.00,0.0060
2329.00,0.0062
2326.00,0.0073
2323.00,0.0071
2320.00,0.0066
2317.00,0.0065
2314.00,0.0064
2311.00,0.0062
2308.00,0.0061
2305.00,0.0062
2302.00,0.0062
2299.00,0.0064
2296.00,0.0065
2293.00,0.0068
2290.00,0.0070
2287.00,0.0072
2284.00,0.0071
2281.00,0.0068
2278.00,0.0067
2275.00,0.0067
2272.00,0.0066
2269.00,0.0064
2266.00,0.0062
2263.00,0.0063
2260.00,0.0064
2257.00,0.0063
2254.00,0.0061
2251.00,0.0063
2248.00,0.0063
2245.00,0.0063
2242.00,0.0063
2239.00,0.0064
2236.00,0.0064
2233.00,0.0064
2230.00,0.0062
2227.00,0.0063
2224.00,0.0061
2221.00,0.0059
2218.00,0.0061
2215.00,0.0062
2212.00,0.0058
2209.00,0.0059
2206.00,0.0061
2203.00,0.0061
2200.00,0.0062
2197.00,0.0060
2194.00,0.0059
2191.00,0.0060
2188.00,0.0063
2185.00,0.0063
2182.00,0.0057
2179.00,0.0058
2176.00,0.0054
2173.00,0.0057
2170.00,0.0065
2167.00,0.0070
2164.00,0.0074
2161.00,0.0053
2158.00,0.0020
2155.00,0.0028
2152.00,0.0036
2149.00,0.0038
2146.00,0.0039
2143.00,0.0040
2140.00,0.0042
2137.00,0.0038
2134.00,0.0034
2131.00,0.0039
2128.00,0.0043
2125.00,0.0046
2122.00,0.0049
2119.00,0.0052
2116.00,0.0055
2113.00,0.0054
2110.00,0.0054
2107.00,0.0054
2104.00,0.0053
2101.00,0.0053
2098.00,0.0052
2095.00,0.0048
2092.00,0.0050
2089.00,0.0052
2086.00,0.0055
2083.00,0.0056
2080.00,0.0057
2077.00,0.0056
2074.00,0.0054
2071.00,0.0053
2068.00,0.0053
2065.00,0.0049
2062.00,0.0049
2059.00,0.0052
2056.00,0.0053
2053.00,0.0061
2050.00,0.0062
2047.00,0.0052
2044.00,0.0047
2041.00,0.0050
2038.00,0.0050
2035.00,0.0046
2032.00,0.0042
2029.00,0.0040
2026.00,0.0040
2023.00,0.0041
2020.00,0.0042
2017.00,0.0044
2014.00,0.0043
2011.00,0.0043
2008.00,0.0040
2005.00,0.0038
2002.00,0.0040
1999.00,0.0042
1996.00,0.0044
1993.00,0.0051
1990.00,0.0054
1987.00,0.0057
1984.00,0.0062
1981.00,0.0066
1978.00,0.0046
1975.00,0.0037
1972.00,0.0042
1969.00,0.0040
1966.00,0.0041
1963.00,0.0039
1960.00,0.0037
1957.00,0.0040
1954.00,0.0043
1951.00,0.0043
1948.00,0.0043
1945.00,0.0043
1942.00,0.0042
1939.00,0.0042
1936.00,0.0046
1933.00,0.0045
1930.00,0.0044
1927.00,0.0045
1924.00,0.0045
1921.00,0.0047
1918.00,0.0046
1915.00,0.0049
1912.00,0.0050
1909.00,0.0050
1906.00,0.0051
1903.00,0.0050
1900.00,0.0051
1897.00,0.0051
1894.00,0.0051
1891.00,0.0051
1888.00,0.0051
1885.00,0.0051
1882.00,0.0051
1879.00,0.0051
1876.00,0.0052
1873.00,0.0052
1870.00,0.0051
1867.00,0.0051
1864.00,0.0052
1861.00,0.0052
1858.00,0.0052
1855.00,0.0051
1852.00,0.0052
1849.00,0.0052
1846.00,0.0051
1843.00,0.0051
1840.00,0.0053
1837.00,0.0053
1834.00,0.0053
1831.00,0.0054
1828.00,0.0054
1825.00,0.0056
1822.00,0.0056
1819.00,0.0054
1816.00,0.0054
1813.00,0.0056
1810.00,0.0058
1807.00,0.0061
1804.00,0.0063
1801.00,0.0063
1798.00,0.0062
1795.00,0.0061
1792.00,0.0059
1789.00,0.0059
1786.00,0.0060
1783.00,0.0060
1780.00,0.0061
1777.00,0.0062
1774.00,0.0065
1771.00,0.0067
1768.00,0.0065
1765.00,0.0062
1762.00,0.0061
1759.00,0.0061
1756.00,0.0060
1753.00,0.0060
1750.00,0.0060
1747.00,0.0060
1744.00,0.0060
1741.00,0.0061
1738.00,0.0062
1735.00,0.0062
1732.00,0.0062
1729.00,0.0063
1726.00,0.0064
1723.00,0.0066
1720.00,0.0067
1717.00,0.0067
1714.00,0.0069
1711.00,0.0070
1708.00,0.0071
1705.00,0.0072
1702.00,0.0074
1699.00,0.0076
1696.00,0.0078
1693.00,0.0079
1690.00,0.0081
1687.00,0.0082
1684.00,0.0083
1681.00,0.0084
1678.00,0.0086
1675.00,0.0091
1672.00,0.0094
1669.00,0.0103
1666.00,0.0111
1663.00,0.0119
1660.00,0.0120
1657.00,0.0119
1654.00,0.0126
1651.00,0.0152
1648.00,0.0199
1645.00,0.0316
1642.00,0.0327
1639.00,0.0296
1636.00,0.0353
1633.00,0.0462
1630.00,0.0513
1627.00,0.0566
1624.00,0.0637
1621.00,0.0607
1618.00,0.0468
1615.00,0.0323
1612.00,0.0257
1609.00,0.0212
1606.00,0.0187
1603.00,0.0176
1600.00,0.0180
1597.00,0.0201
1594.00,0.0252
1591.00,0.0364
1588.00,0.0537
1585.00,0.0693
1582.00,0.0780
1579.00,0.0728
1576.00,0.0555
1573.00,0.0415
1570.00,0.0317
1567.00,0.0239
1564.00,0.0192
1561.00,0.0167
1558.00,0.0145
1555.00,0.0135
1552.00,0.0127
1549.00,0.0120
1546.00,0.0114
1543.00,0.0109
1540.00,0.0108
1537.00,0.0108
1534.00,0.0108
1531.00,0.0109
1528.00,0.0112
1525.00,0.0119
1522.00,0.0140
1519.00,0.0182
1516.00,0.0221
1513.00,0.0225
1510.00,0.0197
1507.00,0.0168
1504.00,0.0152
1501.00,0.0145
1498.00,0.0134
1495.00,0.0123
1492.00,0.0115
1489.00,0.0107
1486.00,0.0104
1483.00,0.0105
1480.00,0.0108
1477.00,0.0115
1474.00,0.0129
1471.00,0.0179
1468.00,0.0251
1465.00,0.0302
1462.00,0.0332
1459.00,0.0355
1456.00,0.0404
1453.00,0.0482
1450.00,0.0624
1447.00,0.0818
1444.00,0.0927
1441.00,0.0929
1438.00,0.0883
1435.00,0.0804
1432.00,0.0714
1429.00,0.0577
1426.00,0.0417
1423.00,0.0295
1420.00,0.0232
1417.00,0.0192
1414.00,0.0172
1411.00,0.0158
1408.00,0.0149
1405.00,0.0144
1402.00,0.0140
1399.00,0.0137
1396.00,0.0134
1393.00,0.0131
1390.00,0.0131
1387.00,0.0140
1384.00,0.0164
1381.00,0.0225
1378.00,0.0345
1375.00,0.0432
1372.00,0.0387
1369.00,0.0317
1366.00,0.0270
1363.00,0.0233
1360.00,0.0210
1357.00,0.0201
1354.00,0.0202
1351.00,0.0205
1348.00,0.0216
1345.00,0.0234
1342.00,0.0247
1339.00,0.0234
1336.00,0.0216
1333.00,0.0224
1330.00,0.0250
1327.00,0.0276
1324.00,0.0297
1321.00,0.0279
1318.00,0.0269
1315.00,0.0330
1312.00,0.0412
1309.00,0.0410
1306.00,0.0394
1303.00,0.0418
1300.00,0.0426
1297.00,0.0408
1294.00,0.0378
1291.00,0.0346
1288.00,0.0331
1285.00,0.0361
1282.00,0.0409
1279.00,0.0437
1276.00,0.0423
1273.00,0.0371
1270.00,0.0298
1267.00,0.0235
1264.00,0.0196
1261.00,0.0173
1258.00,0.0162
1255.00,0.0161
1252.00,0.0176
1249.00,0.0207
1246.00,0.0225
1243.00,0.0276
1240.00,0.0395
1237.00,0.0499
1234.00,0.0502
1231.00,0.0454
1228.00,0.0450
1225.00,0.0548
1222.00,0.0682
1219.00,0.0879
1216.00,0.1101
1213.00,0.1136
1210.00,0.0975
1207.00,0.0792
1204.00,0.0649
1201.00,0.0507
1198.00,0.0392
1195.00,0.0328
1192.00,0.0312
1189.00,0.0326
1186.00,0.0349
1183.00,0.0375
1180.00,0.0391
1177.00,0.0402
1174.00,0.0431
1171.00,0.0447
1168.00,0.0340
1165.00,0.0252
1162.00,0.0213
1159.00,0.0204
1156.00,0.0236
1153.00,0.0365
1150.00,0.0470
1147.00,0.0335
1144.00,0.0222
1141.00,0.0189
1138.00,0.0191
1135.00,0.0202
1132.00,0.0189
1129.00,0.0164
1126.00,0.0147
1123.00,0.0139
1120.00,0.0137
1117.00,0.0140
1114.00,0.0145
1111.00,0.0152
1108.00,0.0167
1105.00,0.0189
1102.00,0.0221
1099.00,0.0251
1096.00,0.0227
1093.00,0.0190
1090.00,0.0171
1087.00,0.0166
1084.00,0.0189
1081.00,0.0238
1078.00,0.0248
1075.00,0.0209
1072.00,0.0181
1069.00,0.0168
1066.00,0.0166
1063.00,0.0174
1060.00,0.0201
1057.00,0.0285
1054.00,0.0450
1051.00,0.0531
1048.00,0.0462
1045.00,0.0342
1042.00,0.0311
1039.00,0.0341
1036.00,0.0437
1033.00,0.0583
1030.00,0.0585
1027.00,0.0493
1024.00,0.0513
1021.00,0.0672
1018.00,0.0749
1015.00,0.0626
1012.00,0.0491
1009.00,0.0440
1006.00,0.0470
1003.00,0.0531
1000.00,0.0508
997.00,0.0391
994.00,0.0305
991.00,0.0286
988.00,0.0309
985.00,0.0328
982.00,0.0299
979.00,0.0260
976.00,0.0244
973.00,0.0234
970.00,0.0247
967.00,0.0282
964.00,0.0332
961.00,0.0372
958.00,0.0318
955.00,0.0241
952.00,0.0200
949.00,0.0181
946.00,0.0170
943.00,0.0164
940.00,0.0159
937.00,0.0156
934.00,0.0159
931.00,0.0170
928.00,0.0175
925.00,0.0174
922.00,0.0174
919.00,0.0184
916.00,0.0205
913.00,0.0208
910.00,0.0209
907.00,0.0246
904.00,0.0324
901.00,0.0453
898.00,0.0669
895.00,0.0723
892.00,0.0561
889.00,0.0479
886.00,0.0636
883.00,0.0837
880.00,0.0654
877.00,0.0434
874.00,0.0367
871.00,0.0399
868.00,0.0405
865.00,0.0412
862.00,0.0493
859.00,0.0498
856.00,0.0509
853.00,0.0548
850.00,0.0559
847.00,0.0509
844.00,0.0470
841.00,0.0442
838.00,0.0423
835.00,0.0446
832.00,0.0499
829.00,0.0548
826.00,0.0544
823.00,0.0460
820.00,0.0359
817.00,0.0287
814.00,0.0257
811.00,0.0246
808.00,0.0309
805.00,0.0459
802.00,0.0421
799.00,0.0309
796.00,0.0253
793.00,0.0239
790.00,0.0233
787.00,0.0231
784.00,0.0227
781.00,0.0210
778.00,0.0206
775.00,0.0201
772.00,0.0202
769.00,0.0202
766.00,0.0184
763.00,0.0167
760.00,0.0163
757.00,0.0169
754.00,0.0204
751.00,0.0246
748.00,0.0256
745.00,0.0212
742.00,0.0177
739.00,0.0168
736.00,0.0177
733.00,0.0214
730.00,0.0238
727.00,0.0208
724.00,0.0192
721.00,0.0186
718.00,0.0176
715.00,0.0160
712.00,0.0155
709.00,0.0153
706.00,0.0142
703.00,0.0137
700.00,0.0135
697.00,0.0134
694.00,0.0135
691.00,0.0135
688.00,0.0136
685.00,0.0138
682.00,0.0143
679.00,0.0150
676.00,0.0163
673.00,0.0183
670.00,0.0217
667.00,0.0246
664.00,0.0251
661.00,0.0254
658.00,0.0256
655.00,0.0250
652.00,0.0256
649.00,0.0275
646.00,0.0262
643.00,0.0229
640.00,0.0208
637.00,0.0205
634.00,0.0210
631.00,0.0221
628.00,0.0236
625.00,0.0252
622.00,0.0252
619.00,0.0222
616.00,0.0202
613.00,0.0254
610.00,0.0294
607.00,0.0277
604.00,0.0289
601.00,0.0314
598.00,0.0340
595.00,0.0336
592.00,0.0361
589.00,0.0418
586.00,0.0447
583.00,0.0408
580.00,0.0354
577.00,0.0330
574.00,0.0334
571.00,0.0350
568.00,0.0362
565.00,0.0369
562.00,0.0372
559.00,0.0370
556.00,0.0370
553.00,0.0378
550.00,0.0412
547.00,0.0439
544.00,0.0478
541.00,0.0496
538.00,0.0560
535.00,0.0609
532.00,0.0577
529.00,0.0554
526.00,0.0617
523.00,0.0723
520.00,0.0699
517.00,0.0538
514.00,0.0470
511.00,0.0472
508.00,0.0506
505.00,0.0572
502.00,0.0663
499.00,0.0743
496.00,0.0791
493.00,0.0799
490.00,0.0783
487.00,0.0777
484.00,0.0766
481.00,0.0725
478.00,0.0676
475.00,0.0663
472.00,0.0683
469.00,0.0719
466.00,0.0743
463.00,0.0742
460.00,0.0733
457.00,0.0714
454.00,0.0706
451.00,0.0693
448.00,0.0659
445.00,0.0629
442.00,0.0596
439.00,0.0581
436.00,0.0577
433.00,0.0583
430.00,0.0620
427.00,0.0696
424.00,0.0744
421.00,0.0737
418.00,0.0716
415.00,0.0719
412.00,0.0736
409.00,0.0767
406.00,0.0814
403.00,0.0851
400.00,0.0899