File: FTIR/Mary/Mechano/CoCrystal/2025_07_09_L_Proline_MC_Lot_131547_25G_Scan3.csv
Created as New Dataset,Sample 803 By YargerLab Date Wednesday, July 09 2025
cm-1,A
4000.00,0.0097
3997.00,0.0096
3994.00,0.0097
3991.00,0.0097
3988.00,0.0097
3985.00,0.0097
3982.00,0.0097
3979.00,0.0097
3976.00,0.0097
3973.00,0.0097
3970.00,0.0096
3967.00,0.0097
3964.00,0.0097
3961.00,0.0097
3958.00,0.0097
3955.00,0.0097
3952.00,0.0097
3949.00,0.0097
3946.00,0.0097
3943.00,0.0097
3940.00,0.0096
3937.00,0.0097
3934.00,0.0096
3931.00,0.0096
3928.00,0.0096
3925.00,0.0096
3922.00,0.0097
3919.00,0.0097
3916.00,0.0097
3913.00,0.0097
3910.00,0.0097
3907.00,0.0097
3904.00,0.0097
3901.00,0.0096
3898.00,0.0095
3895.00,0.0095
3892.00,0.0096
3889.00,0.0095
3886.00,0.0095
3883.00,0.0095
3880.00,0.0096
3877.00,0.0096
3874.00,0.0095
3871.00,0.0096
3868.00,0.0096
3865.00,0.0096
3862.00,0.0095
3859.00,0.0095
3856.00,0.0094
3853.00,0.0093
3850.00,0.0094
3847.00,0.0096
3844.00,0.0095
3841.00,0.0094
3838.00,0.0093
3835.00,0.0093
3832.00,0.0094
3829.00,0.0094
3826.00,0.0094
3823.00,0.0093
3820.00,0.0093
3817.00,0.0093
3814.00,0.0093
3811.00,0.0094
3808.00,0.0094
3805.00,0.0093
3802.00,0.0093
3799.00,0.0093
3796.00,0.0094
3793.00,0.0094
3790.00,0.0094
3787.00,0.0094
3784.00,0.0094
3781.00,0.0093
3778.00,0.0093
3775.00,0.0093
3772.00,0.0093
3769.00,0.0093
3766.00,0.0093
3763.00,0.0092
3760.00,0.0092
3757.00,0.0092
3754.00,0.0091
3751.00,0.0090
3748.00,0.0089
3745.00,0.0089
3742.00,0.0088
3739.00,0.0088
3736.00,0.0088
3733.00,0.0088
3730.00,0.0088
3727.00,0.0089
3724.00,0.0089
3721.00,0.0089
3718.00,0.0089
3715.00,0.0089
3712.00,0.0088
3709.00,0.0087
3706.00,0.0087
3703.00,0.0088
3700.00,0.0088
3697.00,0.0088
3694.00,0.0087
3691.00,0.0087
3688.00,0.0087
3685.00,0.0087
3682.00,0.0087
3679.00,0.0086
3676.00,0.0087
3673.00,0.0086
3670.00,0.0086
3667.00,0.0087
3664.00,0.0088
3661.00,0.0089
3658.00,0.0088
3655.00,0.0087
3652.00,0.0086
3649.00,0.0086
3646.00,0.0086
3643.00,0.0087
3640.00,0.0086
3637.00,0.0086
3634.00,0.0086
3631.00,0.0085
3628.00,0.0085
3625.00,0.0086
3622.00,0.0086
3619.00,0.0086
3616.00,0.0086
3613.00,0.0087
3610.00,0.0086
3607.00,0.0086
3604.00,0.0085
3601.00,0.0086
3598.00,0.0085
3595.00,0.0086
3592.00,0.0086
3589.00,0.0086
3586.00,0.0086
3583.00,0.0086
3580.00,0.0087
3577.00,0.0087
3574.00,0.0087
3571.00,0.0087
3568.00,0.0087
3565.00,0.0087
3562.00,0.0087
3559.00,0.0088
3556.00,0.0088
3553.00,0.0089
3550.00,0.0089
3547.00,0.0089
3544.00,0.0090
3541.00,0.0091
3538.00,0.0092
3535.00,0.0093
3532.00,0.0096
3529.00,0.0098
3526.00,0.0103
3523.00,0.0107
3520.00,0.0110
3517.00,0.0110
3514.00,0.0108
3511.00,0.0104
3508.00,0.0101
3505.00,0.0099
3502.00,0.0097
3499.00,0.0097
3496.00,0.0097
3493.00,0.0097
3490.00,0.0097
3487.00,0.0097
3484.00,0.0098
3481.00,0.0098
3478.00,0.0098
3475.00,0.0099
3472.00,0.0100
3469.00,0.0101
3466.00,0.0102
3463.00,0.0103
3460.00,0.0103
3457.00,0.0104
3454.00,0.0106
3451.00,0.0106
3448.00,0.0108
3445.00,0.0108
3442.00,0.0109
3439.00,0.0110
3436.00,0.0111
3433.00,0.0112
3430.00,0.0113
3427.00,0.0113
3424.00,0.0114
3421.00,0.0115
3418.00,0.0117
3415.00,0.0118
3412.00,0.0119
3409.00,0.0120
3406.00,0.0120
3403.00,0.0119
3400.00,0.0117
3397.00,0.0114
3394.00,0.0111
3391.00,0.0108
3388.00,0.0105
3385.00,0.0103
3382.00,0.0101
3379.00,0.0100
3376.00,0.0099
3373.00,0.0098
3370.00,0.0097
3367.00,0.0097
3364.00,0.0096
3361.00,0.0095
3358.00,0.0094
3355.00,0.0094
3352.00,0.0093
3349.00,0.0093
3346.00,0.0092
3343.00,0.0091
3340.00,0.0092
3337.00,0.0091
3334.00,0.0091
3331.00,0.0091
3328.00,0.0091
3325.00,0.0090
3322.00,0.0090
3319.00,0.0090
3316.00,0.0090
3313.00,0.0090
3310.00,0.0090
3307.00,0.0090
3304.00,0.0090
3301.00,0.0090
3298.00,0.0090
3295.00,0.0089
3292.00,0.0090
3289.00,0.0090
3286.00,0.0091
3283.00,0.0092
3280.00,0.0092
3277.00,0.0092
3274.00,0.0092
3271.00,0.0092
3268.00,0.0093
3265.00,0.0095
3262.00,0.0097
3259.00,0.0098
3256.00,0.0098
3253.00,0.0101
3250.00,0.0102
3247.00,0.0101
3244.00,0.0104
3241.00,0.0107
3238.00,0.0107
3235.00,0.0105
3232.00,0.0108
3229.00,0.0112
3226.00,0.0114
3223.00,0.0115
3220.00,0.0116
3217.00,0.0119
3214.00,0.0121
3211.00,0.0124
3208.00,0.0126
3205.00,0.0128
3202.00,0.0131
3199.00,0.0134
3196.00,0.0137
3193.00,0.0140
3190.00,0.0143
3187.00,0.0147
3184.00,0.0150
3181.00,0.0153
3178.00,0.0156
3175.00,0.0160
3172.00,0.0163
3169.00,0.0167
3166.00,0.0170
3163.00,0.0174
3160.00,0.0178
3157.00,0.0182
3154.00,0.0184
3151.00,0.0189
3148.00,0.0197
3145.00,0.0203
3142.00,0.0206
3139.00,0.0211
3136.00,0.0221
3133.00,0.0228
3130.00,0.0234
3127.00,0.0244
3124.00,0.0251
3121.00,0.0257
3118.00,0.0266
3115.00,0.0280
3112.00,0.0295
3109.00,0.0308
3106.00,0.0326
3103.00,0.0342
3100.00,0.0358
3097.00,0.0380
3094.00,0.0401
3091.00,0.0420
3088.00,0.0445
3085.00,0.0470
3082.00,0.0498
3079.00,0.0528
3076.00,0.0563
3073.00,0.0596
3070.00,0.0623
3067.00,0.0648
3064.00,0.0675
3061.00,0.0697
3058.00,0.0713
3055.00,0.0725
3052.00,0.0732
3049.00,0.0735
3046.00,0.0732
3043.00,0.0725
3040.00,0.0716
3037.00,0.0704
3034.00,0.0689
3031.00,0.0675
3028.00,0.0660
3025.00,0.0644
3022.00,0.0630
3019.00,0.0620
3016.00,0.0618
3013.00,0.0627
3010.00,0.0644
3007.00,0.0650
3004.00,0.0639
3001.00,0.0623
2998.00,0.0610
2995.00,0.0609
2992.00,0.0629
2989.00,0.0684
2986.00,0.0777
2983.00,0.0831
2980.00,0.0789
2977.00,0.0723
2974.00,0.0683
2971.00,0.0663
2968.00,0.0648
2965.00,0.0636
2962.00,0.0634
2959.00,0.0643
2956.00,0.0652
2953.00,0.0645
2950.00,0.0626
2947.00,0.0606
2944.00,0.0590
2941.00,0.0579
2938.00,0.0570
2935.00,0.0565
2932.00,0.0562
2929.00,0.0558
2926.00,0.0554
2923.00,0.0547
2920.00,0.0540
2917.00,0.0533
2914.00,0.0527
2911.00,0.0521
2908.00,0.0514
2905.00,0.0507
2902.00,0.0503
2899.00,0.0498
2896.00,0.0490
2893.00,0.0483
2890.00,0.0478
2887.00,0.0477
2884.00,0.0478
2881.00,0.0482
2878.00,0.0483
2875.00,0.0481
2872.00,0.0477
2869.00,0.0472
2866.00,0.0467
2863.00,0.0464
2860.00,0.0465
2857.00,0.0470
2854.00,0.0472
2851.00,0.0468
2848.00,0.0462
2845.00,0.0460
2842.00,0.0458
2839.00,0.0456
2836.00,0.0458
2833.00,0.0463
2830.00,0.0471
2827.00,0.0478
2824.00,0.0482
2821.00,0.0489
2818.00,0.0499
2815.00,0.0509
2812.00,0.0518
2809.00,0.0525
2806.00,0.0532
2803.00,0.0535
2800.00,0.0538
2797.00,0.0542
2794.00,0.0547
2791.00,0.0552
2788.00,0.0560
2785.00,0.0568
2782.00,0.0574
2779.00,0.0576
2776.00,0.0574
2773.00,0.0570
2770.00,0.0563
2767.00,0.0553
2764.00,0.0543
2761.00,0.0533
2758.00,0.0523
2755.00,0.0515
2752.00,0.0506
2749.00,0.0497
2746.00,0.0491
2743.00,0.0485
2740.00,0.0480
2737.00,0.0476
2734.00,0.0474
2731.00,0.0472
2728.00,0.0469
2725.00,0.0467
2722.00,0.0466
2719.00,0.0465
2716.00,0.0464
2713.00,0.0463
2710.00,0.0462
2707.00,0.0464
2704.00,0.0466
2701.00,0.0468
2698.00,0.0471
2695.00,0.0475
2692.00,0.0479
2689.00,0.0483
2686.00,0.0488
2683.00,0.0492
2680.00,0.0495
2677.00,0.0499
2674.00,0.0501
2671.00,0.0503
2668.00,0.0505
2665.00,0.0507
2662.00,0.0509
2659.00,0.0511
2656.00,0.0513
2653.00,0.0516
2650.00,0.0519
2647.00,0.0521
2644.00,0.0522
2641.00,0.0522
2638.00,0.0522
2635.00,0.0522
2632.00,0.0522
2629.00,0.0522
2626.00,0.0523
2623.00,0.0524
2620.00,0.0524
2617.00,0.0523
2614.00,0.0521
2611.00,0.0518
2608.00,0.0517
2605.00,0.0516
2602.00,0.0516
2599.00,0.0517
2596.00,0.0520
2593.00,0.0523
2590.00,0.0525
2587.00,0.0525
2584.00,0.0525
2581.00,0.0525
2578.00,0.0523
2575.00,0.0522
2572.00,0.0521
2569.00,0.0520
2566.00,0.0519
2563.00,0.0519
2560.00,0.0517
2557.00,0.0518
2554.00,0.0517
2551.00,0.0516
2548.00,0.0516
2545.00,0.0518
2542.00,0.0520
2539.00,0.0524
2536.00,0.0528
2533.00,0.0533
2530.00,0.0538
2527.00,0.0544
2524.00,0.0550
2521.00,0.0556
2518.00,0.0564
2515.00,0.0572
2512.00,0.0578
2509.00,0.0582
2506.00,0.0586
2503.00,0.0588
2500.00,0.0589
2497.00,0.0588
2494.00,0.0586
2491.00,0.0583
2488.00,0.0580
2485.00,0.0578
2482.00,0.0577
2479.00,0.0576
2476.00,0.0575
2473.00,0.0575
2470.00,0.0576
2467.00,0.0577
2464.00,0.0576
2461.00,0.0575
2458.00,0.0572
2455.00,0.0570
2452.00,0.0567
2449.00,0.0564
2446.00,0.0563
2443.00,0.0566
2440.00,0.0568
2437.00,0.0573
2434.00,0.0581
2431.00,0.0588
2428.00,0.0597
2425.00,0.0605
2422.00,0.0614
2419.00,0.0622
2416.00,0.0631
2413.00,0.0640
2410.00,0.0649
2407.00,0.0655
2404.00,0.0664
2401.00,0.0673
2398.00,0.0679
2395.00,0.0685
2392.00,0.0691
2389.00,0.0694
2386.00,0.0693
2383.00,0.0687
2380.00,0.0680
2377.00,0.0676
2374.00,0.0673
2371.00,0.0669
2368.00,0.0664
2365.00,0.0661
2362.00,0.0657
2359.00,0.0652
2356.00,0.0648
2353.00,0.0643
2350.00,0.0638
2347.00,0.0631
2344.00,0.0630
2341.00,0.0625
2338.00,0.0621
2335.00,0.0612
2332.00,0.0605
2329.00,0.0607
2326.00,0.0609
2323.00,0.0600
2320.00,0.0594
2317.00,0.0589
2314.00,0.0581
2311.00,0.0577
2308.00,0.0573
2305.00,0.0572
2302.00,0.0570
2299.00,0.0568
2296.00,0.0566
2293.00,0.0563
2290.00,0.0560
2287.00,0.0554
2284.00,0.0545
2281.00,0.0536
2278.00,0.0528
2275.00,0.0522
2272.00,0.0516
2269.00,0.0507
2266.00,0.0500
2263.00,0.0495
2260.00,0.0491
2257.00,0.0483
2254.00,0.0474
2251.00,0.0468
2248.00,0.0463
2245.00,0.0459
2242.00,0.0454
2239.00,0.0448
2236.00,0.0440
2233.00,0.0435
2230.00,0.0430
2227.00,0.0426
2224.00,0.0421
2221.00,0.0416
2218.00,0.0410
2215.00,0.0405
2212.00,0.0400
2209.00,0.0398
2206.00,0.0394
2203.00,0.0388
2200.00,0.0386
2197.00,0.0382
2194.00,0.0377
2191.00,0.0372
2188.00,0.0366
2185.00,0.0358
2182.00,0.0346
2179.00,0.0338
2176.00,0.0326
2173.00,0.0324
2170.00,0.0328
2167.00,0.0328
2164.00,0.0323
2161.00,0.0300
2158.00,0.0267
2155.00,0.0271
2152.00,0.0275
2149.00,0.0273
2146.00,0.0270
2143.00,0.0265
2140.00,0.0262
2137.00,0.0255
2134.00,0.0245
2131.00,0.0246
2128.00,0.0247
2125.00,0.0244
2122.00,0.0242
2119.00,0.0242
2116.00,0.0241
2113.00,0.0237
2110.00,0.0233
2107.00,0.0229
2104.00,0.0226
2101.00,0.0222
2098.00,0.0217
2095.00,0.0211
2092.00,0.0211
2089.00,0.0210
2086.00,0.0210
2083.00,0.0210
2080.00,0.0208
2077.00,0.0204
2074.00,0.0197
2071.00,0.0195
2068.00,0.0192
2065.00,0.0187
2062.00,0.0185
2059.00,0.0183
2056.00,0.0183
2053.00,0.0190
2050.00,0.0187
2047.00,0.0178
2044.00,0.0177
2041.00,0.0176
2038.00,0.0175
2035.00,0.0170
2032.00,0.0164
2029.00,0.0156
2026.00,0.0155
2023.00,0.0157
2020.00,0.0157
2017.00,0.0154
2014.00,0.0155
2011.00,0.0157
2008.00,0.0151
2005.00,0.0150
2002.00,0.0157
1999.00,0.0163
1996.00,0.0165
1993.00,0.0164
1990.00,0.0167
1987.00,0.0168
1984.00,0.0172
1981.00,0.0178
1978.00,0.0159
1975.00,0.0148
1972.00,0.0142
1969.00,0.0138
1966.00,0.0140
1963.00,0.0138
1960.00,0.0137
1957.00,0.0137
1954.00,0.0138
1951.00,0.0138
1948.00,0.0138
1945.00,0.0135
1942.00,0.0133
1939.00,0.0131
1936.00,0.0130
1933.00,0.0129
1930.00,0.0128
1927.00,0.0126
1924.00,0.0125
1921.00,0.0126
1918.00,0.0126
1915.00,0.0125
1912.00,0.0123
1909.00,0.0121
1906.00,0.0120
1903.00,0.0119
1900.00,0.0118
1897.00,0.0115
1894.00,0.0113
1891.00,0.0111
1888.00,0.0113
1885.00,0.0112
1882.00,0.0111
1879.00,0.0111
1876.00,0.0112
1873.00,0.0109
1870.00,0.0106
1867.00,0.0106
1864.00,0.0107
1861.00,0.0107
1858.00,0.0107
1855.00,0.0107
1852.00,0.0108
1849.00,0.0107
1846.00,0.0108
1843.00,0.0111
1840.00,0.0110
1837.00,0.0109
1834.00,0.0109
1831.00,0.0108
1828.00,0.0107
1825.00,0.0107
1822.00,0.0108
1819.00,0.0106
1816.00,0.0106
1813.00,0.0107
1810.00,0.0107
1807.00,0.0108
1804.00,0.0107
1801.00,0.0106
1798.00,0.0106
1795.00,0.0105
1792.00,0.0107
1789.00,0.0107
1786.00,0.0107
1783.00,0.0107
1780.00,0.0108
1777.00,0.0108
1774.00,0.0110
1771.00,0.0113
1768.00,0.0113
1765.00,0.0113
1762.00,0.0115
1759.00,0.0115
1756.00,0.0117
1753.00,0.0116
1750.00,0.0116
1747.00,0.0118
1744.00,0.0119
1741.00,0.0121
1738.00,0.0120
1735.00,0.0120
1732.00,0.0120
1729.00,0.0122
1726.00,0.0123
1723.00,0.0125
1720.00,0.0125
1717.00,0.0129
1714.00,0.0132
1711.00,0.0134
1708.00,0.0136
1705.00,0.0138
1702.00,0.0141
1699.00,0.0148
1696.00,0.0155
1693.00,0.0158
1690.00,0.0161
1687.00,0.0166
1684.00,0.0175
1681.00,0.0179
1678.00,0.0184
1675.00,0.0189
1672.00,0.0190
1669.00,0.0195
1666.00,0.0198
1663.00,0.0203
1660.00,0.0210
1657.00,0.0214
1654.00,0.0229
1651.00,0.0250
1648.00,0.0266
1645.00,0.0312
1642.00,0.0352
1639.00,0.0407
1636.00,0.0524
1633.00,0.0702
1630.00,0.0888
1627.00,0.1132
1624.00,0.1334
1621.00,0.1482
1618.00,0.1539
1615.00,0.1613
1612.00,0.1638
1609.00,0.1642
1606.00,0.1599
1603.00,0.1512
1600.00,0.1401
1597.00,0.1296
1594.00,0.1216
1591.00,0.1173
1588.00,0.1169
1585.00,0.1197
1582.00,0.1248
1579.00,0.1302
1576.00,0.1392
1573.00,0.1474
1570.00,0.1566
1567.00,0.1686
1564.00,0.1786
1561.00,0.1844
1558.00,0.2016
1555.00,0.2051
1552.00,0.2060
1549.00,0.2045
1546.00,0.1996
1543.00,0.1934
1540.00,0.1866
1537.00,0.1777
1534.00,0.1680
1531.00,0.1591
1528.00,0.1497
1525.00,0.1410
1522.00,0.1328
1519.00,0.1254
1516.00,0.1182
1513.00,0.1113
1510.00,0.1042
1507.00,0.0992
1504.00,0.0950
1501.00,0.0898
1498.00,0.0862
1495.00,0.0834
1492.00,0.0794
1489.00,0.0768
1486.00,0.0753
1483.00,0.0757
1480.00,0.0831
1477.00,0.0966
1474.00,0.1055
1471.00,0.1007
1468.00,0.0924
1465.00,0.0878
1462.00,0.0888
1459.00,0.0937
1456.00,0.1104
1453.00,0.1262
1450.00,0.1443
1447.00,0.1455
1444.00,0.1393
1441.00,0.1365
1438.00,0.1325
1435.00,0.1263
1432.00,0.1187
1429.00,0.1099
1426.00,0.1037
1423.00,0.1043
1420.00,0.1120
1417.00,0.1303
1414.00,0.1474
1411.00,0.1641
1408.00,0.1754
1405.00,0.1809
1402.00,0.1814
1399.00,0.1789
1396.00,0.1768
1393.00,0.1787
1390.00,0.1839
1387.00,0.1983
1384.00,0.2185
1381.00,0.2415
1378.00,0.2612
1375.00,0.2668
1372.00,0.2565
1369.00,0.2374
1366.00,0.2166
1363.00,0.1973
1360.00,0.1806
1357.00,0.1655
1354.00,0.1519
1351.00,0.1401
1348.00,0.1292
1345.00,0.1188
1342.00,0.1093
1339.00,0.1013
1336.00,0.0948
1333.00,0.0897
1330.00,0.0866
1327.00,0.0858
1324.00,0.0899
1321.00,0.1026
1318.00,0.1095
1315.00,0.0975
1312.00,0.0843
1309.00,0.0758
1306.00,0.0724
1303.00,0.0763
1300.00,0.0943
1297.00,0.1317
1294.00,0.1539
1291.00,0.1588
1288.00,0.1553
1285.00,0.1437
1282.00,0.1227
1279.00,0.1034
1276.00,0.0903
1273.00,0.0819
1270.00,0.0776
1267.00,0.0783
1264.00,0.0800
1261.00,0.0824
1258.00,0.0945
1255.00,0.1028
1252.00,0.0938
1249.00,0.0811
1246.00,0.0726
1243.00,0.0679
1240.00,0.0653
1237.00,0.0623
1234.00,0.0589
1231.00,0.0560
1228.00,0.0540
1225.00,0.0527
1222.00,0.0514
1219.00,0.0505
1216.00,0.0503
1213.00,0.0490
1210.00,0.0466
1207.00,0.0440
1204.00,0.0418
1201.00,0.0398
1198.00,0.0380
1195.00,0.0366
1192.00,0.0357
1189.00,0.0351
1186.00,0.0348
1183.00,0.0351
1180.00,0.0370
1177.00,0.0428
1174.00,0.0575
1171.00,0.0759
1168.00,0.0743
1165.00,0.0636
1162.00,0.0550
1159.00,0.0457
1156.00,0.0396
1153.00,0.0368
1150.00,0.0354
1147.00,0.0329
1144.00,0.0306
1141.00,0.0293
1138.00,0.0285
1135.00,0.0278
1132.00,0.0271
1129.00,0.0265
1126.00,0.0258
1123.00,0.0253
1120.00,0.0248
1117.00,0.0244
1114.00,0.0241
1111.00,0.0241
1108.00,0.0243
1105.00,0.0251
1102.00,0.0266
1099.00,0.0288
1096.00,0.0319
1093.00,0.0385
1090.00,0.0523
1087.00,0.0691
1084.00,0.0715
1081.00,0.0560
1078.00,0.0420
1075.00,0.0341
1072.00,0.0304
1069.00,0.0289
1066.00,0.0293
1063.00,0.0324
1060.00,0.0387
1057.00,0.0456
1054.00,0.0501
1051.00,0.0526
1048.00,0.0530
1045.00,0.0545
1042.00,0.0633
1039.00,0.0807
1036.00,0.1013
1033.00,0.1081
1030.00,0.0880
1027.00,0.0645
1024.00,0.0492
1021.00,0.0412
1018.00,0.0367
1015.00,0.0328
1012.00,0.0300
1009.00,0.0284
1006.00,0.0279
1003.00,0.0286
1000.00,0.0297
997.00,0.0314
994.00,0.0346
991.00,0.0400
988.00,0.0492
985.00,0.0589
982.00,0.0602
979.00,0.0541
976.00,0.0439
973.00,0.0333
970.00,0.0270
967.00,0.0243
964.00,0.0236
961.00,0.0246
958.00,0.0276
955.00,0.0356
952.00,0.0507
949.00,0.0651
946.00,0.0663
943.00,0.0501
940.00,0.0372
937.00,0.0314
934.00,0.0301
931.00,0.0316
928.00,0.0340
925.00,0.0376
922.00,0.0455
919.00,0.0550
916.00,0.0650
913.00,0.0731
910.00,0.0568
907.00,0.0475
904.00,0.0527
901.00,0.0542
898.00,0.0452
895.00,0.0382
892.00,0.0357
889.00,0.0371
886.00,0.0407
883.00,0.0428
880.00,0.0397
877.00,0.0357
874.00,0.0345
871.00,0.0368
868.00,0.0435
865.00,0.0551
862.00,0.0629
859.00,0.0646
856.00,0.0738
853.00,0.0930
850.00,0.1104
847.00,0.1127
844.00,0.1047
841.00,0.0945
838.00,0.0847
835.00,0.0787
832.00,0.0763
829.00,0.0738
826.00,0.0688
823.00,0.0614
820.00,0.0542
817.00,0.0484
814.00,0.0449
811.00,0.0438
808.00,0.0463
805.00,0.0540
802.00,0.0676
799.00,0.0869
796.00,0.1024
793.00,0.1058
790.00,0.1079
787.00,0.1103
784.00,0.0991
781.00,0.0787
778.00,0.0623
775.00,0.0519
772.00,0.0450
769.00,0.0402
766.00,0.0361
763.00,0.0329
760.00,0.0303
757.00,0.0284
754.00,0.0272
751.00,0.0262
748.00,0.0252
745.00,0.0241
742.00,0.0231
739.00,0.0224
736.00,0.0220
733.00,0.0219
730.00,0.0221
727.00,0.0220
724.00,0.0224
721.00,0.0230
718.00,0.0245
715.00,0.0267
712.00,0.0298
709.00,0.0342
706.00,0.0402
703.00,0.0476
700.00,0.0551
697.00,0.0609
694.00,0.0632
691.00,0.0626
688.00,0.0606
685.00,0.0593
682.00,0.0593
679.00,0.0610
676.00,0.0640
673.00,0.0676
670.00,0.0689
667.00,0.0729
664.00,0.0738
661.00,0.0738
658.00,0.0764
655.00,0.0838
652.00,0.0977
649.00,0.1185
646.00,0.1422
643.00,0.1594
640.00,0.1627
637.00,0.1511
634.00,0.1310
631.00,0.1096
628.00,0.0903
625.00,0.0744
622.00,0.0620
619.00,0.0516
616.00,0.0437
613.00,0.0386
610.00,0.0347
607.00,0.0312
604.00,0.0286
601.00,0.0269
598.00,0.0258
595.00,0.0249
592.00,0.0243
589.00,0.0247
586.00,0.0258
583.00,0.0275
580.00,0.0305
577.00,0.0334
574.00,0.0344
571.00,0.0336
568.00,0.0298
565.00,0.0257
562.00,0.0234
559.00,0.0222
556.00,0.0215
553.00,0.0211
550.00,0.0214
547.00,0.0214
544.00,0.0219
541.00,0.0220
538.00,0.0225
535.00,0.0229
532.00,0.0234
529.00,0.0235
526.00,0.0242
523.00,0.0257
520.00,0.0262
517.00,0.0257
514.00,0.0257
511.00,0.0263
508.00,0.0268
505.00,0.0272
502.00,0.0282
499.00,0.0288
496.00,0.0298
493.00,0.0302
490.00,0.0307
487.00,0.0317
484.00,0.0334
481.00,0.0355
478.00,0.0373
475.00,0.0418
472.00,0.0487
469.00,0.0580
466.00,0.0715
463.00,0.0907
460.00,0.1173
457.00,0.1607
454.00,0.2001
451.00,0.2231
448.00,0.2236
445.00,0.1882
442.00,0.1373
439.00,0.1018
436.00,0.0807
433.00,0.0692
430.00,0.0627
427.00,0.0591
424.00,0.0588
421.00,0.0573
418.00,0.0590
415.00,0.0598
412.00,0.0624
409.00,0.0676
406.00,0.0733
403.00,0.0773
400.00,0.0864