File: FTIR/Mary/Mechano/CoCrystal/2025_07_09_MC_CoCrystal_CBD_LPro_Scan.csv
Created as New Dataset,Sample 806 By YargerLab Date Wednesday, July 09 2025
cm-1,A
4000.00,0.0019
3997.00,0.0019
3994.00,0.0019
3991.00,0.0018
3988.00,0.0019
3985.00,0.0018
3982.00,0.0018
3979.00,0.0019
3976.00,0.0019
3973.00,0.0019
3970.00,0.0019
3967.00,0.0020
3964.00,0.0020
3961.00,0.0020
3958.00,0.0020
3955.00,0.0019
3952.00,0.0019
3949.00,0.0019
3946.00,0.0019
3943.00,0.0019
3940.00,0.0019
3937.00,0.0018
3934.00,0.0018
3931.00,0.0018
3928.00,0.0018
3925.00,0.0018
3922.00,0.0018
3919.00,0.0018
3916.00,0.0018
3913.00,0.0017
3910.00,0.0017
3907.00,0.0017
3904.00,0.0017
3901.00,0.0017
3898.00,0.0016
3895.00,0.0016
3892.00,0.0016
3889.00,0.0016
3886.00,0.0016
3883.00,0.0016
3880.00,0.0016
3877.00,0.0016
3874.00,0.0016
3871.00,0.0015
3868.00,0.0015
3865.00,0.0014
3862.00,0.0015
3859.00,0.0015
3856.00,0.0014
3853.00,0.0013
3850.00,0.0014
3847.00,0.0015
3844.00,0.0015
3841.00,0.0014
3838.00,0.0014
3835.00,0.0013
3832.00,0.0013
3829.00,0.0013
3826.00,0.0013
3823.00,0.0013
3820.00,0.0013
3817.00,0.0012
3814.00,0.0013
3811.00,0.0013
3808.00,0.0013
3805.00,0.0012
3802.00,0.0011
3799.00,0.0011
3796.00,0.0013
3793.00,0.0013
3790.00,0.0013
3787.00,0.0013
3784.00,0.0013
3781.00,0.0012
3778.00,0.0013
3775.00,0.0013
3772.00,0.0012
3769.00,0.0012
3766.00,0.0012
3763.00,0.0013
3760.00,0.0013
3757.00,0.0013
3754.00,0.0012
3751.00,0.0011
3748.00,0.0011
3745.00,0.0011
3742.00,0.0011
3739.00,0.0010
3736.00,0.0010
3733.00,0.0010
3730.00,0.0011
3727.00,0.0011
3724.00,0.0011
3721.00,0.0010
3718.00,0.0010
3715.00,0.0011
3712.00,0.0010
3709.00,0.0010
3706.00,0.0011
3703.00,0.0011
3700.00,0.0010
3697.00,0.0011
3694.00,0.0011
3691.00,0.0010
3688.00,0.0010
3685.00,0.0010
3682.00,0.0011
3679.00,0.0010
3676.00,0.0010
3673.00,0.0009
3670.00,0.0010
3667.00,0.0011
3664.00,0.0012
3661.00,0.0012
3658.00,0.0012
3655.00,0.0011
3652.00,0.0010
3649.00,0.0011
3646.00,0.0012
3643.00,0.0012
3640.00,0.0013
3637.00,0.0013
3634.00,0.0013
3631.00,0.0014
3628.00,0.0015
3625.00,0.0016
3622.00,0.0018
3619.00,0.0018
3616.00,0.0020
3613.00,0.0021
3610.00,0.0021
3607.00,0.0021
3604.00,0.0022
3601.00,0.0022
3598.00,0.0023
3595.00,0.0024
3592.00,0.0025
3589.00,0.0026
3586.00,0.0027
3583.00,0.0029
3580.00,0.0031
3577.00,0.0033
3574.00,0.0036
3571.00,0.0038
3568.00,0.0041
3565.00,0.0044
3562.00,0.0047
3559.00,0.0051
3556.00,0.0055
3553.00,0.0059
3550.00,0.0065
3547.00,0.0071
3544.00,0.0079
3541.00,0.0089
3538.00,0.0101
3535.00,0.0117
3532.00,0.0141
3529.00,0.0176
3526.00,0.0221
3523.00,0.0256
3520.00,0.0266
3517.00,0.0252
3514.00,0.0228
3511.00,0.0207
3508.00,0.0196
3505.00,0.0193
3502.00,0.0196
3499.00,0.0203
3496.00,0.0213
3493.00,0.0226
3490.00,0.0241
3487.00,0.0259
3484.00,0.0277
3481.00,0.0299
3478.00,0.0322
3475.00,0.0350
3472.00,0.0384
3469.00,0.0430
3466.00,0.0492
3463.00,0.0573
3460.00,0.0684
3457.00,0.0825
3454.00,0.0977
3451.00,0.1078
3448.00,0.1071
3445.00,0.0972
3442.00,0.0844
3439.00,0.0733
3436.00,0.0655
3433.00,0.0604
3430.00,0.0573
3427.00,0.0553
3424.00,0.0542
3421.00,0.0538
3418.00,0.0538
3415.00,0.0539
3412.00,0.0538
3409.00,0.0530
3406.00,0.0513
3403.00,0.0488
3400.00,0.0458
3397.00,0.0427
3394.00,0.0400
3391.00,0.0377
3388.00,0.0358
3385.00,0.0343
3382.00,0.0331
3379.00,0.0319
3376.00,0.0310
3373.00,0.0301
3370.00,0.0294
3367.00,0.0286
3364.00,0.0279
3361.00,0.0273
3358.00,0.0268
3355.00,0.0263
3352.00,0.0259
3349.00,0.0255
3346.00,0.0251
3343.00,0.0247
3340.00,0.0243
3337.00,0.0241
3334.00,0.0238
3331.00,0.0235
3328.00,0.0234
3325.00,0.0233
3322.00,0.0232
3319.00,0.0231
3316.00,0.0230
3313.00,0.0229
3310.00,0.0229
3307.00,0.0229
3304.00,0.0230
3301.00,0.0231
3298.00,0.0232
3295.00,0.0232
3292.00,0.0234
3289.00,0.0238
3286.00,0.0241
3283.00,0.0244
3280.00,0.0246
3277.00,0.0248
3274.00,0.0249
3271.00,0.0251
3268.00,0.0258
3265.00,0.0264
3262.00,0.0267
3259.00,0.0270
3256.00,0.0271
3253.00,0.0275
3250.00,0.0277
3247.00,0.0278
3244.00,0.0283
3241.00,0.0287
3238.00,0.0290
3235.00,0.0291
3232.00,0.0296
3229.00,0.0300
3226.00,0.0303
3223.00,0.0306
3220.00,0.0310
3217.00,0.0313
3214.00,0.0317
3211.00,0.0322
3208.00,0.0327
3205.00,0.0331
3202.00,0.0334
3199.00,0.0338
3196.00,0.0340
3193.00,0.0342
3190.00,0.0344
3187.00,0.0345
3184.00,0.0347
3181.00,0.0348
3178.00,0.0350
3175.00,0.0352
3172.00,0.0353
3169.00,0.0354
3166.00,0.0355
3163.00,0.0355
3160.00,0.0355
3157.00,0.0355
3154.00,0.0352
3151.00,0.0356
3148.00,0.0363
3145.00,0.0368
3142.00,0.0371
3139.00,0.0373
3136.00,0.0379
3133.00,0.0383
3130.00,0.0384
3127.00,0.0387
3124.00,0.0388
3121.00,0.0389
3118.00,0.0391
3115.00,0.0395
3112.00,0.0400
3109.00,0.0404
3106.00,0.0409
3103.00,0.0412
3100.00,0.0414
3097.00,0.0415
3094.00,0.0416
3091.00,0.0416
3088.00,0.0418
3085.00,0.0423
3082.00,0.0432
3079.00,0.0450
3076.00,0.0481
3073.00,0.0499
3070.00,0.0493
3067.00,0.0473
3064.00,0.0448
3061.00,0.0423
3058.00,0.0400
3055.00,0.0385
3052.00,0.0375
3049.00,0.0369
3046.00,0.0366
3043.00,0.0365
3040.00,0.0366
3037.00,0.0367
3034.00,0.0368
3031.00,0.0365
3028.00,0.0358
3025.00,0.0349
3022.00,0.0341
3019.00,0.0335
3016.00,0.0331
3013.00,0.0331
3010.00,0.0334
3007.00,0.0338
3004.00,0.0343
3001.00,0.0351
2998.00,0.0362
2995.00,0.0378
2992.00,0.0401
2989.00,0.0422
2986.00,0.0435
2983.00,0.0451
2980.00,0.0484
2977.00,0.0532
2974.00,0.0582
2971.00,0.0634
2968.00,0.0687
2965.00,0.0734
2962.00,0.0792
2959.00,0.0859
2956.00,0.0898
2953.00,0.0901
2950.00,0.0866
2947.00,0.0825
2944.00,0.0844
2941.00,0.0925
2938.00,0.1034
2935.00,0.1165
2932.00,0.1330
2929.00,0.1509
2926.00,0.1627
2923.00,0.1631
2920.00,0.1557
2917.00,0.1452
2914.00,0.1331
2911.00,0.1193
2908.00,0.1055
2905.00,0.0945
2902.00,0.0870
2899.00,0.0813
2896.00,0.0760
2893.00,0.0718
2890.00,0.0689
2887.00,0.0674
2884.00,0.0665
2881.00,0.0664
2878.00,0.0682
2875.00,0.0727
2872.00,0.0781
2869.00,0.0781
2866.00,0.0746
2863.00,0.0777
2860.00,0.0886
2857.00,0.0979
2854.00,0.0948
2851.00,0.0825
2848.00,0.0695
2845.00,0.0605
2842.00,0.0552
2839.00,0.0519
2836.00,0.0527
2833.00,0.0551
2830.00,0.0536
2827.00,0.0464
2824.00,0.0387
2821.00,0.0340
2818.00,0.0313
2815.00,0.0296
2812.00,0.0283
2809.00,0.0272
2806.00,0.0265
2803.00,0.0259
2800.00,0.0253
2797.00,0.0248
2794.00,0.0245
2791.00,0.0241
2788.00,0.0238
2785.00,0.0238
2782.00,0.0237
2779.00,0.0238
2776.00,0.0239
2773.00,0.0241
2770.00,0.0244
2767.00,0.0246
2764.00,0.0248
2761.00,0.0250
2758.00,0.0252
2755.00,0.0253
2752.00,0.0254
2749.00,0.0255
2746.00,0.0256
2743.00,0.0258
2740.00,0.0261
2737.00,0.0266
2734.00,0.0272
2731.00,0.0277
2728.00,0.0278
2725.00,0.0276
2722.00,0.0274
2719.00,0.0272
2716.00,0.0270
2713.00,0.0269
2710.00,0.0269
2707.00,0.0270
2704.00,0.0271
2701.00,0.0271
2698.00,0.0272
2695.00,0.0273
2692.00,0.0274
2689.00,0.0274
2686.00,0.0275
2683.00,0.0275
2680.00,0.0274
2677.00,0.0274
2674.00,0.0275
2671.00,0.0276
2668.00,0.0278
2665.00,0.0280
2662.00,0.0281
2659.00,0.0279
2656.00,0.0276
2653.00,0.0273
2650.00,0.0270
2647.00,0.0268
2644.00,0.0267
2641.00,0.0265
2638.00,0.0263
2635.00,0.0262
2632.00,0.0260
2629.00,0.0259
2626.00,0.0258
2623.00,0.0257
2620.00,0.0255
2617.00,0.0254
2614.00,0.0253
2611.00,0.0251
2608.00,0.0250
2605.00,0.0249
2602.00,0.0246
2599.00,0.0243
2596.00,0.0240
2593.00,0.0237
2590.00,0.0235
2587.00,0.0233
2584.00,0.0231
2581.00,0.0229
2578.00,0.0228
2575.00,0.0227
2572.00,0.0228
2569.00,0.0229
2566.00,0.0231
2563.00,0.0233
2560.00,0.0235
2557.00,0.0237
2554.00,0.0237
2551.00,0.0236
2548.00,0.0233
2545.00,0.0231
2542.00,0.0228
2539.00,0.0224
2536.00,0.0220
2533.00,0.0218
2530.00,0.0216
2527.00,0.0215
2524.00,0.0214
2521.00,0.0212
2518.00,0.0210
2515.00,0.0207
2512.00,0.0203
2509.00,0.0199
2506.00,0.0197
2503.00,0.0195
2500.00,0.0192
2497.00,0.0191
2494.00,0.0190
2491.00,0.0190
2488.00,0.0191
2485.00,0.0191
2482.00,0.0191
2479.00,0.0190
2476.00,0.0189
2473.00,0.0188
2470.00,0.0187
2467.00,0.0187
2464.00,0.0188
2461.00,0.0189
2458.00,0.0191
2455.00,0.0193
2452.00,0.0194
2449.00,0.0194
2446.00,0.0194
2443.00,0.0193
2440.00,0.0192
2437.00,0.0191
2434.00,0.0189
2431.00,0.0188
2428.00,0.0187
2425.00,0.0185
2422.00,0.0184
2419.00,0.0182
2416.00,0.0180
2413.00,0.0178
2410.00,0.0174
2407.00,0.0168
2404.00,0.0165
2401.00,0.0161
2398.00,0.0157
2395.00,0.0153
2392.00,0.0150
2389.00,0.0147
2386.00,0.0143
2383.00,0.0139
2380.00,0.0136
2377.00,0.0133
2374.00,0.0130
2371.00,0.0125
2368.00,0.0122
2365.00,0.0120
2362.00,0.0118
2359.00,0.0116
2356.00,0.0114
2353.00,0.0111
2350.00,0.0109
2347.00,0.0107
2344.00,0.0105
2341.00,0.0104
2338.00,0.0102
2335.00,0.0099
2332.00,0.0096
2329.00,0.0095
2326.00,0.0102
2323.00,0.0099
2320.00,0.0093
2317.00,0.0090
2314.00,0.0086
2311.00,0.0084
2308.00,0.0082
2305.00,0.0081
2302.00,0.0080
2299.00,0.0078
2296.00,0.0077
2293.00,0.0078
2290.00,0.0078
2287.00,0.0077
2284.00,0.0074
2281.00,0.0072
2278.00,0.0070
2275.00,0.0067
2272.00,0.0065
2269.00,0.0064
2266.00,0.0064
2263.00,0.0065
2260.00,0.0065
2257.00,0.0062
2254.00,0.0058
2251.00,0.0056
2248.00,0.0056
2245.00,0.0055
2242.00,0.0056
2239.00,0.0055
2236.00,0.0053
2233.00,0.0054
2230.00,0.0052
2227.00,0.0049
2224.00,0.0049
2221.00,0.0048
2218.00,0.0049
2215.00,0.0048
2212.00,0.0046
2209.00,0.0045
2206.00,0.0044
2203.00,0.0043
2200.00,0.0042
2197.00,0.0042
2194.00,0.0042
2191.00,0.0041
2188.00,0.0043
2185.00,0.0042
2182.00,0.0037
2179.00,0.0035
2176.00,0.0028
2173.00,0.0035
2170.00,0.0042
2167.00,0.0043
2164.00,0.0046
2161.00,0.0031
2158.00,0.0000
2155.00,0.0007
2152.00,0.0014
2149.00,0.0016
2146.00,0.0014
2143.00,0.0017
2140.00,0.0017
2137.00,0.0011
2134.00,0.0006
2131.00,0.0011
2128.00,0.0016
2125.00,0.0017
2122.00,0.0020
2119.00,0.0023
2116.00,0.0023
2113.00,0.0023
2110.00,0.0022
2107.00,0.0019
2104.00,0.0020
2101.00,0.0019
2098.00,0.0017
2095.00,0.0016
2092.00,0.0018
2089.00,0.0019
2086.00,0.0020
2083.00,0.0021
2080.00,0.0019
2077.00,0.0018
2074.00,0.0015
2071.00,0.0013
2068.00,0.0012
2065.00,0.0009
2062.00,0.0008
2059.00,0.0008
2056.00,0.0008
2053.00,0.0015
2050.00,0.0017
2047.00,0.0011
2044.00,0.0007
2041.00,0.0007
2038.00,0.0008
2035.00,0.0009
2032.00,0.0004
2029.00,0.0003
2026.00,0.0003
2023.00,0.0006
2020.00,0.0006
2017.00,0.0006
2014.00,0.0005
2011.00,0.0007
2008.00,0.0002
2005.00,0.0002
2002.00,0.0005
1999.00,0.0006
1996.00,0.0012
1993.00,0.0016
1990.00,0.0018
1987.00,0.0020
1984.00,0.0023
1981.00,0.0027
1978.00,0.0014
1975.00,0.0006
1972.00,0.0007
1969.00,0.0007
1966.00,0.0009
1963.00,0.0009
1960.00,0.0008
1957.00,0.0009
1954.00,0.0010
1951.00,0.0011
1948.00,0.0012
1945.00,0.0014
1942.00,0.0014
1939.00,0.0014
1936.00,0.0014
1933.00,0.0016
1930.00,0.0016
1927.00,0.0016
1924.00,0.0017
1921.00,0.0019
1918.00,0.0021
1915.00,0.0019
1912.00,0.0020
1909.00,0.0019
1906.00,0.0019
1903.00,0.0019
1900.00,0.0019
1897.00,0.0019
1894.00,0.0019
1891.00,0.0020
1888.00,0.0021
1885.00,0.0019
1882.00,0.0020
1879.00,0.0022
1876.00,0.0023
1873.00,0.0023
1870.00,0.0023
1867.00,0.0024
1864.00,0.0023
1861.00,0.0023
1858.00,0.0023
1855.00,0.0023
1852.00,0.0024
1849.00,0.0025
1846.00,0.0027
1843.00,0.0028
1840.00,0.0028
1837.00,0.0028
1834.00,0.0028
1831.00,0.0028
1828.00,0.0029
1825.00,0.0030
1822.00,0.0029
1819.00,0.0029
1816.00,0.0028
1813.00,0.0030
1810.00,0.0033
1807.00,0.0035
1804.00,0.0038
1801.00,0.0040
1798.00,0.0040
1795.00,0.0042
1792.00,0.0047
1789.00,0.0050
1786.00,0.0058
1783.00,0.0058
1780.00,0.0055
1777.00,0.0057
1774.00,0.0060
1771.00,0.0060
1768.00,0.0056
1765.00,0.0052
1762.00,0.0052
1759.00,0.0052
1756.00,0.0051
1753.00,0.0052
1750.00,0.0053
1747.00,0.0053
1744.00,0.0053
1741.00,0.0052
1738.00,0.0054
1735.00,0.0058
1732.00,0.0060
1729.00,0.0062
1726.00,0.0064
1723.00,0.0066
1720.00,0.0067
1717.00,0.0070
1714.00,0.0074
1711.00,0.0076
1708.00,0.0079
1705.00,0.0083
1702.00,0.0085
1699.00,0.0089
1696.00,0.0092
1693.00,0.0094
1690.00,0.0097
1687.00,0.0098
1684.00,0.0106
1681.00,0.0114
1678.00,0.0121
1675.00,0.0133
1672.00,0.0145
1669.00,0.0169
1666.00,0.0193
1663.00,0.0223
1660.00,0.0258
1657.00,0.0294
1654.00,0.0355
1651.00,0.0493
1648.00,0.0628
1645.00,0.0974
1642.00,0.1261
1639.00,0.1477
1636.00,0.1758
1633.00,0.2036
1630.00,0.2037
1627.00,0.1828
1624.00,0.1565
1621.00,0.1264
1618.00,0.1004
1615.00,0.0782
1612.00,0.0669
1609.00,0.0595
1606.00,0.0562
1603.00,0.0565
1600.00,0.0607
1597.00,0.0700
1594.00,0.0895
1591.00,0.1236
1588.00,0.1672
1585.00,0.2060
1582.00,0.2340
1579.00,0.2437
1576.00,0.2372
1573.00,0.2238
1570.00,0.2054
1567.00,0.1843
1564.00,0.1619
1561.00,0.1429
1558.00,0.1166
1555.00,0.1007
1552.00,0.0866
1549.00,0.0751
1546.00,0.0668
1543.00,0.0599
1540.00,0.0550
1537.00,0.0522
1534.00,0.0513
1531.00,0.0531
1528.00,0.0576
1525.00,0.0629
1522.00,0.0637
1519.00,0.0602
1516.00,0.0543
1513.00,0.0491
1510.00,0.0439
1507.00,0.0393
1504.00,0.0358
1501.00,0.0332
1498.00,0.0310
1495.00,0.0294
1492.00,0.0285
1489.00,0.0280
1486.00,0.0282
1483.00,0.0296
1480.00,0.0327
1477.00,0.0372
1474.00,0.0434
1471.00,0.0591
1468.00,0.0732
1465.00,0.0755
1462.00,0.0815
1459.00,0.0965
1456.00,0.1292
1453.00,0.1586
1450.00,0.2004
1447.00,0.2460
1444.00,0.2706
1441.00,0.2658
1438.00,0.2393
1435.00,0.2070
1432.00,0.1800
1429.00,0.1454
1426.00,0.1160
1423.00,0.0958
1420.00,0.0860
1417.00,0.0815
1414.00,0.0797
1411.00,0.0795
1408.00,0.0806
1405.00,0.0832
1402.00,0.0855
1399.00,0.0859
1396.00,0.0833
1393.00,0.0780
1390.00,0.0730
1387.00,0.0702
1384.00,0.0738
1381.00,0.0924
1378.00,0.1176
1375.00,0.1203
1372.00,0.1054
1369.00,0.1022
1366.00,0.1020
1363.00,0.0949
1360.00,0.0908
1357.00,0.0944
1354.00,0.1068
1351.00,0.1195
1348.00,0.1225
1345.00,0.1138
1342.00,0.1066
1339.00,0.1073
1336.00,0.1115
1333.00,0.1069
1330.00,0.0991
1327.00,0.1037
1324.00,0.1224
1321.00,0.1470
1318.00,0.1560
1315.00,0.1404
1312.00,0.1231
1309.00,0.1135
1306.00,0.1152
1303.00,0.1145
1300.00,0.1073
1297.00,0.1052
1294.00,0.1055
1291.00,0.1113
1288.00,0.1239
1285.00,0.1382
1282.00,0.1557
1279.00,0.1588
1276.00,0.1366
1273.00,0.1085
1270.00,0.0868
1267.00,0.0711
1264.00,0.0607
1261.00,0.0556
1258.00,0.0566
1255.00,0.0673
1252.00,0.0813
1249.00,0.0929
1246.00,0.1143
1243.00,0.1286
1240.00,0.1238
1237.00,0.1131
1234.00,0.1019
1231.00,0.0995
1228.00,0.1065
1225.00,0.1101
1222.00,0.1154
1219.00,0.1319
1216.00,0.1451
1213.00,0.1390
1210.00,0.1318
1207.00,0.1498
1204.00,0.1517
1201.00,0.1157
1198.00,0.0830
1195.00,0.0660
1192.00,0.0616
1189.00,0.0628
1186.00,0.0629
1183.00,0.0639
1180.00,0.0706
1177.00,0.0904
1174.00,0.1181
1171.00,0.1347
1168.00,0.1111
1165.00,0.0807
1162.00,0.0629
1159.00,0.0561
1156.00,0.0577
1153.00,0.0743
1150.00,0.1088
1147.00,0.1035
1144.00,0.0607
1141.00,0.0403
1138.00,0.0365
1135.00,0.0361
1132.00,0.0323
1129.00,0.0268
1126.00,0.0229
1123.00,0.0207
1120.00,0.0199
1117.00,0.0202
1114.00,0.0217
1111.00,0.0245
1108.00,0.0288
1105.00,0.0341
1102.00,0.0415
1099.00,0.0463
1096.00,0.0414
1093.00,0.0348
1090.00,0.0305
1087.00,0.0295
1084.00,0.0324
1081.00,0.0358
1078.00,0.0346
1075.00,0.0301
1072.00,0.0275
1069.00,0.0273
1066.00,0.0300
1063.00,0.0376
1060.00,0.0541
1057.00,0.0860
1054.00,0.1274
1051.00,0.1232
1048.00,0.0902
1045.00,0.0745
1042.00,0.0791
1039.00,0.0978
1036.00,0.1324
1033.00,0.1657
1030.00,0.1703
1027.00,0.1517
1024.00,0.1304
1021.00,0.1206
1018.00,0.1124
1015.00,0.0932
1012.00,0.0773
1009.00,0.0698
1006.00,0.0653
1003.00,0.0653
1000.00,0.0713
997.00,0.0650
994.00,0.0505
991.00,0.0465
988.00,0.0493
985.00,0.0513
982.00,0.0458
979.00,0.0389
976.00,0.0355
973.00,0.0350
970.00,0.0372
967.00,0.0411
964.00,0.0496
961.00,0.0607
958.00,0.0605
955.00,0.0520
952.00,0.0452
949.00,0.0417
946.00,0.0405
943.00,0.0414
940.00,0.0404
937.00,0.0365
934.00,0.0347
931.00,0.0366
928.00,0.0410
925.00,0.0448
922.00,0.0480
919.00,0.0548
916.00,0.0623
913.00,0.0641
910.00,0.0566
907.00,0.0576
904.00,0.0721
901.00,0.0872
898.00,0.0963
895.00,0.1020
892.00,0.1340
889.00,0.1723
886.00,0.1720
883.00,0.1709
880.00,0.1186
877.00,0.0906
874.00,0.0806
871.00,0.0812
868.00,0.0878
865.00,0.1072
862.00,0.1406
859.00,0.1498
856.00,0.1502
853.00,0.1421
850.00,0.1288
847.00,0.1236
844.00,0.1249
841.00,0.1256
838.00,0.1286
835.00,0.1156
832.00,0.1069
829.00,0.1121
826.00,0.1049
823.00,0.0829
820.00,0.0679
817.00,0.0589
814.00,0.0562
811.00,0.0579
808.00,0.0681
805.00,0.0959
802.00,0.0997
799.00,0.0895
796.00,0.0956
793.00,0.0927
790.00,0.0747
787.00,0.0636
784.00,0.0593
781.00,0.0558
778.00,0.0556
775.00,0.0582
772.00,0.0623
769.00,0.0635
766.00,0.0602
763.00,0.0562
760.00,0.0540
757.00,0.0548
754.00,0.0568
751.00,0.0546
748.00,0.0520
745.00,0.0494
742.00,0.0487
739.00,0.0530
736.00,0.0630
733.00,0.0735
730.00,0.0683
727.00,0.0578
724.00,0.0535
721.00,0.0511
718.00,0.0500
715.00,0.0494
712.00,0.0497
709.00,0.0488
706.00,0.0474
703.00,0.0470
700.00,0.0472
697.00,0.0479
694.00,0.0489
691.00,0.0510
688.00,0.0544
685.00,0.0594
682.00,0.0655
679.00,0.0706
676.00,0.0723
673.00,0.0719
670.00,0.0729
667.00,0.0678
664.00,0.0597
661.00,0.0561
658.00,0.0552
655.00,0.0540
652.00,0.0558
649.00,0.0587
646.00,0.0562
643.00,0.0533
640.00,0.0537
637.00,0.0560
634.00,0.0579
631.00,0.0579
628.00,0.0559
625.00,0.0536
622.00,0.0517
619.00,0.0516
616.00,0.0571
613.00,0.0617
610.00,0.0623
607.00,0.0613
604.00,0.0612
601.00,0.0621
598.00,0.0638
595.00,0.0657
592.00,0.0669
589.00,0.0672
586.00,0.0669
583.00,0.0707
580.00,0.0921
577.00,0.0995
574.00,0.0725
571.00,0.0580
568.00,0.0534
565.00,0.0527
562.00,0.0554
559.00,0.0610
556.00,0.0750
553.00,0.1029
550.00,0.1040
547.00,0.0855
544.00,0.0828
541.00,0.0853
538.00,0.0990
535.00,0.1203
532.00,0.1086
529.00,0.0955
526.00,0.1089
523.00,0.1114
520.00,0.0984
517.00,0.0756
514.00,0.0675
511.00,0.0676
508.00,0.0722
505.00,0.0806
502.00,0.0935
499.00,0.1112
496.00,0.1319
493.00,0.1528
490.00,0.1690
487.00,0.1754
484.00,0.1746
481.00,0.1732
478.00,0.1726
475.00,0.1725
472.00,0.1700
469.00,0.1676
466.00,0.1671
463.00,0.1604
460.00,0.1450
457.00,0.1365
454.00,0.1338
451.00,0.1313
448.00,0.1261
445.00,0.1215
442.00,0.1177
439.00,0.1152
436.00,0.1163
433.00,0.1118
430.00,0.1046
427.00,0.1021
424.00,0.1013
421.00,0.1001
418.00,0.0944
415.00,0.0893
412.00,0.0888
409.00,0.0903
406.00,0.0897
403.00,0.0919
400.00,0.0965