File: FTIR/Mary/Mechano/CoCrystal/2025_07_09_MC_CoCrystal_CBD_LPro_Scan2.csv
Created as New Dataset,Sample 805 By YargerLab Date Wednesday, July 09 2025
cm-1,A
4000.00,0.0018
3997.00,0.0018
3994.00,0.0018
3991.00,0.0018
3988.00,0.0018
3985.00,0.0018
3982.00,0.0018
3979.00,0.0018
3976.00,0.0018
3973.00,0.0018
3970.00,0.0019
3967.00,0.0020
3964.00,0.0020
3961.00,0.0020
3958.00,0.0020
3955.00,0.0019
3952.00,0.0020
3949.00,0.0019
3946.00,0.0019
3943.00,0.0019
3940.00,0.0019
3937.00,0.0018
3934.00,0.0018
3931.00,0.0018
3928.00,0.0018
3925.00,0.0018
3922.00,0.0018
3919.00,0.0018
3916.00,0.0018
3913.00,0.0017
3910.00,0.0017
3907.00,0.0017
3904.00,0.0017
3901.00,0.0016
3898.00,0.0016
3895.00,0.0016
3892.00,0.0016
3889.00,0.0015
3886.00,0.0015
3883.00,0.0016
3880.00,0.0015
3877.00,0.0015
3874.00,0.0015
3871.00,0.0015
3868.00,0.0015
3865.00,0.0014
3862.00,0.0015
3859.00,0.0015
3856.00,0.0015
3853.00,0.0014
3850.00,0.0014
3847.00,0.0015
3844.00,0.0015
3841.00,0.0014
3838.00,0.0014
3835.00,0.0013
3832.00,0.0014
3829.00,0.0014
3826.00,0.0014
3823.00,0.0014
3820.00,0.0013
3817.00,0.0012
3814.00,0.0012
3811.00,0.0013
3808.00,0.0013
3805.00,0.0012
3802.00,0.0011
3799.00,0.0011
3796.00,0.0012
3793.00,0.0012
3790.00,0.0013
3787.00,0.0013
3784.00,0.0013
3781.00,0.0013
3778.00,0.0013
3775.00,0.0013
3772.00,0.0012
3769.00,0.0012
3766.00,0.0012
3763.00,0.0013
3760.00,0.0012
3757.00,0.0012
3754.00,0.0012
3751.00,0.0011
3748.00,0.0011
3745.00,0.0011
3742.00,0.0011
3739.00,0.0011
3736.00,0.0010
3733.00,0.0009
3730.00,0.0010
3727.00,0.0010
3724.00,0.0010
3721.00,0.0011
3718.00,0.0010
3715.00,0.0010
3712.00,0.0010
3709.00,0.0010
3706.00,0.0011
3703.00,0.0011
3700.00,0.0010
3697.00,0.0010
3694.00,0.0011
3691.00,0.0011
3688.00,0.0010
3685.00,0.0010
3682.00,0.0011
3679.00,0.0011
3676.00,0.0010
3673.00,0.0010
3670.00,0.0010
3667.00,0.0011
3664.00,0.0011
3661.00,0.0012
3658.00,0.0012
3655.00,0.0012
3652.00,0.0011
3649.00,0.0011
3646.00,0.0012
3643.00,0.0012
3640.00,0.0013
3637.00,0.0014
3634.00,0.0014
3631.00,0.0014
3628.00,0.0014
3625.00,0.0016
3622.00,0.0018
3619.00,0.0019
3616.00,0.0020
3613.00,0.0021
3610.00,0.0022
3607.00,0.0021
3604.00,0.0022
3601.00,0.0024
3598.00,0.0024
3595.00,0.0025
3592.00,0.0026
3589.00,0.0027
3586.00,0.0028
3583.00,0.0031
3580.00,0.0033
3577.00,0.0035
3574.00,0.0037
3571.00,0.0040
3568.00,0.0043
3565.00,0.0046
3562.00,0.0049
3559.00,0.0053
3556.00,0.0056
3553.00,0.0060
3550.00,0.0066
3547.00,0.0072
3544.00,0.0080
3541.00,0.0088
3538.00,0.0099
3535.00,0.0114
3532.00,0.0134
3529.00,0.0165
3526.00,0.0202
3523.00,0.0232
3520.00,0.0240
3517.00,0.0230
3514.00,0.0212
3511.00,0.0196
3508.00,0.0189
3505.00,0.0188
3502.00,0.0193
3499.00,0.0201
3496.00,0.0211
3493.00,0.0225
3490.00,0.0240
3487.00,0.0258
3484.00,0.0277
3481.00,0.0298
3478.00,0.0321
3475.00,0.0349
3472.00,0.0382
3469.00,0.0428
3466.00,0.0490
3463.00,0.0572
3460.00,0.0683
3457.00,0.0824
3454.00,0.0975
3451.00,0.1074
3448.00,0.1063
3445.00,0.0959
3442.00,0.0829
3439.00,0.0718
3436.00,0.0638
3433.00,0.0587
3430.00,0.0555
3427.00,0.0534
3424.00,0.0522
3421.00,0.0516
3418.00,0.0514
3415.00,0.0513
3412.00,0.0510
3409.00,0.0502
3406.00,0.0486
3403.00,0.0465
3400.00,0.0440
3397.00,0.0414
3394.00,0.0391
3391.00,0.0372
3388.00,0.0355
3385.00,0.0342
3382.00,0.0332
3379.00,0.0322
3376.00,0.0313
3373.00,0.0305
3370.00,0.0298
3367.00,0.0292
3364.00,0.0286
3361.00,0.0280
3358.00,0.0274
3355.00,0.0270
3352.00,0.0266
3349.00,0.0262
3346.00,0.0258
3343.00,0.0254
3340.00,0.0251
3337.00,0.0248
3334.00,0.0245
3331.00,0.0242
3328.00,0.0241
3325.00,0.0240
3322.00,0.0238
3319.00,0.0238
3316.00,0.0237
3313.00,0.0236
3310.00,0.0235
3307.00,0.0235
3304.00,0.0236
3301.00,0.0237
3298.00,0.0238
3295.00,0.0238
3292.00,0.0240
3289.00,0.0244
3286.00,0.0247
3283.00,0.0249
3280.00,0.0252
3277.00,0.0253
3274.00,0.0254
3271.00,0.0256
3268.00,0.0263
3265.00,0.0269
3262.00,0.0272
3259.00,0.0274
3256.00,0.0275
3253.00,0.0279
3250.00,0.0281
3247.00,0.0282
3244.00,0.0287
3241.00,0.0291
3238.00,0.0294
3235.00,0.0296
3232.00,0.0300
3229.00,0.0304
3226.00,0.0308
3223.00,0.0311
3220.00,0.0315
3217.00,0.0318
3214.00,0.0322
3211.00,0.0326
3208.00,0.0330
3205.00,0.0335
3202.00,0.0338
3199.00,0.0342
3196.00,0.0344
3193.00,0.0346
3190.00,0.0347
3187.00,0.0349
3184.00,0.0351
3181.00,0.0353
3178.00,0.0355
3175.00,0.0356
3172.00,0.0357
3169.00,0.0358
3166.00,0.0358
3163.00,0.0359
3160.00,0.0358
3157.00,0.0358
3154.00,0.0355
3151.00,0.0359
3148.00,0.0366
3145.00,0.0371
3142.00,0.0374
3139.00,0.0376
3136.00,0.0382
3133.00,0.0385
3130.00,0.0386
3127.00,0.0390
3124.00,0.0391
3121.00,0.0391
3118.00,0.0393
3115.00,0.0397
3112.00,0.0402
3109.00,0.0407
3106.00,0.0412
3103.00,0.0415
3100.00,0.0417
3097.00,0.0419
3094.00,0.0419
3091.00,0.0419
3088.00,0.0422
3085.00,0.0426
3082.00,0.0434
3079.00,0.0452
3076.00,0.0480
3073.00,0.0498
3070.00,0.0495
3067.00,0.0477
3064.00,0.0452
3061.00,0.0426
3058.00,0.0403
3055.00,0.0388
3052.00,0.0379
3049.00,0.0372
3046.00,0.0368
3043.00,0.0367
3040.00,0.0368
3037.00,0.0369
3034.00,0.0370
3031.00,0.0367
3028.00,0.0360
3025.00,0.0351
3022.00,0.0343
3019.00,0.0338
3016.00,0.0334
3013.00,0.0333
3010.00,0.0336
3007.00,0.0340
3004.00,0.0346
3001.00,0.0353
2998.00,0.0364
2995.00,0.0381
2992.00,0.0403
2989.00,0.0425
2986.00,0.0438
2983.00,0.0453
2980.00,0.0487
2977.00,0.0534
2974.00,0.0582
2971.00,0.0631
2968.00,0.0681
2965.00,0.0729
2962.00,0.0789
2959.00,0.0858
2956.00,0.0901
2953.00,0.0906
2950.00,0.0871
2947.00,0.0827
2944.00,0.0843
2941.00,0.0923
2938.00,0.1033
2935.00,0.1164
2932.00,0.1327
2929.00,0.1504
2926.00,0.1618
2923.00,0.1622
2920.00,0.1547
2917.00,0.1439
2914.00,0.1317
2911.00,0.1180
2908.00,0.1045
2905.00,0.0937
2902.00,0.0862
2899.00,0.0807
2896.00,0.0755
2893.00,0.0714
2890.00,0.0687
2887.00,0.0673
2884.00,0.0664
2881.00,0.0662
2878.00,0.0679
2875.00,0.0724
2872.00,0.0780
2869.00,0.0780
2866.00,0.0745
2863.00,0.0776
2860.00,0.0880
2857.00,0.0967
2854.00,0.0935
2851.00,0.0817
2848.00,0.0691
2845.00,0.0603
2842.00,0.0551
2839.00,0.0519
2836.00,0.0527
2833.00,0.0547
2830.00,0.0527
2827.00,0.0455
2824.00,0.0383
2821.00,0.0338
2818.00,0.0312
2815.00,0.0295
2812.00,0.0283
2809.00,0.0273
2806.00,0.0265
2803.00,0.0259
2800.00,0.0253
2797.00,0.0249
2794.00,0.0245
2791.00,0.0242
2788.00,0.0240
2785.00,0.0239
2782.00,0.0238
2779.00,0.0239
2776.00,0.0241
2773.00,0.0243
2770.00,0.0245
2767.00,0.0248
2764.00,0.0250
2761.00,0.0252
2758.00,0.0254
2755.00,0.0255
2752.00,0.0256
2749.00,0.0257
2746.00,0.0258
2743.00,0.0260
2740.00,0.0263
2737.00,0.0268
2734.00,0.0274
2731.00,0.0279
2728.00,0.0280
2725.00,0.0278
2722.00,0.0276
2719.00,0.0274
2716.00,0.0272
2713.00,0.0271
2710.00,0.0272
2707.00,0.0273
2704.00,0.0273
2701.00,0.0274
2698.00,0.0275
2695.00,0.0276
2692.00,0.0277
2689.00,0.0277
2686.00,0.0278
2683.00,0.0278
2680.00,0.0277
2677.00,0.0277
2674.00,0.0278
2671.00,0.0279
2668.00,0.0281
2665.00,0.0283
2662.00,0.0283
2659.00,0.0282
2656.00,0.0279
2653.00,0.0276
2650.00,0.0273
2647.00,0.0271
2644.00,0.0269
2641.00,0.0268
2638.00,0.0266
2635.00,0.0264
2632.00,0.0263
2629.00,0.0262
2626.00,0.0261
2623.00,0.0260
2620.00,0.0258
2617.00,0.0257
2614.00,0.0256
2611.00,0.0254
2608.00,0.0253
2605.00,0.0251
2602.00,0.0249
2599.00,0.0246
2596.00,0.0243
2593.00,0.0240
2590.00,0.0238
2587.00,0.0235
2584.00,0.0234
2581.00,0.0232
2578.00,0.0230
2575.00,0.0230
2572.00,0.0231
2569.00,0.0232
2566.00,0.0233
2563.00,0.0236
2560.00,0.0238
2557.00,0.0240
2554.00,0.0240
2551.00,0.0238
2548.00,0.0236
2545.00,0.0233
2542.00,0.0230
2539.00,0.0227
2536.00,0.0224
2533.00,0.0221
2530.00,0.0219
2527.00,0.0218
2524.00,0.0216
2521.00,0.0215
2518.00,0.0212
2515.00,0.0209
2512.00,0.0206
2509.00,0.0202
2506.00,0.0199
2503.00,0.0197
2500.00,0.0195
2497.00,0.0193
2494.00,0.0192
2491.00,0.0192
2488.00,0.0193
2485.00,0.0193
2482.00,0.0193
2479.00,0.0192
2476.00,0.0191
2473.00,0.0190
2470.00,0.0190
2467.00,0.0190
2464.00,0.0189
2461.00,0.0191
2458.00,0.0193
2455.00,0.0195
2452.00,0.0196
2449.00,0.0197
2446.00,0.0196
2443.00,0.0195
2440.00,0.0194
2437.00,0.0193
2434.00,0.0191
2431.00,0.0190
2428.00,0.0189
2425.00,0.0189
2422.00,0.0187
2419.00,0.0185
2416.00,0.0182
2413.00,0.0180
2410.00,0.0176
2407.00,0.0171
2404.00,0.0167
2401.00,0.0163
2398.00,0.0158
2395.00,0.0155
2392.00,0.0152
2389.00,0.0148
2386.00,0.0145
2383.00,0.0141
2380.00,0.0138
2377.00,0.0135
2374.00,0.0132
2371.00,0.0128
2368.00,0.0125
2365.00,0.0123
2362.00,0.0121
2359.00,0.0118
2356.00,0.0117
2353.00,0.0113
2350.00,0.0111
2347.00,0.0109
2344.00,0.0106
2341.00,0.0105
2338.00,0.0104
2335.00,0.0101
2332.00,0.0097
2329.00,0.0097
2326.00,0.0103
2323.00,0.0100
2320.00,0.0094
2317.00,0.0090
2314.00,0.0087
2311.00,0.0085
2308.00,0.0084
2305.00,0.0083
2302.00,0.0081
2299.00,0.0080
2296.00,0.0079
2293.00,0.0079
2290.00,0.0079
2287.00,0.0078
2284.00,0.0076
2281.00,0.0072
2278.00,0.0070
2275.00,0.0067
2272.00,0.0066
2269.00,0.0066
2266.00,0.0066
2263.00,0.0066
2260.00,0.0067
2257.00,0.0065
2254.00,0.0060
2251.00,0.0058
2248.00,0.0058
2245.00,0.0058
2242.00,0.0056
2239.00,0.0056
2236.00,0.0055
2233.00,0.0054
2230.00,0.0052
2227.00,0.0051
2224.00,0.0053
2221.00,0.0051
2218.00,0.0050
2215.00,0.0048
2212.00,0.0046
2209.00,0.0045
2206.00,0.0045
2203.00,0.0045
2200.00,0.0044
2197.00,0.0045
2194.00,0.0042
2191.00,0.0041
2188.00,0.0045
2185.00,0.0043
2182.00,0.0037
2179.00,0.0038
2176.00,0.0034
2173.00,0.0035
2170.00,0.0043
2167.00,0.0047
2164.00,0.0050
2161.00,0.0032
2158.00,0.0003
2155.00,0.0008
2152.00,0.0015
2149.00,0.0020
2146.00,0.0016
2143.00,0.0016
2140.00,0.0017
2137.00,0.0013
2134.00,0.0009
2131.00,0.0013
2128.00,0.0016
2125.00,0.0018
2122.00,0.0021
2119.00,0.0022
2116.00,0.0023
2113.00,0.0023
2110.00,0.0023
2107.00,0.0022
2104.00,0.0021
2101.00,0.0020
2098.00,0.0019
2095.00,0.0018
2092.00,0.0019
2089.00,0.0021
2086.00,0.0023
2083.00,0.0022
2080.00,0.0021
2077.00,0.0019
2074.00,0.0016
2071.00,0.0014
2068.00,0.0013
2065.00,0.0010
2062.00,0.0009
2059.00,0.0010
2056.00,0.0010
2053.00,0.0017
2050.00,0.0018
2047.00,0.0011
2044.00,0.0008
2041.00,0.0011
2038.00,0.0012
2035.00,0.0012
2032.00,0.0006
2029.00,0.0002
2026.00,0.0005
2023.00,0.0011
2020.00,0.0010
2017.00,0.0010
2014.00,0.0006
2011.00,0.0008
2008.00,0.0004
2005.00,0.0005
2002.00,0.0006
1999.00,0.0007
1996.00,0.0014
1993.00,0.0017
1990.00,0.0019
1987.00,0.0023
1984.00,0.0024
1981.00,0.0029
1978.00,0.0016
1975.00,0.0008
1972.00,0.0008
1969.00,0.0008
1966.00,0.0011
1963.00,0.0011
1960.00,0.0009
1957.00,0.0009
1954.00,0.0010
1951.00,0.0012
1948.00,0.0015
1945.00,0.0014
1942.00,0.0015
1939.00,0.0015
1936.00,0.0015
1933.00,0.0016
1930.00,0.0018
1927.00,0.0019
1924.00,0.0018
1921.00,0.0020
1918.00,0.0022
1915.00,0.0020
1912.00,0.0020
1909.00,0.0019
1906.00,0.0018
1903.00,0.0019
1900.00,0.0019
1897.00,0.0019
1894.00,0.0018
1891.00,0.0019
1888.00,0.0021
1885.00,0.0020
1882.00,0.0021
1879.00,0.0022
1876.00,0.0023
1873.00,0.0022
1870.00,0.0024
1867.00,0.0023
1864.00,0.0023
1861.00,0.0023
1858.00,0.0024
1855.00,0.0024
1852.00,0.0024
1849.00,0.0025
1846.00,0.0027
1843.00,0.0028
1840.00,0.0028
1837.00,0.0028
1834.00,0.0028
1831.00,0.0028
1828.00,0.0029
1825.00,0.0031
1822.00,0.0030
1819.00,0.0029
1816.00,0.0028
1813.00,0.0031
1810.00,0.0032
1807.00,0.0034
1804.00,0.0038
1801.00,0.0039
1798.00,0.0040
1795.00,0.0041
1792.00,0.0046
1789.00,0.0051
1786.00,0.0059
1783.00,0.0059
1780.00,0.0056
1777.00,0.0057
1774.00,0.0059
1771.00,0.0058
1768.00,0.0056
1765.00,0.0052
1762.00,0.0053
1759.00,0.0052
1756.00,0.0052
1753.00,0.0052
1750.00,0.0053
1747.00,0.0053
1744.00,0.0054
1741.00,0.0052
1738.00,0.0053
1735.00,0.0058
1732.00,0.0060
1729.00,0.0062
1726.00,0.0064
1723.00,0.0067
1720.00,0.0067
1717.00,0.0070
1714.00,0.0073
1711.00,0.0076
1708.00,0.0078
1705.00,0.0082
1702.00,0.0084
1699.00,0.0087
1696.00,0.0091
1693.00,0.0093
1690.00,0.0097
1687.00,0.0098
1684.00,0.0105
1681.00,0.0113
1678.00,0.0120
1675.00,0.0133
1672.00,0.0144
1669.00,0.0168
1666.00,0.0193
1663.00,0.0223
1660.00,0.0259
1657.00,0.0295
1654.00,0.0356
1651.00,0.0494
1648.00,0.0629
1645.00,0.0971
1642.00,0.1260
1639.00,0.1480
1636.00,0.1760
1633.00,0.2040
1630.00,0.2042
1627.00,0.1826
1624.00,0.1547
1621.00,0.1240
1618.00,0.0988
1615.00,0.0773
1612.00,0.0665
1609.00,0.0593
1606.00,0.0562
1603.00,0.0566
1600.00,0.0609
1597.00,0.0703
1594.00,0.0899
1591.00,0.1239
1588.00,0.1670
1585.00,0.2051
1582.00,0.2323
1579.00,0.2419
1576.00,0.2365
1573.00,0.2242
1570.00,0.2065
1567.00,0.1858
1564.00,0.1636
1561.00,0.1444
1558.00,0.1174
1555.00,0.1016
1552.00,0.0874
1549.00,0.0758
1546.00,0.0673
1543.00,0.0602
1540.00,0.0551
1537.00,0.0525
1534.00,0.0516
1531.00,0.0534
1528.00,0.0580
1525.00,0.0634
1522.00,0.0640
1519.00,0.0604
1516.00,0.0542
1513.00,0.0488
1510.00,0.0438
1507.00,0.0391
1504.00,0.0356
1501.00,0.0332
1498.00,0.0309
1495.00,0.0295
1492.00,0.0286
1489.00,0.0281
1486.00,0.0284
1483.00,0.0298
1480.00,0.0329
1477.00,0.0374
1474.00,0.0436
1471.00,0.0592
1468.00,0.0731
1465.00,0.0753
1462.00,0.0814
1459.00,0.0966
1456.00,0.1297
1453.00,0.1591
1450.00,0.2008
1447.00,0.2455
1444.00,0.2692
1441.00,0.2643
1438.00,0.2379
1435.00,0.2060
1432.00,0.1792
1429.00,0.1453
1426.00,0.1167
1423.00,0.0968
1420.00,0.0869
1417.00,0.0824
1414.00,0.0807
1411.00,0.0805
1408.00,0.0816
1405.00,0.0842
1402.00,0.0865
1399.00,0.0870
1396.00,0.0844
1393.00,0.0791
1390.00,0.0741
1387.00,0.0712
1384.00,0.0749
1381.00,0.0936
1378.00,0.1186
1375.00,0.1203
1372.00,0.1055
1369.00,0.1027
1366.00,0.1030
1363.00,0.0962
1360.00,0.0923
1357.00,0.0961
1354.00,0.1086
1351.00,0.1215
1348.00,0.1247
1345.00,0.1159
1342.00,0.1084
1339.00,0.1090
1336.00,0.1134
1333.00,0.1087
1330.00,0.1005
1327.00,0.1049
1324.00,0.1237
1321.00,0.1489
1318.00,0.1583
1315.00,0.1421
1312.00,0.1236
1309.00,0.1139
1306.00,0.1157
1303.00,0.1147
1300.00,0.1073
1297.00,0.1055
1294.00,0.1062
1291.00,0.1125
1288.00,0.1255
1285.00,0.1399
1282.00,0.1571
1279.00,0.1601
1276.00,0.1376
1273.00,0.1093
1270.00,0.0878
1267.00,0.0723
1264.00,0.0620
1261.00,0.0568
1258.00,0.0579
1255.00,0.0687
1252.00,0.0829
1249.00,0.0946
1246.00,0.1164
1243.00,0.1309
1240.00,0.1251
1237.00,0.1131
1234.00,0.1017
1231.00,0.0997
1228.00,0.1068
1225.00,0.1095
1222.00,0.1137
1219.00,0.1282
1216.00,0.1384
1213.00,0.1319
1210.00,0.1270
1207.00,0.1472
1204.00,0.1507
1201.00,0.1157
1198.00,0.0834
1195.00,0.0665
1192.00,0.0619
1189.00,0.0629
1186.00,0.0628
1183.00,0.0635
1180.00,0.0704
1177.00,0.0907
1174.00,0.1188
1171.00,0.1354
1168.00,0.1123
1165.00,0.0821
1162.00,0.0644
1159.00,0.0575
1156.00,0.0589
1153.00,0.0747
1150.00,0.1088
1147.00,0.1042
1144.00,0.0615
1141.00,0.0409
1138.00,0.0370
1135.00,0.0365
1132.00,0.0327
1129.00,0.0272
1126.00,0.0233
1123.00,0.0211
1120.00,0.0203
1117.00,0.0206
1114.00,0.0220
1111.00,0.0249
1108.00,0.0291
1105.00,0.0343
1102.00,0.0415
1099.00,0.0461
1096.00,0.0414
1093.00,0.0351
1090.00,0.0308
1087.00,0.0298
1084.00,0.0325
1081.00,0.0355
1078.00,0.0343
1075.00,0.0301
1072.00,0.0277
1069.00,0.0275
1066.00,0.0302
1063.00,0.0379
1060.00,0.0544
1057.00,0.0864
1054.00,0.1277
1051.00,0.1230
1048.00,0.0896
1045.00,0.0742
1042.00,0.0791
1039.00,0.0979
1036.00,0.1322
1033.00,0.1649
1030.00,0.1707
1027.00,0.1542
1024.00,0.1327
1021.00,0.1201
1018.00,0.1107
1015.00,0.0926
1012.00,0.0773
1009.00,0.0700
1006.00,0.0650
1003.00,0.0639
1000.00,0.0698
997.00,0.0646
994.00,0.0508
991.00,0.0468
988.00,0.0495
985.00,0.0513
982.00,0.0459
979.00,0.0391
976.00,0.0358
973.00,0.0351
970.00,0.0371
967.00,0.0409
964.00,0.0493
961.00,0.0603
958.00,0.0606
955.00,0.0525
952.00,0.0457
949.00,0.0421
946.00,0.0410
943.00,0.0420
940.00,0.0410
937.00,0.0370
934.00,0.0350
931.00,0.0370
928.00,0.0414
925.00,0.0452
922.00,0.0484
919.00,0.0553
916.00,0.0627
913.00,0.0647
910.00,0.0572
907.00,0.0582
904.00,0.0725
901.00,0.0869
898.00,0.0937
895.00,0.0996
892.00,0.1342
889.00,0.1740
886.00,0.1719
883.00,0.1680
880.00,0.1172
877.00,0.0907
874.00,0.0811
871.00,0.0812
868.00,0.0881
865.00,0.1078
862.00,0.1408
859.00,0.1503
856.00,0.1509
853.00,0.1421
850.00,0.1286
847.00,0.1240
844.00,0.1258
841.00,0.1269
838.00,0.1302
835.00,0.1167
832.00,0.1073
829.00,0.1121
826.00,0.1047
823.00,0.0829
820.00,0.0682
817.00,0.0595
814.00,0.0569
811.00,0.0587
808.00,0.0683
805.00,0.0951
802.00,0.0995
799.00,0.0900
796.00,0.0966
793.00,0.0940
790.00,0.0757
787.00,0.0643
784.00,0.0598
781.00,0.0563
778.00,0.0563
775.00,0.0591
772.00,0.0632
769.00,0.0642
766.00,0.0612
763.00,0.0573
760.00,0.0551
757.00,0.0559
754.00,0.0579
751.00,0.0554
748.00,0.0527
745.00,0.0502
742.00,0.0496
739.00,0.0541
736.00,0.0641
733.00,0.0745
730.00,0.0692
727.00,0.0590
724.00,0.0547
721.00,0.0522
718.00,0.0509
715.00,0.0504
712.00,0.0508
709.00,0.0500
706.00,0.0488
703.00,0.0484
700.00,0.0486
697.00,0.0493
694.00,0.0504
691.00,0.0524
688.00,0.0559
685.00,0.0611
682.00,0.0675
679.00,0.0729
676.00,0.0747
673.00,0.0739
670.00,0.0747
667.00,0.0693
664.00,0.0609
661.00,0.0569
658.00,0.0560
655.00,0.0550
652.00,0.0566
649.00,0.0593
646.00,0.0570
643.00,0.0542
640.00,0.0546
637.00,0.0568
634.00,0.0589
631.00,0.0588
628.00,0.0568
625.00,0.0543
622.00,0.0526
619.00,0.0526
616.00,0.0583
613.00,0.0630
610.00,0.0659
607.00,0.0629
604.00,0.0620
601.00,0.0628
598.00,0.0646
595.00,0.0666
592.00,0.0675
589.00,0.0672
586.00,0.0666
583.00,0.0708
580.00,0.0932
577.00,0.1012
574.00,0.0737
571.00,0.0585
568.00,0.0537
565.00,0.0528
562.00,0.0552
559.00,0.0613
556.00,0.0758
553.00,0.1037
550.00,0.1053
547.00,0.0864
544.00,0.0833
541.00,0.0851
538.00,0.0987
535.00,0.1205
532.00,0.1094
529.00,0.0962
526.00,0.1091
523.00,0.1102
520.00,0.0972
517.00,0.0755
514.00,0.0680
511.00,0.0683
508.00,0.0720
505.00,0.0792
502.00,0.0918
499.00,0.1096
496.00,0.1306
493.00,0.1519
490.00,0.1683
487.00,0.1761
484.00,0.1752
481.00,0.1744
478.00,0.1746
475.00,0.1750
472.00,0.1726
469.00,0.1702
466.00,0.1689
463.00,0.1620
460.00,0.1455
457.00,0.1374
454.00,0.1342
451.00,0.1324
448.00,0.1281
445.00,0.1238
442.00,0.1190
439.00,0.1172
436.00,0.1168
433.00,0.1119
430.00,0.1045
427.00,0.1009
424.00,0.0992
421.00,0.0978
418.00,0.0939
415.00,0.0900
412.00,0.0892
409.00,0.0876
406.00,0.0882
403.00,0.0900
400.00,0.0937