File: FTIR/Mary/Mechano/CoCrystal/2025_07_09_CBD_MC_Pre_Scan2.csv
Created as New Dataset,Sample 799 By YargerLab Date Wednesday, July 09 2025
cm-1,A
4000.00,0.0052
3997.00,0.0052
3994.00,0.0052
3991.00,0.0052
3988.00,0.0052
3985.00,0.0052
3982.00,0.0052
3979.00,0.0053
3976.00,0.0053
3973.00,0.0053
3970.00,0.0053
3967.00,0.0054
3964.00,0.0054
3961.00,0.0054
3958.00,0.0054
3955.00,0.0054
3952.00,0.0054
3949.00,0.0054
3946.00,0.0054
3943.00,0.0054
3940.00,0.0054
3937.00,0.0054
3934.00,0.0054
3931.00,0.0054
3928.00,0.0055
3925.00,0.0055
3922.00,0.0055
3919.00,0.0055
3916.00,0.0054
3913.00,0.0054
3910.00,0.0054
3907.00,0.0053
3904.00,0.0053
3901.00,0.0052
3898.00,0.0052
3895.00,0.0052
3892.00,0.0052
3889.00,0.0052
3886.00,0.0052
3883.00,0.0052
3880.00,0.0052
3877.00,0.0052
3874.00,0.0052
3871.00,0.0051
3868.00,0.0051
3865.00,0.0051
3862.00,0.0051
3859.00,0.0051
3856.00,0.0050
3853.00,0.0048
3850.00,0.0049
3847.00,0.0051
3844.00,0.0051
3841.00,0.0050
3838.00,0.0050
3835.00,0.0050
3832.00,0.0050
3829.00,0.0050
3826.00,0.0050
3823.00,0.0050
3820.00,0.0050
3817.00,0.0049
3814.00,0.0049
3811.00,0.0050
3808.00,0.0050
3805.00,0.0049
3802.00,0.0048
3799.00,0.0048
3796.00,0.0049
3793.00,0.0050
3790.00,0.0050
3787.00,0.0050
3784.00,0.0050
3781.00,0.0049
3778.00,0.0050
3775.00,0.0050
3772.00,0.0050
3769.00,0.0050
3766.00,0.0050
3763.00,0.0049
3760.00,0.0050
3757.00,0.0049
3754.00,0.0049
3751.00,0.0049
3748.00,0.0048
3745.00,0.0047
3742.00,0.0047
3739.00,0.0047
3736.00,0.0048
3733.00,0.0047
3730.00,0.0046
3727.00,0.0046
3724.00,0.0047
3721.00,0.0046
3718.00,0.0047
3715.00,0.0047
3712.00,0.0047
3709.00,0.0046
3706.00,0.0046
3703.00,0.0046
3700.00,0.0046
3697.00,0.0046
3694.00,0.0046
3691.00,0.0046
3688.00,0.0046
3685.00,0.0046
3682.00,0.0046
3679.00,0.0047
3676.00,0.0046
3673.00,0.0045
3670.00,0.0045
3667.00,0.0046
3664.00,0.0046
3661.00,0.0046
3658.00,0.0047
3655.00,0.0047
3652.00,0.0046
3649.00,0.0045
3646.00,0.0044
3643.00,0.0045
3640.00,0.0045
3637.00,0.0046
3634.00,0.0045
3631.00,0.0045
3628.00,0.0045
3625.00,0.0045
3622.00,0.0046
3619.00,0.0046
3616.00,0.0046
3613.00,0.0047
3610.00,0.0048
3607.00,0.0048
3604.00,0.0048
3601.00,0.0049
3598.00,0.0049
3595.00,0.0049
3592.00,0.0049
3589.00,0.0050
3586.00,0.0051
3583.00,0.0052
3580.00,0.0054
3577.00,0.0055
3574.00,0.0057
3571.00,0.0058
3568.00,0.0060
3565.00,0.0062
3562.00,0.0065
3559.00,0.0069
3556.00,0.0072
3553.00,0.0078
3550.00,0.0084
3547.00,0.0091
3544.00,0.0102
3541.00,0.0117
3538.00,0.0137
3535.00,0.0166
3532.00,0.0208
3529.00,0.0277
3526.00,0.0371
3523.00,0.0459
3520.00,0.0499
3517.00,0.0482
3514.00,0.0427
3511.00,0.0361
3508.00,0.0307
3505.00,0.0270
3502.00,0.0249
3499.00,0.0239
3496.00,0.0235
3493.00,0.0236
3490.00,0.0240
3487.00,0.0247
3484.00,0.0256
3481.00,0.0267
3478.00,0.0280
3475.00,0.0294
3472.00,0.0311
3469.00,0.0330
3466.00,0.0349
3463.00,0.0370
3460.00,0.0393
3457.00,0.0414
3454.00,0.0435
3451.00,0.0456
3448.00,0.0476
3445.00,0.0497
3442.00,0.0516
3439.00,0.0536
3436.00,0.0554
3433.00,0.0572
3430.00,0.0590
3427.00,0.0609
3424.00,0.0630
3421.00,0.0656
3418.00,0.0688
3415.00,0.0721
3412.00,0.0751
3409.00,0.0769
3406.00,0.0766
3403.00,0.0738
3400.00,0.0688
3397.00,0.0623
3394.00,0.0557
3391.00,0.0498
3388.00,0.0447
3385.00,0.0406
3382.00,0.0372
3379.00,0.0345
3376.00,0.0320
3373.00,0.0298
3370.00,0.0281
3367.00,0.0264
3364.00,0.0248
3361.00,0.0234
3358.00,0.0221
3355.00,0.0210
3352.00,0.0200
3349.00,0.0191
3346.00,0.0182
3343.00,0.0175
3340.00,0.0168
3337.00,0.0161
3334.00,0.0156
3331.00,0.0151
3328.00,0.0146
3325.00,0.0141
3322.00,0.0137
3319.00,0.0133
3316.00,0.0129
3313.00,0.0126
3310.00,0.0123
3307.00,0.0119
3304.00,0.0116
3301.00,0.0114
3298.00,0.0110
3295.00,0.0107
3292.00,0.0105
3289.00,0.0103
3286.00,0.0101
3283.00,0.0099
3280.00,0.0097
3277.00,0.0095
3274.00,0.0093
3271.00,0.0091
3268.00,0.0092
3265.00,0.0091
3262.00,0.0090
3259.00,0.0089
3256.00,0.0088
3253.00,0.0089
3250.00,0.0087
3247.00,0.0085
3244.00,0.0086
3241.00,0.0085
3238.00,0.0083
3235.00,0.0081
3232.00,0.0080
3229.00,0.0080
3226.00,0.0080
3223.00,0.0079
3220.00,0.0079
3217.00,0.0078
3214.00,0.0078
3211.00,0.0078
3208.00,0.0078
3205.00,0.0077
3202.00,0.0077
3199.00,0.0076
3196.00,0.0076
3193.00,0.0075
3190.00,0.0075
3187.00,0.0075
3184.00,0.0076
3181.00,0.0075
3178.00,0.0075
3175.00,0.0076
3172.00,0.0076
3169.00,0.0076
3166.00,0.0077
3163.00,0.0078
3160.00,0.0077
3157.00,0.0075
3154.00,0.0073
3151.00,0.0073
3148.00,0.0074
3145.00,0.0073
3142.00,0.0073
3139.00,0.0072
3136.00,0.0073
3133.00,0.0072
3130.00,0.0072
3127.00,0.0072
3124.00,0.0072
3121.00,0.0071
3118.00,0.0071
3115.00,0.0071
3112.00,0.0071
3109.00,0.0071
3106.00,0.0072
3103.00,0.0072
3100.00,0.0073
3097.00,0.0074
3094.00,0.0075
3091.00,0.0076
3088.00,0.0079
3085.00,0.0086
3082.00,0.0099
3079.00,0.0129
3076.00,0.0165
3073.00,0.0163
3070.00,0.0129
3067.00,0.0104
3064.00,0.0092
3061.00,0.0086
3058.00,0.0084
3055.00,0.0082
3052.00,0.0081
3049.00,0.0083
3046.00,0.0087
3043.00,0.0091
3040.00,0.0095
3037.00,0.0100
3034.00,0.0106
3031.00,0.0107
3028.00,0.0102
3025.00,0.0096
3022.00,0.0093
3019.00,0.0092
3016.00,0.0092
3013.00,0.0095
3010.00,0.0099
3007.00,0.0104
3004.00,0.0108
3001.00,0.0112
2998.00,0.0118
2995.00,0.0125
2992.00,0.0136
2989.00,0.0148
2986.00,0.0158
2983.00,0.0170
2980.00,0.0194
2977.00,0.0235
2974.00,0.0297
2971.00,0.0373
2968.00,0.0442
2965.00,0.0475
2962.00,0.0473
2959.00,0.0452
2956.00,0.0414
2953.00,0.0380
2950.00,0.0368
2947.00,0.0398
2944.00,0.0463
2941.00,0.0527
2938.00,0.0586
2935.00,0.0658
2932.00,0.0741
2929.00,0.0825
2926.00,0.0885
2923.00,0.0888
2920.00,0.0863
2917.00,0.0841
2914.00,0.0804
2911.00,0.0736
2908.00,0.0657
2905.00,0.0589
2902.00,0.0542
2899.00,0.0502
2896.00,0.0454
2893.00,0.0411
2890.00,0.0385
2887.00,0.0372
2884.00,0.0366
2881.00,0.0368
2878.00,0.0379
2875.00,0.0401
2872.00,0.0418
2869.00,0.0412
2866.00,0.0405
2863.00,0.0442
2860.00,0.0540
2857.00,0.0647
2854.00,0.0639
2851.00,0.0523
2848.00,0.0402
2845.00,0.0315
2842.00,0.0262
2839.00,0.0238
2836.00,0.0247
2833.00,0.0298
2830.00,0.0354
2827.00,0.0325
2824.00,0.0244
2821.00,0.0188
2818.00,0.0159
2815.00,0.0144
2812.00,0.0134
2809.00,0.0127
2806.00,0.0121
2803.00,0.0115
2800.00,0.0111
2797.00,0.0107
2794.00,0.0104
2791.00,0.0101
2788.00,0.0098
2785.00,0.0095
2782.00,0.0093
2779.00,0.0091
2776.00,0.0089
2773.00,0.0087
2770.00,0.0087
2767.00,0.0085
2764.00,0.0084
2761.00,0.0083
2758.00,0.0082
2755.00,0.0082
2752.00,0.0081
2749.00,0.0082
2746.00,0.0082
2743.00,0.0084
2740.00,0.0085
2737.00,0.0088
2734.00,0.0092
2731.00,0.0098
2728.00,0.0100
2725.00,0.0096
2722.00,0.0090
2719.00,0.0086
2716.00,0.0083
2713.00,0.0081
2710.00,0.0079
2707.00,0.0078
2704.00,0.0077
2701.00,0.0076
2698.00,0.0075
2695.00,0.0075
2692.00,0.0075
2689.00,0.0076
2686.00,0.0077
2683.00,0.0078
2680.00,0.0079
2677.00,0.0080
2674.00,0.0081
2671.00,0.0082
2668.00,0.0083
2665.00,0.0084
2662.00,0.0084
2659.00,0.0085
2656.00,0.0085
2653.00,0.0084
2650.00,0.0083
2647.00,0.0081
2644.00,0.0081
2641.00,0.0080
2638.00,0.0079
2635.00,0.0079
2632.00,0.0079
2629.00,0.0079
2626.00,0.0078
2623.00,0.0079
2620.00,0.0078
2617.00,0.0078
2614.00,0.0077
2611.00,0.0077
2608.00,0.0077
2605.00,0.0076
2602.00,0.0076
2599.00,0.0075
2596.00,0.0074
2593.00,0.0074
2590.00,0.0074
2587.00,0.0073
2584.00,0.0073
2581.00,0.0073
2578.00,0.0073
2575.00,0.0073
2572.00,0.0073
2569.00,0.0073
2566.00,0.0073
2563.00,0.0073
2560.00,0.0072
2557.00,0.0072
2554.00,0.0072
2551.00,0.0071
2548.00,0.0071
2545.00,0.0070
2542.00,0.0070
2539.00,0.0070
2536.00,0.0070
2533.00,0.0070
2530.00,0.0070
2527.00,0.0071
2524.00,0.0070
2521.00,0.0069
2518.00,0.0069
2515.00,0.0070
2512.00,0.0070
2509.00,0.0069
2506.00,0.0069
2503.00,0.0069
2500.00,0.0069
2497.00,0.0070
2494.00,0.0070
2491.00,0.0070
2488.00,0.0070
2485.00,0.0071
2482.00,0.0070
2479.00,0.0070
2476.00,0.0071
2473.00,0.0071
2470.00,0.0070
2467.00,0.0070
2464.00,0.0070
2461.00,0.0071
2458.00,0.0073
2455.00,0.0074
2452.00,0.0073
2449.00,0.0072
2446.00,0.0071
2443.00,0.0069
2440.00,0.0067
2437.00,0.0065
2434.00,0.0064
2431.00,0.0062
2428.00,0.0062
2425.00,0.0061
2422.00,0.0061
2419.00,0.0060
2416.00,0.0059
2413.00,0.0060
2410.00,0.0059
2407.00,0.0057
2404.00,0.0057
2401.00,0.0057
2398.00,0.0057
2395.00,0.0057
2392.00,0.0057
2389.00,0.0057
2386.00,0.0057
2383.00,0.0055
2380.00,0.0052
2377.00,0.0052
2374.00,0.0053
2371.00,0.0052
2368.00,0.0052
2365.00,0.0052
2362.00,0.0052
2359.00,0.0052
2356.00,0.0053
2353.00,0.0052
2350.00,0.0051
2347.00,0.0055
2344.00,0.0054
2341.00,0.0054
2338.00,0.0056
2335.00,0.0055
2332.00,0.0055
2329.00,0.0057
2326.00,0.0069
2323.00,0.0067
2320.00,0.0061
2317.00,0.0060
2314.00,0.0058
2311.00,0.0057
2308.00,0.0056
2305.00,0.0057
2302.00,0.0057
2299.00,0.0058
2296.00,0.0060
2293.00,0.0063
2290.00,0.0065
2287.00,0.0066
2284.00,0.0066
2281.00,0.0064
2278.00,0.0062
2275.00,0.0061
2272.00,0.0060
2269.00,0.0058
2266.00,0.0057
2263.00,0.0057
2260.00,0.0059
2257.00,0.0057
2254.00,0.0056
2251.00,0.0059
2248.00,0.0058
2245.00,0.0057
2242.00,0.0057
2239.00,0.0057
2236.00,0.0059
2233.00,0.0058
2230.00,0.0056
2227.00,0.0057
2224.00,0.0056
2221.00,0.0054
2218.00,0.0055
2215.00,0.0056
2212.00,0.0052
2209.00,0.0052
2206.00,0.0055
2203.00,0.0054
2200.00,0.0053
2197.00,0.0054
2194.00,0.0056
2191.00,0.0058
2188.00,0.0058
2185.00,0.0056
2182.00,0.0049
2179.00,0.0052
2176.00,0.0048
2173.00,0.0050
2170.00,0.0058
2167.00,0.0063
2164.00,0.0065
2161.00,0.0044
2158.00,0.0014
2155.00,0.0022
2152.00,0.0029
2149.00,0.0032
2146.00,0.0032
2143.00,0.0032
2140.00,0.0031
2137.00,0.0028
2134.00,0.0023
2131.00,0.0031
2128.00,0.0036
2125.00,0.0039
2122.00,0.0041
2119.00,0.0044
2116.00,0.0048
2113.00,0.0048
2110.00,0.0047
2107.00,0.0047
2104.00,0.0045
2101.00,0.0045
2098.00,0.0045
2095.00,0.0042
2092.00,0.0043
2089.00,0.0046
2086.00,0.0049
2083.00,0.0049
2080.00,0.0049
2077.00,0.0048
2074.00,0.0047
2071.00,0.0045
2068.00,0.0044
2065.00,0.0043
2062.00,0.0041
2059.00,0.0042
2056.00,0.0042
2053.00,0.0052
2050.00,0.0052
2047.00,0.0042
2044.00,0.0039
2041.00,0.0041
2038.00,0.0042
2035.00,0.0035
2032.00,0.0030
2029.00,0.0031
2026.00,0.0032
2023.00,0.0031
2020.00,0.0032
2017.00,0.0035
2014.00,0.0035
2011.00,0.0034
2008.00,0.0029
2005.00,0.0027
2002.00,0.0032
1999.00,0.0034
1996.00,0.0038
1993.00,0.0042
1990.00,0.0043
1987.00,0.0046
1984.00,0.0052
1981.00,0.0058
1978.00,0.0035
1975.00,0.0026
1972.00,0.0031
1969.00,0.0031
1966.00,0.0031
1963.00,0.0030
1960.00,0.0029
1957.00,0.0031
1954.00,0.0032
1951.00,0.0033
1948.00,0.0034
1945.00,0.0033
1942.00,0.0033
1939.00,0.0034
1936.00,0.0037
1933.00,0.0037
1930.00,0.0036
1927.00,0.0036
1924.00,0.0038
1921.00,0.0040
1918.00,0.0038
1915.00,0.0040
1912.00,0.0041
1909.00,0.0041
1906.00,0.0043
1903.00,0.0043
1900.00,0.0044
1897.00,0.0043
1894.00,0.0043
1891.00,0.0044
1888.00,0.0044
1885.00,0.0045
1882.00,0.0045
1879.00,0.0045
1876.00,0.0045
1873.00,0.0046
1870.00,0.0045
1867.00,0.0045
1864.00,0.0045
1861.00,0.0046
1858.00,0.0046
1855.00,0.0045
1852.00,0.0046
1849.00,0.0045
1846.00,0.0046
1843.00,0.0046
1840.00,0.0047
1837.00,0.0047
1834.00,0.0047
1831.00,0.0048
1828.00,0.0049
1825.00,0.0050
1822.00,0.0051
1819.00,0.0049
1816.00,0.0048
1813.00,0.0051
1810.00,0.0054
1807.00,0.0058
1804.00,0.0061
1801.00,0.0061
1798.00,0.0060
1795.00,0.0059
1792.00,0.0056
1789.00,0.0055
1786.00,0.0056
1783.00,0.0057
1780.00,0.0059
1777.00,0.0061
1774.00,0.0065
1771.00,0.0066
1768.00,0.0064
1765.00,0.0060
1762.00,0.0058
1759.00,0.0057
1756.00,0.0057
1753.00,0.0057
1750.00,0.0056
1747.00,0.0057
1744.00,0.0057
1741.00,0.0058
1738.00,0.0059
1735.00,0.0060
1732.00,0.0060
1729.00,0.0062
1726.00,0.0063
1723.00,0.0064
1720.00,0.0065
1717.00,0.0066
1714.00,0.0068
1711.00,0.0070
1708.00,0.0072
1705.00,0.0075
1702.00,0.0076
1699.00,0.0079
1696.00,0.0081
1693.00,0.0081
1690.00,0.0083
1687.00,0.0083
1684.00,0.0084
1681.00,0.0086
1678.00,0.0090
1675.00,0.0097
1672.00,0.0105
1669.00,0.0117
1666.00,0.0131
1663.00,0.0142
1660.00,0.0144
1657.00,0.0143
1654.00,0.0154
1651.00,0.0194
1648.00,0.0261
1645.00,0.0433
1642.00,0.0450
1639.00,0.0404
1636.00,0.0488
1633.00,0.0652
1630.00,0.0728
1627.00,0.0804
1624.00,0.0910
1621.00,0.0867
1618.00,0.0655
1615.00,0.0437
1612.00,0.0339
1609.00,0.0274
1606.00,0.0237
1603.00,0.0222
1600.00,0.0229
1597.00,0.0259
1594.00,0.0333
1591.00,0.0495
1588.00,0.0750
1585.00,0.0985
1582.00,0.1116
1579.00,0.1036
1576.00,0.0772
1573.00,0.0563
1570.00,0.0418
1567.00,0.0305
1564.00,0.0237
1561.00,0.0201
1558.00,0.0171
1555.00,0.0158
1552.00,0.0147
1549.00,0.0137
1546.00,0.0129
1543.00,0.0123
1540.00,0.0122
1537.00,0.0123
1534.00,0.0123
1531.00,0.0125
1528.00,0.0130
1525.00,0.0140
1522.00,0.0170
1519.00,0.0231
1516.00,0.0287
1513.00,0.0295
1510.00,0.0253
1507.00,0.0209
1504.00,0.0187
1501.00,0.0176
1498.00,0.0162
1495.00,0.0145
1492.00,0.0134
1489.00,0.0124
1486.00,0.0120
1483.00,0.0121
1480.00,0.0126
1477.00,0.0137
1474.00,0.0159
1471.00,0.0232
1468.00,0.0337
1465.00,0.0408
1462.00,0.0451
1459.00,0.0485
1456.00,0.0560
1453.00,0.0676
1450.00,0.0887
1447.00,0.1179
1444.00,0.1347
1441.00,0.1347
1438.00,0.1272
1435.00,0.1149
1432.00,0.1007
1429.00,0.0796
1426.00,0.0554
1423.00,0.0376
1420.00,0.0287
1417.00,0.0232
1414.00,0.0203
1411.00,0.0184
1408.00,0.0173
1405.00,0.0168
1402.00,0.0163
1399.00,0.0158
1396.00,0.0156
1393.00,0.0153
1390.00,0.0154
1387.00,0.0166
1384.00,0.0203
1381.00,0.0294
1378.00,0.0467
1375.00,0.0593
1372.00,0.0523
1369.00,0.0420
1366.00,0.0352
1363.00,0.0298
1360.00,0.0265
1357.00,0.0254
1354.00,0.0255
1351.00,0.0261
1348.00,0.0278
1345.00,0.0305
1342.00,0.0323
1339.00,0.0305
1336.00,0.0279
1333.00,0.0291
1330.00,0.0328
1327.00,0.0365
1324.00,0.0395
1321.00,0.0371
1318.00,0.0357
1315.00,0.0447
1312.00,0.0567
1309.00,0.0563
1306.00,0.0538
1303.00,0.0574
1300.00,0.0587
1297.00,0.0560
1294.00,0.0513
1291.00,0.0464
1288.00,0.0443
1285.00,0.0485
1282.00,0.0557
1279.00,0.0598
1276.00,0.0577
1273.00,0.0499
1270.00,0.0391
1267.00,0.0300
1264.00,0.0245
1261.00,0.0214
1258.00,0.0199
1255.00,0.0198
1252.00,0.0223
1249.00,0.0269
1246.00,0.0297
1243.00,0.0373
1240.00,0.0550
1237.00,0.0703
1234.00,0.0704
1231.00,0.0631
1228.00,0.0629
1225.00,0.0778
1222.00,0.0981
1219.00,0.1280
1216.00,0.1624
1213.00,0.1669
1210.00,0.1403
1207.00,0.1118
1204.00,0.0902
1201.00,0.0690
1198.00,0.0519
1195.00,0.0426
1192.00,0.0403
1189.00,0.0424
1186.00,0.0459
1183.00,0.0499
1180.00,0.0525
1177.00,0.0543
1174.00,0.0585
1171.00,0.0606
1168.00,0.0445
1165.00,0.0316
1162.00,0.0260
1159.00,0.0249
1156.00,0.0299
1153.00,0.0492
1150.00,0.0650
1147.00,0.0441
1144.00,0.0273
1141.00,0.0225
1138.00,0.0230
1135.00,0.0246
1132.00,0.0228
1129.00,0.0191
1126.00,0.0166
1123.00,0.0155
1120.00,0.0153
1117.00,0.0158
1114.00,0.0167
1111.00,0.0177
1108.00,0.0198
1105.00,0.0232
1102.00,0.0280
1099.00,0.0323
1096.00,0.0287
1093.00,0.0232
1090.00,0.0204
1087.00,0.0199
1084.00,0.0233
1081.00,0.0304
1078.00,0.0318
1075.00,0.0261
1072.00,0.0221
1069.00,0.0203
1066.00,0.0200
1063.00,0.0213
1060.00,0.0255
1057.00,0.0381
1054.00,0.0625
1051.00,0.0744
1048.00,0.0635
1045.00,0.0456
1042.00,0.0411
1039.00,0.0456
1036.00,0.0600
1033.00,0.0823
1030.00,0.0829
1027.00,0.0689
1024.00,0.0716
1021.00,0.0952
1018.00,0.1062
1015.00,0.0873
1012.00,0.0669
1009.00,0.0593
1006.00,0.0636
1003.00,0.0727
1000.00,0.0695
997.00,0.0522
994.00,0.0393
991.00,0.0366
988.00,0.0403
985.00,0.0430
982.00,0.0386
979.00,0.0327
976.00,0.0306
973.00,0.0292
970.00,0.0313
967.00,0.0364
964.00,0.0438
961.00,0.0496
958.00,0.0414
955.00,0.0299
952.00,0.0240
949.00,0.0214
946.00,0.0199
943.00,0.0190
940.00,0.0185
937.00,0.0182
934.00,0.0186
931.00,0.0201
928.00,0.0213
925.00,0.0212
922.00,0.0211
919.00,0.0225
916.00,0.0257
913.00,0.0262
910.00,0.0264
907.00,0.0317
904.00,0.0429
901.00,0.0620
898.00,0.0945
895.00,0.1036
892.00,0.0789
889.00,0.0669
886.00,0.0908
883.00,0.1202
880.00,0.0904
877.00,0.0578
874.00,0.0482
871.00,0.0530
868.00,0.0542
865.00,0.0550
862.00,0.0668
859.00,0.0675
856.00,0.0689
853.00,0.0749
850.00,0.0768
847.00,0.0690
844.00,0.0630
841.00,0.0588
838.00,0.0561
835.00,0.0597
832.00,0.0676
829.00,0.0746
826.00,0.0734
823.00,0.0606
820.00,0.0459
817.00,0.0358
814.00,0.0316
811.00,0.0302
808.00,0.0391
805.00,0.0610
802.00,0.0556
799.00,0.0390
796.00,0.0310
793.00,0.0289
790.00,0.0279
787.00,0.0277
784.00,0.0272
781.00,0.0247
778.00,0.0243
775.00,0.0237
772.00,0.0237
769.00,0.0237
766.00,0.0211
763.00,0.0188
760.00,0.0182
757.00,0.0194
754.00,0.0243
751.00,0.0301
748.00,0.0315
745.00,0.0253
742.00,0.0203
739.00,0.0189
736.00,0.0203
733.00,0.0256
730.00,0.0289
727.00,0.0244
724.00,0.0223
721.00,0.0215
718.00,0.0202
715.00,0.0180
712.00,0.0174
709.00,0.0168
706.00,0.0153
703.00,0.0146
700.00,0.0144
697.00,0.0146
694.00,0.0145
691.00,0.0145
688.00,0.0149
685.00,0.0153
682.00,0.0159
679.00,0.0169
676.00,0.0187
673.00,0.0218
670.00,0.0265
667.00,0.0301
664.00,0.0310
661.00,0.0317
658.00,0.0317
655.00,0.0307
652.00,0.0315
649.00,0.0342
646.00,0.0322
643.00,0.0274
640.00,0.0244
637.00,0.0242
634.00,0.0250
631.00,0.0266
628.00,0.0287
625.00,0.0309
622.00,0.0309
619.00,0.0268
616.00,0.0243
613.00,0.0314
610.00,0.0368
607.00,0.0347
604.00,0.0366
601.00,0.0400
598.00,0.0434
595.00,0.0426
592.00,0.0464
589.00,0.0547
586.00,0.0590
583.00,0.0534
580.00,0.0457
577.00,0.0420
574.00,0.0423
571.00,0.0444
568.00,0.0461
565.00,0.0477
562.00,0.0481
559.00,0.0477
556.00,0.0478
553.00,0.0495
550.00,0.0544
547.00,0.0582
544.00,0.0632
541.00,0.0654
538.00,0.0746
535.00,0.0815
532.00,0.0771
529.00,0.0746
526.00,0.0833
523.00,0.0987
520.00,0.0946
517.00,0.0719
514.00,0.0619
511.00,0.0616
508.00,0.0665
505.00,0.0767
502.00,0.0896
499.00,0.1007
496.00,0.1082
493.00,0.1096
490.00,0.1076
487.00,0.1064
484.00,0.1052
481.00,0.1000
478.00,0.0916
475.00,0.0895
472.00,0.0926
469.00,0.0979
466.00,0.1013
463.00,0.1007
460.00,0.0993
457.00,0.0978
454.00,0.0969
451.00,0.0946
448.00,0.0897
445.00,0.0852
442.00,0.0802
439.00,0.0776
436.00,0.0777
433.00,0.0781
430.00,0.0816
427.00,0.0941
424.00,0.1023
421.00,0.1000
418.00,0.0957
415.00,0.0939
412.00,0.0970
409.00,0.1037
406.00,0.1078
403.00,0.1119
400.00,0.1199