File: FTIR/Mary/Mechano/CoCrystal/2025_07_09_MC_CoCrystal_CBD_LPro_Scan1.csv
Created as New Dataset,Sample 804 By YargerLab Date Wednesday, July 09 2025
cm-1,A
4000.00,0.0020
3997.00,0.0020
3994.00,0.0020
3991.00,0.0020
3988.00,0.0020
3985.00,0.0020
3982.00,0.0019
3979.00,0.0020
3976.00,0.0020
3973.00,0.0020
3970.00,0.0020
3967.00,0.0021
3964.00,0.0021
3961.00,0.0021
3958.00,0.0020
3955.00,0.0020
3952.00,0.0020
3949.00,0.0020
3946.00,0.0019
3943.00,0.0019
3940.00,0.0019
3937.00,0.0019
3934.00,0.0019
3931.00,0.0019
3928.00,0.0018
3925.00,0.0018
3922.00,0.0019
3919.00,0.0019
3916.00,0.0019
3913.00,0.0019
3910.00,0.0018
3907.00,0.0018
3904.00,0.0017
3901.00,0.0017
3898.00,0.0017
3895.00,0.0017
3892.00,0.0017
3889.00,0.0017
3886.00,0.0016
3883.00,0.0017
3880.00,0.0016
3877.00,0.0016
3874.00,0.0017
3871.00,0.0016
3868.00,0.0016
3865.00,0.0015
3862.00,0.0016
3859.00,0.0016
3856.00,0.0016
3853.00,0.0015
3850.00,0.0015
3847.00,0.0016
3844.00,0.0016
3841.00,0.0016
3838.00,0.0015
3835.00,0.0014
3832.00,0.0015
3829.00,0.0015
3826.00,0.0015
3823.00,0.0015
3820.00,0.0014
3817.00,0.0013
3814.00,0.0014
3811.00,0.0015
3808.00,0.0015
3805.00,0.0014
3802.00,0.0013
3799.00,0.0013
3796.00,0.0014
3793.00,0.0015
3790.00,0.0015
3787.00,0.0015
3784.00,0.0015
3781.00,0.0015
3778.00,0.0014
3775.00,0.0014
3772.00,0.0013
3769.00,0.0014
3766.00,0.0014
3763.00,0.0014
3760.00,0.0014
3757.00,0.0014
3754.00,0.0013
3751.00,0.0013
3748.00,0.0012
3745.00,0.0012
3742.00,0.0012
3739.00,0.0011
3736.00,0.0011
3733.00,0.0011
3730.00,0.0012
3727.00,0.0012
3724.00,0.0012
3721.00,0.0012
3718.00,0.0012
3715.00,0.0012
3712.00,0.0012
3709.00,0.0011
3706.00,0.0012
3703.00,0.0012
3700.00,0.0012
3697.00,0.0012
3694.00,0.0013
3691.00,0.0012
3688.00,0.0012
3685.00,0.0012
3682.00,0.0013
3679.00,0.0013
3676.00,0.0012
3673.00,0.0011
3670.00,0.0012
3667.00,0.0013
3664.00,0.0014
3661.00,0.0014
3658.00,0.0015
3655.00,0.0014
3652.00,0.0013
3649.00,0.0013
3646.00,0.0014
3643.00,0.0015
3640.00,0.0015
3637.00,0.0016
3634.00,0.0016
3631.00,0.0016
3628.00,0.0017
3625.00,0.0018
3622.00,0.0020
3619.00,0.0021
3616.00,0.0023
3613.00,0.0024
3610.00,0.0023
3607.00,0.0024
3604.00,0.0025
3601.00,0.0026
3598.00,0.0027
3595.00,0.0028
3592.00,0.0029
3589.00,0.0030
3586.00,0.0031
3583.00,0.0033
3580.00,0.0036
3577.00,0.0038
3574.00,0.0041
3571.00,0.0043
3568.00,0.0046
3565.00,0.0048
3562.00,0.0051
3559.00,0.0056
3556.00,0.0059
3553.00,0.0063
3550.00,0.0068
3547.00,0.0073
3544.00,0.0079
3541.00,0.0086
3538.00,0.0094
3535.00,0.0105
3532.00,0.0118
3529.00,0.0137
3526.00,0.0160
3523.00,0.0179
3520.00,0.0187
3517.00,0.0184
3514.00,0.0178
3511.00,0.0172
3508.00,0.0172
3505.00,0.0175
3502.00,0.0182
3499.00,0.0192
3496.00,0.0204
3493.00,0.0217
3490.00,0.0232
3487.00,0.0250
3484.00,0.0268
3481.00,0.0289
3478.00,0.0311
3475.00,0.0336
3472.00,0.0368
3469.00,0.0412
3466.00,0.0470
3463.00,0.0548
3460.00,0.0656
3457.00,0.0794
3454.00,0.0942
3451.00,0.1039
3448.00,0.1027
3445.00,0.0924
3442.00,0.0794
3439.00,0.0681
3436.00,0.0600
3433.00,0.0547
3430.00,0.0513
3427.00,0.0491
3424.00,0.0476
3421.00,0.0466
3418.00,0.0460
3415.00,0.0456
3412.00,0.0450
3409.00,0.0442
3406.00,0.0432
3403.00,0.0418
3400.00,0.0402
3397.00,0.0384
3394.00,0.0369
3391.00,0.0356
3388.00,0.0344
3385.00,0.0336
3382.00,0.0328
3379.00,0.0321
3376.00,0.0314
3373.00,0.0307
3370.00,0.0302
3367.00,0.0296
3364.00,0.0291
3361.00,0.0286
3358.00,0.0281
3355.00,0.0277
3352.00,0.0274
3349.00,0.0271
3346.00,0.0267
3343.00,0.0263
3340.00,0.0259
3337.00,0.0256
3334.00,0.0254
3331.00,0.0250
3328.00,0.0249
3325.00,0.0248
3322.00,0.0246
3319.00,0.0244
3316.00,0.0244
3313.00,0.0243
3310.00,0.0242
3307.00,0.0241
3304.00,0.0242
3301.00,0.0243
3298.00,0.0243
3295.00,0.0243
3292.00,0.0245
3289.00,0.0248
3286.00,0.0250
3283.00,0.0253
3280.00,0.0255
3277.00,0.0256
3274.00,0.0257
3271.00,0.0259
3268.00,0.0266
3265.00,0.0271
3262.00,0.0274
3259.00,0.0276
3256.00,0.0277
3253.00,0.0281
3250.00,0.0282
3247.00,0.0283
3244.00,0.0288
3241.00,0.0291
3238.00,0.0294
3235.00,0.0296
3232.00,0.0300
3229.00,0.0304
3226.00,0.0307
3223.00,0.0310
3220.00,0.0313
3217.00,0.0316
3214.00,0.0320
3211.00,0.0324
3208.00,0.0328
3205.00,0.0332
3202.00,0.0336
3199.00,0.0340
3196.00,0.0341
3193.00,0.0343
3190.00,0.0344
3187.00,0.0346
3184.00,0.0348
3181.00,0.0349
3178.00,0.0351
3175.00,0.0352
3172.00,0.0352
3169.00,0.0353
3166.00,0.0354
3163.00,0.0354
3160.00,0.0354
3157.00,0.0353
3154.00,0.0351
3151.00,0.0355
3148.00,0.0362
3145.00,0.0367
3142.00,0.0369
3139.00,0.0372
3136.00,0.0377
3133.00,0.0380
3130.00,0.0382
3127.00,0.0385
3124.00,0.0387
3121.00,0.0387
3118.00,0.0388
3115.00,0.0392
3112.00,0.0397
3109.00,0.0401
3106.00,0.0406
3103.00,0.0409
3100.00,0.0412
3097.00,0.0413
3094.00,0.0413
3091.00,0.0414
3088.00,0.0416
3085.00,0.0420
3082.00,0.0428
3079.00,0.0442
3076.00,0.0465
3073.00,0.0483
3070.00,0.0483
3067.00,0.0468
3064.00,0.0444
3061.00,0.0419
3058.00,0.0397
3055.00,0.0383
3052.00,0.0373
3049.00,0.0366
3046.00,0.0362
3043.00,0.0361
3040.00,0.0362
3037.00,0.0363
3034.00,0.0362
3031.00,0.0359
3028.00,0.0352
3025.00,0.0344
3022.00,0.0337
3019.00,0.0332
3016.00,0.0328
3013.00,0.0327
3010.00,0.0330
3007.00,0.0334
3004.00,0.0340
3001.00,0.0347
2998.00,0.0357
2995.00,0.0373
2992.00,0.0395
2989.00,0.0414
2986.00,0.0426
2983.00,0.0442
2980.00,0.0475
2977.00,0.0518
2974.00,0.0560
2971.00,0.0602
2968.00,0.0647
2965.00,0.0694
2962.00,0.0758
2959.00,0.0830
2956.00,0.0877
2953.00,0.0885
2950.00,0.0851
2947.00,0.0806
2944.00,0.0816
2941.00,0.0890
2938.00,0.0998
2935.00,0.1126
2932.00,0.1282
2929.00,0.1448
2926.00,0.1552
2923.00,0.1553
2920.00,0.1479
2917.00,0.1372
2914.00,0.1253
2911.00,0.1124
2908.00,0.0998
2905.00,0.0896
2902.00,0.0825
2899.00,0.0772
2896.00,0.0725
2893.00,0.0689
2890.00,0.0663
2887.00,0.0649
2884.00,0.0640
2881.00,0.0638
2878.00,0.0655
2875.00,0.0698
2872.00,0.0751
2869.00,0.0752
2866.00,0.0719
2863.00,0.0749
2860.00,0.0844
2857.00,0.0916
2854.00,0.0883
2851.00,0.0776
2848.00,0.0663
2845.00,0.0582
2842.00,0.0534
2839.00,0.0504
2836.00,0.0511
2833.00,0.0524
2830.00,0.0495
2827.00,0.0427
2824.00,0.0363
2821.00,0.0324
2818.00,0.0301
2815.00,0.0285
2812.00,0.0274
2809.00,0.0264
2806.00,0.0257
2803.00,0.0252
2800.00,0.0246
2797.00,0.0242
2794.00,0.0239
2791.00,0.0235
2788.00,0.0233
2785.00,0.0232
2782.00,0.0232
2779.00,0.0233
2776.00,0.0235
2773.00,0.0237
2770.00,0.0239
2767.00,0.0242
2764.00,0.0244
2761.00,0.0246
2758.00,0.0248
2755.00,0.0249
2752.00,0.0250
2749.00,0.0251
2746.00,0.0252
2743.00,0.0255
2740.00,0.0257
2737.00,0.0261
2734.00,0.0267
2731.00,0.0271
2728.00,0.0272
2725.00,0.0271
2722.00,0.0268
2719.00,0.0267
2716.00,0.0265
2713.00,0.0265
2710.00,0.0265
2707.00,0.0266
2704.00,0.0266
2701.00,0.0267
2698.00,0.0268
2695.00,0.0269
2692.00,0.0270
2689.00,0.0271
2686.00,0.0271
2683.00,0.0271
2680.00,0.0270
2677.00,0.0270
2674.00,0.0271
2671.00,0.0272
2668.00,0.0274
2665.00,0.0276
2662.00,0.0276
2659.00,0.0275
2656.00,0.0272
2653.00,0.0269
2650.00,0.0267
2647.00,0.0264
2644.00,0.0263
2641.00,0.0262
2638.00,0.0260
2635.00,0.0258
2632.00,0.0256
2629.00,0.0255
2626.00,0.0254
2623.00,0.0254
2620.00,0.0252
2617.00,0.0251
2614.00,0.0250
2611.00,0.0248
2608.00,0.0247
2605.00,0.0246
2602.00,0.0243
2599.00,0.0240
2596.00,0.0237
2593.00,0.0234
2590.00,0.0232
2587.00,0.0229
2584.00,0.0227
2581.00,0.0226
2578.00,0.0225
2575.00,0.0224
2572.00,0.0224
2569.00,0.0226
2566.00,0.0228
2563.00,0.0230
2560.00,0.0232
2557.00,0.0233
2554.00,0.0233
2551.00,0.0232
2548.00,0.0230
2545.00,0.0228
2542.00,0.0225
2539.00,0.0221
2536.00,0.0218
2533.00,0.0215
2530.00,0.0213
2527.00,0.0212
2524.00,0.0210
2521.00,0.0209
2518.00,0.0207
2515.00,0.0203
2512.00,0.0199
2509.00,0.0196
2506.00,0.0193
2503.00,0.0192
2500.00,0.0190
2497.00,0.0188
2494.00,0.0187
2491.00,0.0187
2488.00,0.0188
2485.00,0.0188
2482.00,0.0187
2479.00,0.0187
2476.00,0.0186
2473.00,0.0185
2470.00,0.0185
2467.00,0.0184
2464.00,0.0184
2461.00,0.0186
2458.00,0.0188
2455.00,0.0189
2452.00,0.0190
2449.00,0.0190
2446.00,0.0191
2443.00,0.0189
2440.00,0.0188
2437.00,0.0187
2434.00,0.0186
2431.00,0.0185
2428.00,0.0183
2425.00,0.0183
2422.00,0.0181
2419.00,0.0180
2416.00,0.0177
2413.00,0.0175
2410.00,0.0171
2407.00,0.0166
2404.00,0.0162
2401.00,0.0158
2398.00,0.0154
2395.00,0.0150
2392.00,0.0147
2389.00,0.0144
2386.00,0.0141
2383.00,0.0137
2380.00,0.0134
2377.00,0.0130
2374.00,0.0128
2371.00,0.0124
2368.00,0.0121
2365.00,0.0119
2362.00,0.0117
2359.00,0.0115
2356.00,0.0113
2353.00,0.0110
2350.00,0.0108
2347.00,0.0106
2344.00,0.0104
2341.00,0.0103
2338.00,0.0102
2335.00,0.0099
2332.00,0.0095
2329.00,0.0095
2326.00,0.0102
2323.00,0.0099
2320.00,0.0093
2317.00,0.0089
2314.00,0.0086
2311.00,0.0084
2308.00,0.0083
2305.00,0.0081
2302.00,0.0081
2299.00,0.0079
2296.00,0.0079
2293.00,0.0079
2290.00,0.0079
2287.00,0.0077
2284.00,0.0074
2281.00,0.0072
2278.00,0.0070
2275.00,0.0068
2272.00,0.0066
2269.00,0.0066
2266.00,0.0067
2263.00,0.0067
2260.00,0.0068
2257.00,0.0065
2254.00,0.0061
2251.00,0.0059
2248.00,0.0058
2245.00,0.0056
2242.00,0.0055
2239.00,0.0055
2236.00,0.0053
2233.00,0.0053
2230.00,0.0052
2227.00,0.0050
2224.00,0.0047
2221.00,0.0047
2218.00,0.0050
2215.00,0.0047
2212.00,0.0045
2209.00,0.0043
2206.00,0.0042
2203.00,0.0042
2200.00,0.0042
2197.00,0.0043
2194.00,0.0042
2191.00,0.0041
2188.00,0.0045
2185.00,0.0045
2182.00,0.0036
2179.00,0.0037
2176.00,0.0033
2173.00,0.0036
2170.00,0.0042
2167.00,0.0044
2164.00,0.0044
2161.00,0.0027
2158.00,0.0001
2155.00,0.0006
2152.00,0.0013
2149.00,0.0019
2146.00,0.0015
2143.00,0.0015
2140.00,0.0015
2137.00,0.0012
2134.00,0.0008
2131.00,0.0011
2128.00,0.0015
2125.00,0.0017
2122.00,0.0020
2119.00,0.0021
2116.00,0.0024
2113.00,0.0024
2110.00,0.0023
2107.00,0.0022
2104.00,0.0020
2101.00,0.0020
2098.00,0.0018
2095.00,0.0016
2092.00,0.0019
2089.00,0.0021
2086.00,0.0022
2083.00,0.0023
2080.00,0.0020
2077.00,0.0018
2074.00,0.0017
2071.00,0.0015
2068.00,0.0013
2065.00,0.0012
2062.00,0.0010
2059.00,0.0011
2056.00,0.0010
2053.00,0.0016
2050.00,0.0017
2047.00,0.0013
2044.00,0.0009
2041.00,0.0011
2038.00,0.0011
2035.00,0.0011
2032.00,0.0006
2029.00,0.0002
2026.00,0.0006
2023.00,0.0007
2020.00,0.0010
2017.00,0.0010
2014.00,0.0006
2011.00,0.0009
2008.00,0.0007
2005.00,0.0006
2002.00,0.0009
1999.00,0.0010
1996.00,0.0013
1993.00,0.0015
1990.00,0.0017
1987.00,0.0022
1984.00,0.0025
1981.00,0.0029
1978.00,0.0015
1975.00,0.0006
1972.00,0.0006
1969.00,0.0006
1966.00,0.0009
1963.00,0.0008
1960.00,0.0006
1957.00,0.0009
1954.00,0.0011
1951.00,0.0011
1948.00,0.0014
1945.00,0.0015
1942.00,0.0015
1939.00,0.0014
1936.00,0.0014
1933.00,0.0015
1930.00,0.0017
1927.00,0.0017
1924.00,0.0017
1921.00,0.0019
1918.00,0.0021
1915.00,0.0019
1912.00,0.0019
1909.00,0.0020
1906.00,0.0019
1903.00,0.0019
1900.00,0.0019
1897.00,0.0019
1894.00,0.0018
1891.00,0.0020
1888.00,0.0021
1885.00,0.0020
1882.00,0.0020
1879.00,0.0021
1876.00,0.0022
1873.00,0.0022
1870.00,0.0022
1867.00,0.0022
1864.00,0.0023
1861.00,0.0023
1858.00,0.0023
1855.00,0.0024
1852.00,0.0024
1849.00,0.0025
1846.00,0.0025
1843.00,0.0027
1840.00,0.0028
1837.00,0.0027
1834.00,0.0027
1831.00,0.0028
1828.00,0.0028
1825.00,0.0029
1822.00,0.0029
1819.00,0.0029
1816.00,0.0028
1813.00,0.0029
1810.00,0.0031
1807.00,0.0034
1804.00,0.0036
1801.00,0.0037
1798.00,0.0039
1795.00,0.0040
1792.00,0.0046
1789.00,0.0050
1786.00,0.0057
1783.00,0.0058
1780.00,0.0055
1777.00,0.0055
1774.00,0.0056
1771.00,0.0055
1768.00,0.0054
1765.00,0.0050
1762.00,0.0051
1759.00,0.0050
1756.00,0.0050
1753.00,0.0051
1750.00,0.0051
1747.00,0.0051
1744.00,0.0052
1741.00,0.0050
1738.00,0.0052
1735.00,0.0056
1732.00,0.0059
1729.00,0.0061
1726.00,0.0063
1723.00,0.0065
1720.00,0.0065
1717.00,0.0067
1714.00,0.0071
1711.00,0.0074
1708.00,0.0076
1705.00,0.0079
1702.00,0.0081
1699.00,0.0084
1696.00,0.0087
1693.00,0.0091
1690.00,0.0094
1687.00,0.0095
1684.00,0.0102
1681.00,0.0111
1678.00,0.0118
1675.00,0.0131
1672.00,0.0142
1669.00,0.0166
1666.00,0.0190
1663.00,0.0219
1660.00,0.0254
1657.00,0.0289
1654.00,0.0348
1651.00,0.0484
1648.00,0.0613
1645.00,0.0940
1642.00,0.1220
1639.00,0.1440
1636.00,0.1716
1633.00,0.1988
1630.00,0.1990
1627.00,0.1773
1624.00,0.1476
1621.00,0.1167
1618.00,0.0933
1615.00,0.0737
1612.00,0.0635
1609.00,0.0569
1606.00,0.0540
1603.00,0.0546
1600.00,0.0589
1597.00,0.0682
1594.00,0.0872
1591.00,0.1199
1588.00,0.1604
1585.00,0.1958
1582.00,0.2206
1579.00,0.2296
1576.00,0.2262
1573.00,0.2155
1570.00,0.1987
1567.00,0.1788
1564.00,0.1573
1561.00,0.1384
1558.00,0.1126
1555.00,0.0973
1552.00,0.0837
1549.00,0.0725
1546.00,0.0644
1543.00,0.0577
1540.00,0.0529
1537.00,0.0505
1534.00,0.0497
1531.00,0.0516
1528.00,0.0561
1525.00,0.0615
1522.00,0.0621
1519.00,0.0583
1516.00,0.0518
1513.00,0.0465
1510.00,0.0418
1507.00,0.0374
1504.00,0.0342
1501.00,0.0318
1498.00,0.0296
1495.00,0.0284
1492.00,0.0276
1489.00,0.0272
1486.00,0.0274
1483.00,0.0288
1480.00,0.0318
1477.00,0.0361
1474.00,0.0421
1471.00,0.0573
1468.00,0.0705
1465.00,0.0722
1462.00,0.0780
1459.00,0.0928
1456.00,0.1254
1453.00,0.1538
1450.00,0.1932
1447.00,0.2343
1444.00,0.2557
1441.00,0.2508
1438.00,0.2258
1435.00,0.1959
1432.00,0.1709
1429.00,0.1396
1426.00,0.1131
1423.00,0.0941
1420.00,0.0843
1417.00,0.0797
1414.00,0.0779
1411.00,0.0777
1408.00,0.0787
1405.00,0.0812
1402.00,0.0834
1399.00,0.0838
1396.00,0.0814
1393.00,0.0763
1390.00,0.0714
1387.00,0.0688
1384.00,0.0724
1381.00,0.0906
1378.00,0.1139
1375.00,0.1142
1372.00,0.0999
1369.00,0.0979
1366.00,0.0985
1363.00,0.0923
1360.00,0.0889
1357.00,0.0928
1354.00,0.1052
1351.00,0.1177
1348.00,0.1206
1345.00,0.1118
1342.00,0.1043
1339.00,0.1052
1336.00,0.1100
1333.00,0.1055
1330.00,0.0972
1327.00,0.1009
1324.00,0.1186
1321.00,0.1434
1318.00,0.1532
1315.00,0.1370
1312.00,0.1181
1309.00,0.1087
1306.00,0.1106
1303.00,0.1090
1300.00,0.1016
1297.00,0.0999
1294.00,0.1009
1291.00,0.1073
1288.00,0.1200
1285.00,0.1336
1282.00,0.1495
1279.00,0.1516
1276.00,0.1298
1273.00,0.1032
1270.00,0.0834
1267.00,0.0692
1264.00,0.0597
1261.00,0.0551
1258.00,0.0564
1255.00,0.0672
1252.00,0.0813
1249.00,0.0926
1246.00,0.1141
1243.00,0.1284
1240.00,0.1217
1237.00,0.1085
1234.00,0.0972
1231.00,0.0956
1228.00,0.1028
1225.00,0.1042
1222.00,0.1063
1219.00,0.1164
1216.00,0.1208
1213.00,0.1139
1210.00,0.1135
1207.00,0.1367
1204.00,0.1423
1201.00,0.1106
1198.00,0.0807
1195.00,0.0645
1192.00,0.0599
1189.00,0.0603
1186.00,0.0597
1183.00,0.0602
1180.00,0.0669
1177.00,0.0869
1174.00,0.1139
1171.00,0.1292
1168.00,0.1078
1165.00,0.0795
1162.00,0.0626
1159.00,0.0560
1156.00,0.0574
1153.00,0.0720
1150.00,0.1044
1147.00,0.1013
1144.00,0.0600
1141.00,0.0397
1138.00,0.0356
1135.00,0.0350
1132.00,0.0315
1129.00,0.0264
1126.00,0.0227
1123.00,0.0205
1120.00,0.0198
1117.00,0.0200
1114.00,0.0215
1111.00,0.0242
1108.00,0.0282
1105.00,0.0331
1102.00,0.0397
1099.00,0.0440
1096.00,0.0397
1093.00,0.0338
1090.00,0.0297
1087.00,0.0286
1084.00,0.0310
1081.00,0.0334
1078.00,0.0322
1075.00,0.0285
1072.00,0.0265
1069.00,0.0265
1066.00,0.0292
1063.00,0.0365
1060.00,0.0526
1057.00,0.0836
1054.00,0.1228
1051.00,0.1174
1048.00,0.0848
1045.00,0.0707
1042.00,0.0755
1039.00,0.0935
1036.00,0.1262
1033.00,0.1570
1030.00,0.1651
1027.00,0.1529
1024.00,0.1317
1021.00,0.1153
1018.00,0.1041
1015.00,0.0881
1012.00,0.0744
1009.00,0.0674
1006.00,0.0617
1003.00,0.0590
1000.00,0.0650
997.00,0.0616
994.00,0.0490
991.00,0.0453
988.00,0.0478
985.00,0.0491
982.00,0.0439
979.00,0.0376
976.00,0.0345
973.00,0.0340
970.00,0.0358
967.00,0.0391
964.00,0.0467
961.00,0.0570
958.00,0.0579
955.00,0.0505
952.00,0.0439
949.00,0.0403
946.00,0.0391
943.00,0.0400
940.00,0.0391
937.00,0.0354
934.00,0.0336
931.00,0.0355
928.00,0.0397
925.00,0.0436
922.00,0.0468
919.00,0.0534
916.00,0.0603
913.00,0.0622
910.00,0.0552
907.00,0.0564
904.00,0.0702
901.00,0.0830
898.00,0.0864
895.00,0.0920
892.00,0.1288
889.00,0.1692
886.00,0.1649
883.00,0.1577
880.00,0.1105
877.00,0.0865
874.00,0.0773
871.00,0.0769
868.00,0.0837
865.00,0.1034
862.00,0.1344
859.00,0.1428
856.00,0.1424
853.00,0.1329
850.00,0.1196
847.00,0.1161
844.00,0.1185
841.00,0.1199
838.00,0.1233
835.00,0.1104
832.00,0.1009
829.00,0.1047
826.00,0.0976
823.00,0.0778
820.00,0.0647
817.00,0.0570
814.00,0.0545
811.00,0.0563
808.00,0.0651
805.00,0.0896
802.00,0.0942
799.00,0.0856
796.00,0.0923
793.00,0.0897
790.00,0.0718
787.00,0.0606
784.00,0.0564
781.00,0.0533
778.00,0.0533
775.00,0.0561
772.00,0.0602
769.00,0.0613
766.00,0.0584
763.00,0.0546
760.00,0.0526
757.00,0.0535
754.00,0.0551
751.00,0.0527
748.00,0.0503
745.00,0.0480
742.00,0.0474
739.00,0.0516
736.00,0.0615
733.00,0.0714
730.00,0.0660
727.00,0.0564
724.00,0.0523
721.00,0.0498
718.00,0.0485
715.00,0.0482
712.00,0.0486
709.00,0.0478
706.00,0.0467
703.00,0.0463
700.00,0.0464
697.00,0.0471
694.00,0.0482
691.00,0.0502
688.00,0.0538
685.00,0.0588
682.00,0.0650
679.00,0.0703
676.00,0.0721
673.00,0.0713
670.00,0.0716
667.00,0.0660
664.00,0.0580
661.00,0.0541
658.00,0.0531
655.00,0.0522
652.00,0.0538
649.00,0.0559
646.00,0.0538
643.00,0.0515
640.00,0.0521
637.00,0.0546
634.00,0.0564
631.00,0.0564
628.00,0.0541
625.00,0.0517
622.00,0.0500
619.00,0.0505
616.00,0.0565
613.00,0.0602
610.00,0.0600
607.00,0.0599
604.00,0.0599
601.00,0.0607
598.00,0.0624
595.00,0.0642
592.00,0.0646
589.00,0.0633
586.00,0.0624
583.00,0.0671
580.00,0.0894
577.00,0.0972
574.00,0.0704
571.00,0.0556
568.00,0.0505
565.00,0.0497
562.00,0.0525
559.00,0.0586
556.00,0.0732
553.00,0.1009
550.00,0.1020
547.00,0.0831
544.00,0.0795
541.00,0.0813
538.00,0.0933
535.00,0.1134
532.00,0.1034
529.00,0.0917
526.00,0.1041
523.00,0.1037
520.00,0.0906
517.00,0.0712
514.00,0.0647
511.00,0.0648
508.00,0.0681
505.00,0.0745
502.00,0.0853
499.00,0.1008
496.00,0.1207
493.00,0.1416
490.00,0.1582
487.00,0.1650
484.00,0.1648
481.00,0.1646
478.00,0.1653
475.00,0.1654
472.00,0.1630
469.00,0.1600
466.00,0.1583
463.00,0.1511
460.00,0.1361
457.00,0.1277
454.00,0.1244
451.00,0.1218
448.00,0.1185
445.00,0.1149
442.00,0.1110
439.00,0.1101
436.00,0.1107
433.00,0.1060
430.00,0.0986
427.00,0.0947
424.00,0.0920
421.00,0.0912
418.00,0.0865
415.00,0.0827
412.00,0.0813
409.00,0.0807
406.00,0.0794
403.00,0.0782
400.00,0.0807