File: FTIR/Mary/Mechano/CoCrystal/2025_07_09_CBD_MC_Pre_Scan3.csv
Created as New Dataset,Sample 800 By YargerLab Date Wednesday, July 09 2025
cm-1,A
4000.00,0.0056
3997.00,0.0056
3994.00,0.0057
3991.00,0.0057
3988.00,0.0057
3985.00,0.0057
3982.00,0.0057
3979.00,0.0057
3976.00,0.0057
3973.00,0.0058
3970.00,0.0058
3967.00,0.0058
3964.00,0.0058
3961.00,0.0058
3958.00,0.0059
3955.00,0.0059
3952.00,0.0059
3949.00,0.0059
3946.00,0.0059
3943.00,0.0058
3940.00,0.0058
3937.00,0.0059
3934.00,0.0059
3931.00,0.0059
3928.00,0.0059
3925.00,0.0059
3922.00,0.0059
3919.00,0.0060
3916.00,0.0059
3913.00,0.0059
3910.00,0.0058
3907.00,0.0057
3904.00,0.0057
3901.00,0.0057
3898.00,0.0057
3895.00,0.0057
3892.00,0.0056
3889.00,0.0057
3886.00,0.0057
3883.00,0.0057
3880.00,0.0056
3877.00,0.0056
3874.00,0.0056
3871.00,0.0056
3868.00,0.0057
3865.00,0.0056
3862.00,0.0056
3859.00,0.0056
3856.00,0.0055
3853.00,0.0055
3850.00,0.0055
3847.00,0.0056
3844.00,0.0056
3841.00,0.0056
3838.00,0.0055
3835.00,0.0055
3832.00,0.0055
3829.00,0.0055
3826.00,0.0054
3823.00,0.0055
3820.00,0.0055
3817.00,0.0054
3814.00,0.0054
3811.00,0.0054
3808.00,0.0055
3805.00,0.0054
3802.00,0.0053
3799.00,0.0053
3796.00,0.0054
3793.00,0.0054
3790.00,0.0054
3787.00,0.0054
3784.00,0.0054
3781.00,0.0054
3778.00,0.0054
3775.00,0.0054
3772.00,0.0055
3769.00,0.0055
3766.00,0.0054
3763.00,0.0054
3760.00,0.0054
3757.00,0.0054
3754.00,0.0054
3751.00,0.0054
3748.00,0.0053
3745.00,0.0053
3742.00,0.0051
3739.00,0.0051
3736.00,0.0051
3733.00,0.0052
3730.00,0.0051
3727.00,0.0051
3724.00,0.0051
3721.00,0.0050
3718.00,0.0051
3715.00,0.0052
3712.00,0.0051
3709.00,0.0050
3706.00,0.0050
3703.00,0.0051
3700.00,0.0051
3697.00,0.0051
3694.00,0.0050
3691.00,0.0051
3688.00,0.0051
3685.00,0.0051
3682.00,0.0051
3679.00,0.0051
3676.00,0.0050
3673.00,0.0050
3670.00,0.0050
3667.00,0.0050
3664.00,0.0050
3661.00,0.0051
3658.00,0.0051
3655.00,0.0051
3652.00,0.0050
3649.00,0.0049
3646.00,0.0049
3643.00,0.0050
3640.00,0.0050
3637.00,0.0050
3634.00,0.0050
3631.00,0.0050
3628.00,0.0050
3625.00,0.0050
3622.00,0.0050
3619.00,0.0050
3616.00,0.0050
3613.00,0.0051
3610.00,0.0052
3607.00,0.0052
3604.00,0.0052
3601.00,0.0052
3598.00,0.0053
3595.00,0.0053
3592.00,0.0053
3589.00,0.0054
3586.00,0.0055
3583.00,0.0056
3580.00,0.0057
3577.00,0.0058
3574.00,0.0060
3571.00,0.0061
3568.00,0.0063
3565.00,0.0065
3562.00,0.0068
3559.00,0.0071
3556.00,0.0075
3553.00,0.0080
3550.00,0.0086
3547.00,0.0093
3544.00,0.0104
3541.00,0.0117
3538.00,0.0136
3535.00,0.0164
3532.00,0.0205
3529.00,0.0271
3526.00,0.0361
3523.00,0.0445
3520.00,0.0485
3517.00,0.0469
3514.00,0.0417
3511.00,0.0354
3508.00,0.0302
3505.00,0.0266
3502.00,0.0246
3499.00,0.0235
3496.00,0.0231
3493.00,0.0232
3490.00,0.0236
3487.00,0.0243
3484.00,0.0251
3481.00,0.0261
3478.00,0.0273
3475.00,0.0287
3472.00,0.0304
3469.00,0.0322
3466.00,0.0340
3463.00,0.0360
3460.00,0.0382
3457.00,0.0403
3454.00,0.0423
3451.00,0.0443
3448.00,0.0462
3445.00,0.0482
3442.00,0.0501
3439.00,0.0520
3436.00,0.0538
3433.00,0.0555
3430.00,0.0572
3427.00,0.0590
3424.00,0.0610
3421.00,0.0635
3418.00,0.0665
3415.00,0.0698
3412.00,0.0727
3409.00,0.0744
3406.00,0.0741
3403.00,0.0715
3400.00,0.0667
3397.00,0.0606
3394.00,0.0543
3391.00,0.0485
3388.00,0.0436
3385.00,0.0397
3382.00,0.0365
3379.00,0.0337
3376.00,0.0313
3373.00,0.0293
3370.00,0.0276
3367.00,0.0259
3364.00,0.0244
3361.00,0.0230
3358.00,0.0218
3355.00,0.0208
3352.00,0.0198
3349.00,0.0189
3346.00,0.0180
3343.00,0.0173
3340.00,0.0167
3337.00,0.0160
3334.00,0.0155
3331.00,0.0150
3328.00,0.0145
3325.00,0.0141
3322.00,0.0137
3319.00,0.0133
3316.00,0.0129
3313.00,0.0126
3310.00,0.0123
3307.00,0.0120
3304.00,0.0117
3301.00,0.0115
3298.00,0.0112
3295.00,0.0109
3292.00,0.0106
3289.00,0.0104
3286.00,0.0102
3283.00,0.0100
3280.00,0.0098
3277.00,0.0096
3274.00,0.0095
3271.00,0.0093
3268.00,0.0093
3265.00,0.0092
3262.00,0.0092
3259.00,0.0091
3256.00,0.0090
3253.00,0.0090
3250.00,0.0089
3247.00,0.0087
3244.00,0.0087
3241.00,0.0087
3238.00,0.0085
3235.00,0.0083
3232.00,0.0082
3229.00,0.0082
3226.00,0.0081
3223.00,0.0081
3220.00,0.0080
3217.00,0.0080
3214.00,0.0080
3211.00,0.0080
3208.00,0.0080
3205.00,0.0079
3202.00,0.0079
3199.00,0.0078
3196.00,0.0078
3193.00,0.0077
3190.00,0.0077
3187.00,0.0077
3184.00,0.0077
3181.00,0.0078
3178.00,0.0078
3175.00,0.0078
3172.00,0.0079
3169.00,0.0078
3166.00,0.0079
3163.00,0.0079
3160.00,0.0078
3157.00,0.0078
3154.00,0.0076
3151.00,0.0076
3148.00,0.0076
3145.00,0.0075
3142.00,0.0075
3139.00,0.0075
3136.00,0.0075
3133.00,0.0075
3130.00,0.0074
3127.00,0.0074
3124.00,0.0074
3121.00,0.0073
3118.00,0.0073
3115.00,0.0074
3112.00,0.0074
3109.00,0.0073
3106.00,0.0073
3103.00,0.0074
3100.00,0.0075
3097.00,0.0076
3094.00,0.0077
3091.00,0.0079
3088.00,0.0082
3085.00,0.0087
3082.00,0.0100
3079.00,0.0128
3076.00,0.0164
3073.00,0.0162
3070.00,0.0130
3067.00,0.0105
3064.00,0.0094
3061.00,0.0089
3058.00,0.0086
3055.00,0.0084
3052.00,0.0084
3049.00,0.0085
3046.00,0.0089
3043.00,0.0092
3040.00,0.0096
3037.00,0.0102
3034.00,0.0107
3031.00,0.0107
3028.00,0.0103
3025.00,0.0097
3022.00,0.0094
3019.00,0.0094
3016.00,0.0094
3013.00,0.0096
3010.00,0.0100
3007.00,0.0104
3004.00,0.0108
3001.00,0.0112
2998.00,0.0118
2995.00,0.0124
2992.00,0.0135
2989.00,0.0147
2986.00,0.0155
2983.00,0.0167
2980.00,0.0189
2977.00,0.0228
2974.00,0.0287
2971.00,0.0361
2968.00,0.0427
2965.00,0.0459
2962.00,0.0457
2959.00,0.0436
2956.00,0.0400
2953.00,0.0367
2950.00,0.0355
2947.00,0.0383
2944.00,0.0445
2941.00,0.0507
2938.00,0.0563
2935.00,0.0632
2932.00,0.0711
2929.00,0.0791
2926.00,0.0847
2923.00,0.0851
2920.00,0.0828
2917.00,0.0808
2914.00,0.0773
2911.00,0.0709
2908.00,0.0633
2905.00,0.0568
2902.00,0.0523
2899.00,0.0485
2896.00,0.0439
2893.00,0.0398
2890.00,0.0373
2887.00,0.0360
2884.00,0.0355
2881.00,0.0356
2878.00,0.0367
2875.00,0.0388
2872.00,0.0405
2869.00,0.0399
2866.00,0.0392
2863.00,0.0426
2860.00,0.0519
2857.00,0.0621
2854.00,0.0615
2851.00,0.0506
2848.00,0.0391
2845.00,0.0308
2842.00,0.0257
2839.00,0.0235
2836.00,0.0242
2833.00,0.0290
2830.00,0.0344
2827.00,0.0318
2824.00,0.0241
2821.00,0.0187
2818.00,0.0159
2815.00,0.0144
2812.00,0.0134
2809.00,0.0128
2806.00,0.0122
2803.00,0.0117
2800.00,0.0113
2797.00,0.0109
2794.00,0.0106
2791.00,0.0103
2788.00,0.0101
2785.00,0.0098
2782.00,0.0096
2779.00,0.0094
2776.00,0.0092
2773.00,0.0090
2770.00,0.0089
2767.00,0.0088
2764.00,0.0087
2761.00,0.0086
2758.00,0.0085
2755.00,0.0085
2752.00,0.0085
2749.00,0.0085
2746.00,0.0086
2743.00,0.0087
2740.00,0.0088
2737.00,0.0091
2734.00,0.0095
2731.00,0.0100
2728.00,0.0102
2725.00,0.0098
2722.00,0.0093
2719.00,0.0089
2716.00,0.0086
2713.00,0.0084
2710.00,0.0082
2707.00,0.0081
2704.00,0.0080
2701.00,0.0079
2698.00,0.0079
2695.00,0.0079
2692.00,0.0079
2689.00,0.0080
2686.00,0.0080
2683.00,0.0081
2680.00,0.0082
2677.00,0.0083
2674.00,0.0084
2671.00,0.0086
2668.00,0.0087
2665.00,0.0087
2662.00,0.0088
2659.00,0.0088
2656.00,0.0088
2653.00,0.0087
2650.00,0.0086
2647.00,0.0084
2644.00,0.0084
2641.00,0.0083
2638.00,0.0083
2635.00,0.0082
2632.00,0.0082
2629.00,0.0083
2626.00,0.0083
2623.00,0.0082
2620.00,0.0082
2617.00,0.0081
2614.00,0.0081
2611.00,0.0080
2608.00,0.0080
2605.00,0.0080
2602.00,0.0079
2599.00,0.0079
2596.00,0.0079
2593.00,0.0078
2590.00,0.0077
2587.00,0.0077
2584.00,0.0076
2581.00,0.0077
2578.00,0.0076
2575.00,0.0076
2572.00,0.0077
2569.00,0.0077
2566.00,0.0077
2563.00,0.0076
2560.00,0.0076
2557.00,0.0076
2554.00,0.0076
2551.00,0.0075
2548.00,0.0075
2545.00,0.0074
2542.00,0.0074
2539.00,0.0074
2536.00,0.0074
2533.00,0.0074
2530.00,0.0073
2527.00,0.0073
2524.00,0.0074
2521.00,0.0073
2518.00,0.0073
2515.00,0.0074
2512.00,0.0073
2509.00,0.0073
2506.00,0.0072
2503.00,0.0072
2500.00,0.0073
2497.00,0.0073
2494.00,0.0073
2491.00,0.0073
2488.00,0.0073
2485.00,0.0074
2482.00,0.0074
2479.00,0.0073
2476.00,0.0075
2473.00,0.0075
2470.00,0.0075
2467.00,0.0074
2464.00,0.0074
2461.00,0.0075
2458.00,0.0076
2455.00,0.0077
2452.00,0.0076
2449.00,0.0076
2446.00,0.0075
2443.00,0.0073
2440.00,0.0071
2437.00,0.0069
2434.00,0.0067
2431.00,0.0067
2428.00,0.0066
2425.00,0.0065
2422.00,0.0065
2419.00,0.0064
2416.00,0.0064
2413.00,0.0064
2410.00,0.0063
2407.00,0.0062
2404.00,0.0061
2401.00,0.0062
2398.00,0.0061
2395.00,0.0060
2392.00,0.0061
2389.00,0.0061
2386.00,0.0060
2383.00,0.0058
2380.00,0.0055
2377.00,0.0054
2374.00,0.0055
2371.00,0.0056
2368.00,0.0055
2365.00,0.0055
2362.00,0.0055
2359.00,0.0055
2356.00,0.0056
2353.00,0.0056
2350.00,0.0055
2347.00,0.0057
2344.00,0.0057
2341.00,0.0057
2338.00,0.0059
2335.00,0.0059
2332.00,0.0059
2329.00,0.0061
2326.00,0.0071
2323.00,0.0069
2320.00,0.0063
2317.00,0.0062
2314.00,0.0061
2311.00,0.0059
2308.00,0.0059
2305.00,0.0060
2302.00,0.0060
2299.00,0.0061
2296.00,0.0063
2293.00,0.0065
2290.00,0.0069
2287.00,0.0070
2284.00,0.0069
2281.00,0.0067
2278.00,0.0065
2275.00,0.0064
2272.00,0.0063
2269.00,0.0062
2266.00,0.0060
2263.00,0.0061
2260.00,0.0064
2257.00,0.0062
2254.00,0.0060
2251.00,0.0062
2248.00,0.0063
2245.00,0.0061
2242.00,0.0061
2239.00,0.0062
2236.00,0.0062
2233.00,0.0061
2230.00,0.0060
2227.00,0.0062
2224.00,0.0059
2221.00,0.0059
2218.00,0.0059
2215.00,0.0060
2212.00,0.0057
2209.00,0.0057
2206.00,0.0059
2203.00,0.0061
2200.00,0.0059
2197.00,0.0059
2194.00,0.0059
2191.00,0.0060
2188.00,0.0061
2185.00,0.0061
2182.00,0.0054
2179.00,0.0056
2176.00,0.0050
2173.00,0.0055
2170.00,0.0064
2167.00,0.0067
2164.00,0.0072
2161.00,0.0054
2158.00,0.0020
2155.00,0.0026
2152.00,0.0032
2149.00,0.0037
2146.00,0.0035
2143.00,0.0035
2140.00,0.0037
2137.00,0.0034
2134.00,0.0031
2131.00,0.0037
2128.00,0.0041
2125.00,0.0043
2122.00,0.0046
2119.00,0.0048
2116.00,0.0051
2113.00,0.0052
2110.00,0.0051
2107.00,0.0050
2104.00,0.0050
2101.00,0.0050
2098.00,0.0050
2095.00,0.0046
2092.00,0.0047
2089.00,0.0050
2086.00,0.0053
2083.00,0.0054
2080.00,0.0054
2077.00,0.0052
2074.00,0.0050
2071.00,0.0051
2068.00,0.0050
2065.00,0.0047
2062.00,0.0045
2059.00,0.0048
2056.00,0.0050
2053.00,0.0057
2050.00,0.0056
2047.00,0.0045
2044.00,0.0043
2041.00,0.0044
2038.00,0.0043
2035.00,0.0041
2032.00,0.0038
2029.00,0.0038
2026.00,0.0037
2023.00,0.0037
2020.00,0.0041
2017.00,0.0043
2014.00,0.0042
2011.00,0.0040
2008.00,0.0037
2005.00,0.0034
2002.00,0.0035
1999.00,0.0037
1996.00,0.0042
1993.00,0.0046
1990.00,0.0046
1987.00,0.0050
1984.00,0.0056
1981.00,0.0063
1978.00,0.0042
1975.00,0.0037
1972.00,0.0040
1969.00,0.0037
1966.00,0.0036
1963.00,0.0034
1960.00,0.0033
1957.00,0.0035
1954.00,0.0035
1951.00,0.0036
1948.00,0.0039
1945.00,0.0039
1942.00,0.0039
1939.00,0.0039
1936.00,0.0041
1933.00,0.0040
1930.00,0.0039
1927.00,0.0041
1924.00,0.0043
1921.00,0.0044
1918.00,0.0043
1915.00,0.0045
1912.00,0.0046
1909.00,0.0046
1906.00,0.0048
1903.00,0.0047
1900.00,0.0048
1897.00,0.0047
1894.00,0.0048
1891.00,0.0049
1888.00,0.0048
1885.00,0.0049
1882.00,0.0049
1879.00,0.0048
1876.00,0.0050
1873.00,0.0051
1870.00,0.0050
1867.00,0.0049
1864.00,0.0049
1861.00,0.0049
1858.00,0.0050
1855.00,0.0050
1852.00,0.0050
1849.00,0.0050
1846.00,0.0050
1843.00,0.0050
1840.00,0.0051
1837.00,0.0051
1834.00,0.0051
1831.00,0.0052
1828.00,0.0053
1825.00,0.0053
1822.00,0.0054
1819.00,0.0053
1816.00,0.0052
1813.00,0.0055
1810.00,0.0058
1807.00,0.0062
1804.00,0.0064
1801.00,0.0065
1798.00,0.0064
1795.00,0.0062
1792.00,0.0060
1789.00,0.0060
1786.00,0.0060
1783.00,0.0061
1780.00,0.0062
1777.00,0.0064
1774.00,0.0068
1771.00,0.0070
1768.00,0.0067
1765.00,0.0064
1762.00,0.0062
1759.00,0.0061
1756.00,0.0061
1753.00,0.0060
1750.00,0.0060
1747.00,0.0060
1744.00,0.0061
1741.00,0.0061
1738.00,0.0062
1735.00,0.0062
1732.00,0.0063
1729.00,0.0064
1726.00,0.0065
1723.00,0.0067
1720.00,0.0067
1717.00,0.0068
1714.00,0.0070
1711.00,0.0072
1708.00,0.0074
1705.00,0.0076
1702.00,0.0077
1699.00,0.0079
1696.00,0.0080
1693.00,0.0080
1690.00,0.0080
1687.00,0.0081
1684.00,0.0081
1681.00,0.0082
1678.00,0.0086
1675.00,0.0092
1672.00,0.0099
1669.00,0.0111
1666.00,0.0123
1663.00,0.0134
1660.00,0.0136
1657.00,0.0135
1654.00,0.0145
1651.00,0.0183
1648.00,0.0248
1645.00,0.0411
1642.00,0.0430
1639.00,0.0388
1636.00,0.0465
1633.00,0.0621
1630.00,0.0696
1627.00,0.0768
1624.00,0.0868
1621.00,0.0826
1618.00,0.0628
1615.00,0.0419
1612.00,0.0327
1609.00,0.0266
1606.00,0.0231
1603.00,0.0217
1600.00,0.0223
1597.00,0.0251
1594.00,0.0321
1591.00,0.0475
1588.00,0.0718
1585.00,0.0942
1582.00,0.1068
1579.00,0.0995
1576.00,0.0743
1573.00,0.0544
1570.00,0.0406
1567.00,0.0298
1564.00,0.0233
1561.00,0.0198
1558.00,0.0168
1555.00,0.0156
1552.00,0.0147
1549.00,0.0137
1546.00,0.0130
1543.00,0.0124
1540.00,0.0122
1537.00,0.0123
1534.00,0.0123
1531.00,0.0125
1528.00,0.0129
1525.00,0.0140
1522.00,0.0167
1519.00,0.0225
1516.00,0.0279
1513.00,0.0286
1510.00,0.0248
1507.00,0.0206
1504.00,0.0183
1501.00,0.0174
1498.00,0.0159
1495.00,0.0143
1492.00,0.0133
1489.00,0.0124
1486.00,0.0119
1483.00,0.0120
1480.00,0.0125
1477.00,0.0135
1474.00,0.0155
1471.00,0.0223
1468.00,0.0323
1465.00,0.0391
1462.00,0.0431
1459.00,0.0465
1456.00,0.0534
1453.00,0.0645
1450.00,0.0846
1447.00,0.1123
1444.00,0.1283
1441.00,0.1284
1438.00,0.1215
1435.00,0.1095
1432.00,0.0963
1429.00,0.0762
1426.00,0.0533
1423.00,0.0363
1420.00,0.0279
1417.00,0.0226
1414.00,0.0200
1411.00,0.0182
1408.00,0.0171
1405.00,0.0165
1402.00,0.0161
1399.00,0.0157
1396.00,0.0154
1393.00,0.0151
1390.00,0.0151
1387.00,0.0163
1384.00,0.0197
1381.00,0.0283
1378.00,0.0448
1375.00,0.0568
1372.00,0.0502
1369.00,0.0405
1366.00,0.0340
1363.00,0.0289
1360.00,0.0258
1357.00,0.0247
1354.00,0.0248
1351.00,0.0254
1348.00,0.0269
1345.00,0.0295
1342.00,0.0312
1339.00,0.0296
1336.00,0.0271
1333.00,0.0282
1330.00,0.0317
1327.00,0.0352
1324.00,0.0380
1321.00,0.0358
1318.00,0.0344
1315.00,0.0429
1312.00,0.0542
1309.00,0.0540
1306.00,0.0515
1303.00,0.0550
1300.00,0.0563
1297.00,0.0536
1294.00,0.0490
1291.00,0.0444
1288.00,0.0425
1285.00,0.0465
1282.00,0.0534
1279.00,0.0574
1276.00,0.0554
1273.00,0.0481
1270.00,0.0378
1267.00,0.0290
1264.00,0.0238
1261.00,0.0209
1258.00,0.0194
1255.00,0.0193
1252.00,0.0216
1249.00,0.0260
1246.00,0.0287
1243.00,0.0359
1240.00,0.0528
1237.00,0.0674
1234.00,0.0675
1231.00,0.0606
1228.00,0.0604
1225.00,0.0744
1222.00,0.0935
1219.00,0.1222
1216.00,0.1554
1213.00,0.1601
1210.00,0.1348
1207.00,0.1075
1204.00,0.0868
1201.00,0.0666
1198.00,0.0503
1195.00,0.0413
1192.00,0.0390
1189.00,0.0410
1186.00,0.0444
1183.00,0.0482
1180.00,0.0505
1177.00,0.0522
1174.00,0.0562
1171.00,0.0585
1168.00,0.0431
1165.00,0.0307
1162.00,0.0253
1159.00,0.0243
1156.00,0.0288
1153.00,0.0471
1150.00,0.0625
1147.00,0.0428
1144.00,0.0266
1141.00,0.0219
1138.00,0.0223
1135.00,0.0240
1132.00,0.0223
1129.00,0.0187
1126.00,0.0164
1123.00,0.0153
1120.00,0.0150
1117.00,0.0154
1114.00,0.0163
1111.00,0.0174
1108.00,0.0194
1105.00,0.0225
1102.00,0.0269
1099.00,0.0312
1096.00,0.0278
1093.00,0.0225
1090.00,0.0200
1087.00,0.0194
1084.00,0.0226
1081.00,0.0294
1078.00,0.0308
1075.00,0.0253
1072.00,0.0215
1069.00,0.0198
1066.00,0.0194
1063.00,0.0207
1060.00,0.0246
1057.00,0.0366
1054.00,0.0600
1051.00,0.0714
1048.00,0.0611
1045.00,0.0440
1042.00,0.0396
1039.00,0.0439
1036.00,0.0576
1033.00,0.0788
1030.00,0.0795
1027.00,0.0663
1024.00,0.0688
1021.00,0.0914
1018.00,0.1022
1015.00,0.0840
1012.00,0.0646
1009.00,0.0573
1006.00,0.0613
1003.00,0.0700
1000.00,0.0669
997.00,0.0503
994.00,0.0381
991.00,0.0354
988.00,0.0389
985.00,0.0415
982.00,0.0373
979.00,0.0317
976.00,0.0297
973.00,0.0283
970.00,0.0302
967.00,0.0351
964.00,0.0422
961.00,0.0478
958.00,0.0400
955.00,0.0291
952.00,0.0233
949.00,0.0208
946.00,0.0195
943.00,0.0186
940.00,0.0180
937.00,0.0178
934.00,0.0182
931.00,0.0196
928.00,0.0206
925.00,0.0205
922.00,0.0205
919.00,0.0218
916.00,0.0248
913.00,0.0252
910.00,0.0254
907.00,0.0306
904.00,0.0414
901.00,0.0593
898.00,0.0903
895.00,0.0990
892.00,0.0753
889.00,0.0637
886.00,0.0864
883.00,0.1145
880.00,0.0863
877.00,0.0553
874.00,0.0461
871.00,0.0508
868.00,0.0519
865.00,0.0528
862.00,0.0641
859.00,0.0646
856.00,0.0659
853.00,0.0714
850.00,0.0731
847.00,0.0658
844.00,0.0601
841.00,0.0562
838.00,0.0537
835.00,0.0570
832.00,0.0646
829.00,0.0712
826.00,0.0702
823.00,0.0581
820.00,0.0440
817.00,0.0345
814.00,0.0306
811.00,0.0293
808.00,0.0377
805.00,0.0583
802.00,0.0534
799.00,0.0377
796.00,0.0301
793.00,0.0281
790.00,0.0272
787.00,0.0270
784.00,0.0264
781.00,0.0241
778.00,0.0237
775.00,0.0231
772.00,0.0232
769.00,0.0232
766.00,0.0207
763.00,0.0186
760.00,0.0180
757.00,0.0189
754.00,0.0237
751.00,0.0292
748.00,0.0304
745.00,0.0247
742.00,0.0200
739.00,0.0187
736.00,0.0200
733.00,0.0249
730.00,0.0281
727.00,0.0238
724.00,0.0219
721.00,0.0211
718.00,0.0198
715.00,0.0177
712.00,0.0172
709.00,0.0166
706.00,0.0152
703.00,0.0146
700.00,0.0145
697.00,0.0144
694.00,0.0144
691.00,0.0145
688.00,0.0147
685.00,0.0151
682.00,0.0157
679.00,0.0169
676.00,0.0184
673.00,0.0212
670.00,0.0256
667.00,0.0293
664.00,0.0299
661.00,0.0305
658.00,0.0306
655.00,0.0296
652.00,0.0306
649.00,0.0331
646.00,0.0312
643.00,0.0266
640.00,0.0240
637.00,0.0237
634.00,0.0243
631.00,0.0258
628.00,0.0278
625.00,0.0298
622.00,0.0299
619.00,0.0263
616.00,0.0238
613.00,0.0304
610.00,0.0356
607.00,0.0336
604.00,0.0351
601.00,0.0382
598.00,0.0416
595.00,0.0412
592.00,0.0445
589.00,0.0522
586.00,0.0562
583.00,0.0511
580.00,0.0438
577.00,0.0401
574.00,0.0405
571.00,0.0425
568.00,0.0442
565.00,0.0453
562.00,0.0457
559.00,0.0458
556.00,0.0456
553.00,0.0472
550.00,0.0519
547.00,0.0555
544.00,0.0602
541.00,0.0620
538.00,0.0710
535.00,0.0777
532.00,0.0737
529.00,0.0711
526.00,0.0795
523.00,0.0940
520.00,0.0902
517.00,0.0683
514.00,0.0589
511.00,0.0591
508.00,0.0636
505.00,0.0726
502.00,0.0853
499.00,0.0966
496.00,0.1032
493.00,0.1048
490.00,0.1028
487.00,0.1014
484.00,0.1001
481.00,0.0951
478.00,0.0882
475.00,0.0864
472.00,0.0889
469.00,0.0935
466.00,0.0964
463.00,0.0959
460.00,0.0950
457.00,0.0927
454.00,0.0927
451.00,0.0901
448.00,0.0851
445.00,0.0808
442.00,0.0760
439.00,0.0745
436.00,0.0744
433.00,0.0744
430.00,0.0779
427.00,0.0886
424.00,0.0955
421.00,0.0941
418.00,0.0919
415.00,0.0906
412.00,0.0906
409.00,0.0974
406.00,0.1047
403.00,0.1097
400.00,0.1152