File: FTIR/Mary/Mechano/CoCrystal/2025_07_09_L_Proline_MC_Lot_131547_25G_Scan2.csv
Created as New Dataset,Sample 802 By YargerLab Date Wednesday, July 09 2025
cm-1,A
4000.00,0.0109
3997.00,0.0109
3994.00,0.0109
3991.00,0.0109
3988.00,0.0109
3985.00,0.0109
3982.00,0.0109
3979.00,0.0109
3976.00,0.0108
3973.00,0.0108
3970.00,0.0109
3967.00,0.0109
3964.00,0.0110
3961.00,0.0109
3958.00,0.0109
3955.00,0.0109
3952.00,0.0109
3949.00,0.0109
3946.00,0.0110
3943.00,0.0109
3940.00,0.0109
3937.00,0.0109
3934.00,0.0109
3931.00,0.0109
3928.00,0.0109
3925.00,0.0109
3922.00,0.0110
3919.00,0.0110
3916.00,0.0110
3913.00,0.0109
3910.00,0.0109
3907.00,0.0109
3904.00,0.0110
3901.00,0.0109
3898.00,0.0108
3895.00,0.0108
3892.00,0.0108
3889.00,0.0108
3886.00,0.0108
3883.00,0.0107
3880.00,0.0108
3877.00,0.0109
3874.00,0.0108
3871.00,0.0108
3868.00,0.0109
3865.00,0.0108
3862.00,0.0108
3859.00,0.0108
3856.00,0.0108
3853.00,0.0107
3850.00,0.0107
3847.00,0.0108
3844.00,0.0107
3841.00,0.0106
3838.00,0.0106
3835.00,0.0106
3832.00,0.0106
3829.00,0.0106
3826.00,0.0106
3823.00,0.0105
3820.00,0.0104
3817.00,0.0104
3814.00,0.0105
3811.00,0.0106
3808.00,0.0106
3805.00,0.0105
3802.00,0.0104
3799.00,0.0105
3796.00,0.0105
3793.00,0.0106
3790.00,0.0106
3787.00,0.0105
3784.00,0.0105
3781.00,0.0105
3778.00,0.0105
3775.00,0.0105
3772.00,0.0105
3769.00,0.0105
3766.00,0.0104
3763.00,0.0104
3760.00,0.0104
3757.00,0.0104
3754.00,0.0104
3751.00,0.0103
3748.00,0.0103
3745.00,0.0103
3742.00,0.0102
3739.00,0.0101
3736.00,0.0099
3733.00,0.0099
3730.00,0.0100
3727.00,0.0101
3724.00,0.0101
3721.00,0.0101
3718.00,0.0101
3715.00,0.0101
3712.00,0.0100
3709.00,0.0099
3706.00,0.0099
3703.00,0.0100
3700.00,0.0100
3697.00,0.0100
3694.00,0.0099
3691.00,0.0099
3688.00,0.0099
3685.00,0.0099
3682.00,0.0099
3679.00,0.0099
3676.00,0.0099
3673.00,0.0098
3670.00,0.0098
3667.00,0.0100
3664.00,0.0100
3661.00,0.0100
3658.00,0.0100
3655.00,0.0099
3652.00,0.0099
3649.00,0.0099
3646.00,0.0099
3643.00,0.0099
3640.00,0.0098
3637.00,0.0098
3634.00,0.0098
3631.00,0.0098
3628.00,0.0097
3625.00,0.0097
3622.00,0.0098
3619.00,0.0098
3616.00,0.0098
3613.00,0.0099
3610.00,0.0099
3607.00,0.0097
3604.00,0.0097
3601.00,0.0097
3598.00,0.0097
3595.00,0.0098
3592.00,0.0098
3589.00,0.0098
3586.00,0.0098
3583.00,0.0098
3580.00,0.0099
3577.00,0.0099
3574.00,0.0098
3571.00,0.0098
3568.00,0.0098
3565.00,0.0099
3562.00,0.0099
3559.00,0.0099
3556.00,0.0100
3553.00,0.0100
3550.00,0.0100
3547.00,0.0100
3544.00,0.0101
3541.00,0.0102
3538.00,0.0103
3535.00,0.0105
3532.00,0.0107
3529.00,0.0110
3526.00,0.0113
3523.00,0.0118
3520.00,0.0120
3517.00,0.0120
3514.00,0.0118
3511.00,0.0114
3508.00,0.0111
3505.00,0.0109
3502.00,0.0108
3499.00,0.0108
3496.00,0.0107
3493.00,0.0108
3490.00,0.0108
3487.00,0.0108
3484.00,0.0108
3481.00,0.0109
3478.00,0.0110
3475.00,0.0110
3472.00,0.0110
3469.00,0.0111
3466.00,0.0112
3463.00,0.0113
3460.00,0.0114
3457.00,0.0114
3454.00,0.0115
3451.00,0.0116
3448.00,0.0118
3445.00,0.0118
3442.00,0.0119
3439.00,0.0119
3436.00,0.0121
3433.00,0.0122
3430.00,0.0123
3427.00,0.0123
3424.00,0.0124
3421.00,0.0125
3418.00,0.0126
3415.00,0.0128
3412.00,0.0129
3409.00,0.0130
3406.00,0.0130
3403.00,0.0129
3400.00,0.0126
3397.00,0.0124
3394.00,0.0121
3391.00,0.0118
3388.00,0.0116
3385.00,0.0114
3382.00,0.0112
3379.00,0.0111
3376.00,0.0110
3373.00,0.0109
3370.00,0.0108
3367.00,0.0107
3364.00,0.0106
3361.00,0.0106
3358.00,0.0105
3355.00,0.0105
3352.00,0.0104
3349.00,0.0104
3346.00,0.0103
3343.00,0.0103
3340.00,0.0103
3337.00,0.0103
3334.00,0.0102
3331.00,0.0102
3328.00,0.0102
3325.00,0.0101
3322.00,0.0101
3319.00,0.0100
3316.00,0.0101
3313.00,0.0101
3310.00,0.0101
3307.00,0.0100
3304.00,0.0100
3301.00,0.0100
3298.00,0.0100
3295.00,0.0100
3292.00,0.0100
3289.00,0.0101
3286.00,0.0102
3283.00,0.0103
3280.00,0.0102
3277.00,0.0102
3274.00,0.0102
3271.00,0.0102
3268.00,0.0104
3265.00,0.0106
3262.00,0.0107
3259.00,0.0108
3256.00,0.0108
3253.00,0.0111
3250.00,0.0112
3247.00,0.0112
3244.00,0.0115
3241.00,0.0117
3238.00,0.0118
3235.00,0.0115
3232.00,0.0117
3229.00,0.0122
3226.00,0.0124
3223.00,0.0126
3220.00,0.0126
3217.00,0.0128
3214.00,0.0131
3211.00,0.0133
3208.00,0.0135
3205.00,0.0138
3202.00,0.0141
3199.00,0.0144
3196.00,0.0147
3193.00,0.0149
3190.00,0.0152
3187.00,0.0156
3184.00,0.0159
3181.00,0.0162
3178.00,0.0165
3175.00,0.0169
3172.00,0.0172
3169.00,0.0176
3166.00,0.0180
3163.00,0.0183
3160.00,0.0187
3157.00,0.0191
3154.00,0.0193
3151.00,0.0198
3148.00,0.0205
3145.00,0.0211
3142.00,0.0215
3139.00,0.0219
3136.00,0.0229
3133.00,0.0235
3130.00,0.0242
3127.00,0.0251
3124.00,0.0259
3121.00,0.0264
3118.00,0.0273
3115.00,0.0287
3112.00,0.0302
3109.00,0.0315
3106.00,0.0333
3103.00,0.0349
3100.00,0.0365
3097.00,0.0386
3094.00,0.0407
3091.00,0.0427
3088.00,0.0451
3085.00,0.0476
3082.00,0.0504
3079.00,0.0534
3076.00,0.0570
3073.00,0.0603
3070.00,0.0629
3067.00,0.0655
3064.00,0.0682
3061.00,0.0704
3058.00,0.0721
3055.00,0.0733
3052.00,0.0741
3049.00,0.0743
3046.00,0.0740
3043.00,0.0733
3040.00,0.0724
3037.00,0.0712
3034.00,0.0697
3031.00,0.0683
3028.00,0.0669
3025.00,0.0653
3022.00,0.0639
3019.00,0.0629
3016.00,0.0627
3013.00,0.0636
3010.00,0.0653
3007.00,0.0659
3004.00,0.0648
3001.00,0.0631
2998.00,0.0619
2995.00,0.0618
2992.00,0.0636
2989.00,0.0692
2986.00,0.0786
2983.00,0.0842
2980.00,0.0800
2977.00,0.0733
2974.00,0.0693
2971.00,0.0673
2968.00,0.0658
2965.00,0.0646
2962.00,0.0644
2959.00,0.0654
2956.00,0.0663
2953.00,0.0656
2950.00,0.0638
2947.00,0.0617
2944.00,0.0602
2941.00,0.0590
2938.00,0.0581
2935.00,0.0577
2932.00,0.0574
2929.00,0.0570
2926.00,0.0565
2923.00,0.0559
2920.00,0.0552
2917.00,0.0545
2914.00,0.0539
2911.00,0.0533
2908.00,0.0526
2905.00,0.0519
2902.00,0.0515
2899.00,0.0510
2896.00,0.0502
2893.00,0.0495
2890.00,0.0490
2887.00,0.0489
2884.00,0.0490
2881.00,0.0493
2878.00,0.0495
2875.00,0.0493
2872.00,0.0489
2869.00,0.0484
2866.00,0.0479
2863.00,0.0476
2860.00,0.0477
2857.00,0.0482
2854.00,0.0484
2851.00,0.0480
2848.00,0.0474
2845.00,0.0471
2842.00,0.0469
2839.00,0.0468
2836.00,0.0469
2833.00,0.0474
2830.00,0.0482
2827.00,0.0488
2824.00,0.0493
2821.00,0.0500
2818.00,0.0509
2815.00,0.0520
2812.00,0.0529
2809.00,0.0537
2806.00,0.0543
2803.00,0.0547
2800.00,0.0549
2797.00,0.0553
2794.00,0.0558
2791.00,0.0563
2788.00,0.0571
2785.00,0.0579
2782.00,0.0585
2779.00,0.0588
2776.00,0.0586
2773.00,0.0582
2770.00,0.0575
2767.00,0.0565
2764.00,0.0555
2761.00,0.0545
2758.00,0.0536
2755.00,0.0527
2752.00,0.0518
2749.00,0.0510
2746.00,0.0503
2743.00,0.0498
2740.00,0.0492
2737.00,0.0489
2734.00,0.0487
2731.00,0.0484
2728.00,0.0482
2725.00,0.0480
2722.00,0.0479
2719.00,0.0478
2716.00,0.0477
2713.00,0.0475
2710.00,0.0475
2707.00,0.0476
2704.00,0.0478
2701.00,0.0481
2698.00,0.0484
2695.00,0.0487
2692.00,0.0492
2689.00,0.0496
2686.00,0.0501
2683.00,0.0504
2680.00,0.0508
2677.00,0.0511
2674.00,0.0513
2671.00,0.0515
2668.00,0.0517
2665.00,0.0519
2662.00,0.0521
2659.00,0.0523
2656.00,0.0526
2653.00,0.0528
2650.00,0.0531
2647.00,0.0532
2644.00,0.0533
2641.00,0.0534
2638.00,0.0534
2635.00,0.0533
2632.00,0.0533
2629.00,0.0534
2626.00,0.0534
2623.00,0.0535
2620.00,0.0536
2617.00,0.0535
2614.00,0.0533
2611.00,0.0530
2608.00,0.0528
2605.00,0.0527
2602.00,0.0528
2599.00,0.0528
2596.00,0.0530
2593.00,0.0534
2590.00,0.0537
2587.00,0.0537
2584.00,0.0537
2581.00,0.0536
2578.00,0.0535
2575.00,0.0533
2572.00,0.0533
2569.00,0.0531
2566.00,0.0531
2563.00,0.0530
2560.00,0.0529
2557.00,0.0529
2554.00,0.0528
2551.00,0.0528
2548.00,0.0528
2545.00,0.0529
2542.00,0.0532
2539.00,0.0535
2536.00,0.0539
2533.00,0.0544
2530.00,0.0550
2527.00,0.0556
2524.00,0.0562
2521.00,0.0568
2518.00,0.0575
2515.00,0.0583
2512.00,0.0589
2509.00,0.0594
2506.00,0.0598
2503.00,0.0600
2500.00,0.0601
2497.00,0.0600
2494.00,0.0597
2491.00,0.0594
2488.00,0.0592
2485.00,0.0590
2482.00,0.0589
2479.00,0.0587
2476.00,0.0586
2473.00,0.0587
2470.00,0.0587
2467.00,0.0588
2464.00,0.0588
2461.00,0.0587
2458.00,0.0584
2455.00,0.0581
2452.00,0.0579
2449.00,0.0576
2446.00,0.0575
2443.00,0.0578
2440.00,0.0581
2437.00,0.0586
2434.00,0.0592
2431.00,0.0600
2428.00,0.0608
2425.00,0.0617
2422.00,0.0626
2419.00,0.0635
2416.00,0.0644
2413.00,0.0652
2410.00,0.0661
2407.00,0.0668
2404.00,0.0676
2401.00,0.0685
2398.00,0.0692
2395.00,0.0698
2392.00,0.0704
2389.00,0.0708
2386.00,0.0708
2383.00,0.0703
2380.00,0.0695
2377.00,0.0691
2374.00,0.0689
2371.00,0.0686
2368.00,0.0681
2365.00,0.0679
2362.00,0.0675
2359.00,0.0669
2356.00,0.0665
2353.00,0.0661
2350.00,0.0658
2347.00,0.0644
2344.00,0.0645
2341.00,0.0643
2338.00,0.0639
2335.00,0.0632
2332.00,0.0625
2329.00,0.0627
2326.00,0.0628
2323.00,0.0617
2320.00,0.0612
2317.00,0.0607
2314.00,0.0598
2311.00,0.0593
2308.00,0.0590
2305.00,0.0589
2302.00,0.0586
2299.00,0.0583
2296.00,0.0581
2293.00,0.0579
2290.00,0.0575
2287.00,0.0569
2284.00,0.0560
2281.00,0.0551
2278.00,0.0544
2275.00,0.0536
2272.00,0.0530
2269.00,0.0524
2266.00,0.0515
2263.00,0.0509
2260.00,0.0505
2257.00,0.0497
2254.00,0.0489
2251.00,0.0484
2248.00,0.0479
2245.00,0.0474
2242.00,0.0468
2239.00,0.0462
2236.00,0.0456
2233.00,0.0450
2230.00,0.0445
2227.00,0.0440
2224.00,0.0434
2221.00,0.0429
2218.00,0.0425
2215.00,0.0419
2212.00,0.0416
2209.00,0.0413
2206.00,0.0407
2203.00,0.0403
2200.00,0.0401
2197.00,0.0398
2194.00,0.0393
2191.00,0.0389
2188.00,0.0384
2185.00,0.0374
2182.00,0.0361
2179.00,0.0355
2176.00,0.0338
2173.00,0.0335
2170.00,0.0339
2167.00,0.0342
2164.00,0.0340
2161.00,0.0316
2158.00,0.0282
2155.00,0.0290
2152.00,0.0294
2149.00,0.0292
2146.00,0.0288
2143.00,0.0282
2140.00,0.0277
2137.00,0.0270
2134.00,0.0262
2131.00,0.0263
2128.00,0.0264
2125.00,0.0261
2122.00,0.0258
2119.00,0.0256
2116.00,0.0256
2113.00,0.0253
2110.00,0.0249
2107.00,0.0244
2104.00,0.0240
2101.00,0.0236
2098.00,0.0232
2095.00,0.0227
2092.00,0.0226
2089.00,0.0226
2086.00,0.0226
2083.00,0.0225
2080.00,0.0224
2077.00,0.0218
2074.00,0.0213
2071.00,0.0209
2068.00,0.0204
2065.00,0.0200
2062.00,0.0199
2059.00,0.0199
2056.00,0.0197
2053.00,0.0205
2050.00,0.0203
2047.00,0.0194
2044.00,0.0190
2041.00,0.0191
2038.00,0.0191
2035.00,0.0182
2032.00,0.0175
2029.00,0.0172
2026.00,0.0170
2023.00,0.0172
2020.00,0.0169
2017.00,0.0169
2014.00,0.0170
2011.00,0.0173
2008.00,0.0167
2005.00,0.0167
2002.00,0.0171
1999.00,0.0175
1996.00,0.0178
1993.00,0.0178
1990.00,0.0181
1987.00,0.0184
1984.00,0.0188
1981.00,0.0189
1978.00,0.0170
1975.00,0.0162
1972.00,0.0157
1969.00,0.0150
1966.00,0.0152
1963.00,0.0155
1960.00,0.0151
1957.00,0.0151
1954.00,0.0151
1951.00,0.0150
1948.00,0.0149
1945.00,0.0147
1942.00,0.0145
1939.00,0.0145
1936.00,0.0144
1933.00,0.0143
1930.00,0.0142
1927.00,0.0142
1924.00,0.0139
1921.00,0.0140
1918.00,0.0141
1915.00,0.0140
1912.00,0.0137
1909.00,0.0136
1906.00,0.0135
1903.00,0.0132
1900.00,0.0132
1897.00,0.0129
1894.00,0.0126
1891.00,0.0124
1888.00,0.0125
1885.00,0.0125
1882.00,0.0125
1879.00,0.0125
1876.00,0.0124
1873.00,0.0122
1870.00,0.0120
1867.00,0.0120
1864.00,0.0120
1861.00,0.0119
1858.00,0.0120
1855.00,0.0120
1852.00,0.0120
1849.00,0.0120
1846.00,0.0121
1843.00,0.0124
1840.00,0.0122
1837.00,0.0122
1834.00,0.0122
1831.00,0.0120
1828.00,0.0119
1825.00,0.0120
1822.00,0.0120
1819.00,0.0118
1816.00,0.0119
1813.00,0.0119
1810.00,0.0120
1807.00,0.0120
1804.00,0.0118
1801.00,0.0118
1798.00,0.0118
1795.00,0.0117
1792.00,0.0118
1789.00,0.0118
1786.00,0.0118
1783.00,0.0118
1780.00,0.0119
1777.00,0.0119
1774.00,0.0120
1771.00,0.0123
1768.00,0.0125
1765.00,0.0125
1762.00,0.0126
1759.00,0.0126
1756.00,0.0127
1753.00,0.0127
1750.00,0.0127
1747.00,0.0128
1744.00,0.0129
1741.00,0.0130
1738.00,0.0130
1735.00,0.0131
1732.00,0.0130
1729.00,0.0131
1726.00,0.0133
1723.00,0.0134
1720.00,0.0135
1717.00,0.0139
1714.00,0.0142
1711.00,0.0144
1708.00,0.0144
1705.00,0.0147
1702.00,0.0150
1699.00,0.0156
1696.00,0.0163
1693.00,0.0166
1690.00,0.0169
1687.00,0.0174
1684.00,0.0183
1681.00,0.0188
1678.00,0.0192
1675.00,0.0197
1672.00,0.0198
1669.00,0.0202
1666.00,0.0205
1663.00,0.0210
1660.00,0.0217
1657.00,0.0221
1654.00,0.0234
1651.00,0.0257
1648.00,0.0272
1645.00,0.0318
1642.00,0.0357
1639.00,0.0411
1636.00,0.0528
1633.00,0.0711
1630.00,0.0897
1627.00,0.1145
1624.00,0.1349
1621.00,0.1500
1618.00,0.1553
1615.00,0.1636
1612.00,0.1661
1609.00,0.1666
1606.00,0.1624
1603.00,0.1533
1600.00,0.1420
1597.00,0.1312
1594.00,0.1231
1591.00,0.1187
1588.00,0.1183
1585.00,0.1211
1582.00,0.1261
1579.00,0.1313
1576.00,0.1406
1573.00,0.1491
1570.00,0.1582
1567.00,0.1707
1564.00,0.1807
1561.00,0.1857
1558.00,0.2047
1555.00,0.2081
1552.00,0.2089
1549.00,0.2073
1546.00,0.2020
1543.00,0.1956
1540.00,0.1894
1537.00,0.1810
1534.00,0.1705
1531.00,0.1619
1528.00,0.1521
1525.00,0.1434
1522.00,0.1350
1519.00,0.1280
1516.00,0.1207
1513.00,0.1136
1510.00,0.1064
1507.00,0.1014
1504.00,0.0974
1501.00,0.0919
1498.00,0.0881
1495.00,0.0855
1492.00,0.0813
1489.00,0.0788
1486.00,0.0771
1483.00,0.0773
1480.00,0.0847
1477.00,0.0981
1474.00,0.1071
1471.00,0.1027
1468.00,0.0940
1465.00,0.0893
1462.00,0.0903
1459.00,0.0951
1456.00,0.1124
1453.00,0.1282
1450.00,0.1464
1447.00,0.1477
1444.00,0.1414
1441.00,0.1385
1438.00,0.1344
1435.00,0.1284
1432.00,0.1205
1429.00,0.1116
1426.00,0.1052
1423.00,0.1058
1420.00,0.1136
1417.00,0.1325
1414.00,0.1498
1411.00,0.1667
1408.00,0.1782
1405.00,0.1839
1402.00,0.1844
1399.00,0.1819
1396.00,0.1798
1393.00,0.1819
1390.00,0.1871
1387.00,0.2020
1384.00,0.2228
1381.00,0.2466
1378.00,0.2670
1375.00,0.2728
1372.00,0.2627
1369.00,0.2429
1366.00,0.2216
1363.00,0.2019
1360.00,0.1849
1357.00,0.1696
1354.00,0.1557
1351.00,0.1438
1348.00,0.1328
1345.00,0.1221
1342.00,0.1126
1339.00,0.1045
1336.00,0.0979
1333.00,0.0927
1330.00,0.0895
1327.00,0.0885
1324.00,0.0924
1321.00,0.1052
1318.00,0.1123
1315.00,0.1003
1312.00,0.0870
1309.00,0.0783
1306.00,0.0748
1303.00,0.0785
1300.00,0.0964
1297.00,0.1344
1294.00,0.1570
1291.00,0.1623
1288.00,0.1589
1285.00,0.1473
1282.00,0.1261
1279.00,0.1066
1276.00,0.0934
1273.00,0.0848
1270.00,0.0805
1267.00,0.0810
1264.00,0.0826
1261.00,0.0851
1258.00,0.0974
1255.00,0.1058
1252.00,0.0969
1249.00,0.0842
1246.00,0.0757
1243.00,0.0709
1240.00,0.0682
1237.00,0.0652
1234.00,0.0617
1231.00,0.0588
1228.00,0.0568
1225.00,0.0555
1222.00,0.0541
1219.00,0.0533
1216.00,0.0529
1213.00,0.0517
1210.00,0.0492
1207.00,0.0466
1204.00,0.0445
1201.00,0.0425
1198.00,0.0407
1195.00,0.0393
1192.00,0.0383
1189.00,0.0376
1186.00,0.0373
1183.00,0.0375
1180.00,0.0393
1177.00,0.0450
1174.00,0.0596
1171.00,0.0783
1168.00,0.0769
1165.00,0.0661
1162.00,0.0575
1159.00,0.0483
1156.00,0.0421
1153.00,0.0394
1150.00,0.0380
1147.00,0.0354
1144.00,0.0332
1141.00,0.0318
1138.00,0.0310
1135.00,0.0303
1132.00,0.0296
1129.00,0.0289
1126.00,0.0283
1123.00,0.0277
1120.00,0.0272
1117.00,0.0268
1114.00,0.0265
1111.00,0.0264
1108.00,0.0265
1105.00,0.0273
1102.00,0.0287
1099.00,0.0309
1096.00,0.0340
1093.00,0.0405
1090.00,0.0543
1087.00,0.0713
1084.00,0.0741
1081.00,0.0586
1078.00,0.0445
1075.00,0.0365
1072.00,0.0327
1069.00,0.0312
1066.00,0.0315
1063.00,0.0344
1060.00,0.0406
1057.00,0.0477
1054.00,0.0520
1051.00,0.0544
1048.00,0.0548
1045.00,0.0564
1042.00,0.0651
1039.00,0.0825
1036.00,0.1034
1033.00,0.1104
1030.00,0.0903
1027.00,0.0667
1024.00,0.0514
1021.00,0.0435
1018.00,0.0390
1015.00,0.0350
1012.00,0.0322
1009.00,0.0307
1006.00,0.0302
1003.00,0.0308
1000.00,0.0319
997.00,0.0335
994.00,0.0366
991.00,0.0420
988.00,0.0512
985.00,0.0610
982.00,0.0625
979.00,0.0566
976.00,0.0463
973.00,0.0356
970.00,0.0292
967.00,0.0264
964.00,0.0256
961.00,0.0266
958.00,0.0294
955.00,0.0374
952.00,0.0526
949.00,0.0672
946.00,0.0685
943.00,0.0523
940.00,0.0393
937.00,0.0335
934.00,0.0320
931.00,0.0335
928.00,0.0358
925.00,0.0393
922.00,0.0471
919.00,0.0567
916.00,0.0667
913.00,0.0752
910.00,0.0589
907.00,0.0496
904.00,0.0549
901.00,0.0565
898.00,0.0474
895.00,0.0404
892.00,0.0378
889.00,0.0391
886.00,0.0427
883.00,0.0448
880.00,0.0417
877.00,0.0378
874.00,0.0365
871.00,0.0386
868.00,0.0453
865.00,0.0571
862.00,0.0650
859.00,0.0666
856.00,0.0758
853.00,0.0954
850.00,0.1134
847.00,0.1158
844.00,0.1078
841.00,0.0975
838.00,0.0875
835.00,0.0814
832.00,0.0788
829.00,0.0763
826.00,0.0713
823.00,0.0639
820.00,0.0566
817.00,0.0507
814.00,0.0471
811.00,0.0459
808.00,0.0482
805.00,0.0559
802.00,0.0695
799.00,0.0892
796.00,0.1049
793.00,0.1085
790.00,0.1106
787.00,0.1131
784.00,0.1019
781.00,0.0813
778.00,0.0648
775.00,0.0542
772.00,0.0475
769.00,0.0426
766.00,0.0385
763.00,0.0351
760.00,0.0325
757.00,0.0307
754.00,0.0294
751.00,0.0284
748.00,0.0274
745.00,0.0262
742.00,0.0252
739.00,0.0244
736.00,0.0241
733.00,0.0240
730.00,0.0241
727.00,0.0240
724.00,0.0243
721.00,0.0250
718.00,0.0264
715.00,0.0284
712.00,0.0315
709.00,0.0360
706.00,0.0422
703.00,0.0495
700.00,0.0572
697.00,0.0630
694.00,0.0654
691.00,0.0646
688.00,0.0628
685.00,0.0615
682.00,0.0615
679.00,0.0631
676.00,0.0662
673.00,0.0700
670.00,0.0718
667.00,0.0758
664.00,0.0762
661.00,0.0762
658.00,0.0788
655.00,0.0863
652.00,0.1007
649.00,0.1221
646.00,0.1463
643.00,0.1644
640.00,0.1680
637.00,0.1562
634.00,0.1357
631.00,0.1138
628.00,0.0942
625.00,0.0782
622.00,0.0652
619.00,0.0547
616.00,0.0467
613.00,0.0413
610.00,0.0373
607.00,0.0337
604.00,0.0310
601.00,0.0294
598.00,0.0280
595.00,0.0270
592.00,0.0265
589.00,0.0270
586.00,0.0280
583.00,0.0293
580.00,0.0323
577.00,0.0357
574.00,0.0365
571.00,0.0358
568.00,0.0320
565.00,0.0280
562.00,0.0256
559.00,0.0241
556.00,0.0235
553.00,0.0230
550.00,0.0231
547.00,0.0230
544.00,0.0237
541.00,0.0240
538.00,0.0244
535.00,0.0247
532.00,0.0253
529.00,0.0253
526.00,0.0262
523.00,0.0276
520.00,0.0279
517.00,0.0279
514.00,0.0275
511.00,0.0279
508.00,0.0286
505.00,0.0291
502.00,0.0298
499.00,0.0302
496.00,0.0312
493.00,0.0324
490.00,0.0327
487.00,0.0331
484.00,0.0349
481.00,0.0370
478.00,0.0391
475.00,0.0431
472.00,0.0502
469.00,0.0601
466.00,0.0737
463.00,0.0928
460.00,0.1204
457.00,0.1644
454.00,0.2068
451.00,0.2317
448.00,0.2324
445.00,0.1953
442.00,0.1412
439.00,0.1049
436.00,0.0835
433.00,0.0715
430.00,0.0657
427.00,0.0617
424.00,0.0617
421.00,0.0609
418.00,0.0613
415.00,0.0623
412.00,0.0654
409.00,0.0706
406.00,0.0769
403.00,0.0811
400.00,0.0903