File: Raman/2023_01_04/2023_01_04/Raman_Data/2023_01_04_Ag_Behenate_XRD_532nm_UnPol_750uW_750mm_600gv_977wn_iDus_100s_5accum_50x_Mit_Pos_1.csv
34.493,2306.000,5766.000,10699.000,12830.000,12920.000
38.364,2252.000,5430.000,9701.000,11730.000,11688.000
42.233,2264.000,5157.000,8949.000,10481.000,10728.000
46.099,2160.000,4674.000,7884.000,9276.000,9351.000
49.965,2126.000,4498.000,7405.000,8521.000,8735.000
53.830,2123.000,4342.000,6794.000,7849.000,7960.000
57.693,2031.000,4016.000,6154.000,7108.000,7194.000
61.554,2068.000,4043.000,6047.000,6815.000,7021.000
65.412,1981.000,3998.000,5767.000,6445.000,6507.000
69.271,1925.000,3969.000,5786.000,6314.000,6350.000
73.127,1929.000,4113.000,5968.000,6490.000,6438.000
76.982,1885.000,3840.000,5387.000,5837.000,5817.000
80.834,1903.000,3575.000,4644.000,5210.000,5200.000
84.686,1903.000,3531.000,4434.000,5008.000,4937.000
88.536,1843.000,3412.000,4192.000,4628.000,4795.000
92.385,1807.000,3279.000,3997.000,4381.000,4426.000
96.232,1824.000,3394.000,4043.000,4408.000,4404.000
100.075,1791.000,3219.000,3807.000,4199.000,4190.000
103.919,1782.000,3159.000,3724.000,4030.000,4090.000
107.762,1799.000,3259.000,3686.000,4020.000,4091.000
111.603,1751.000,3078.000,3552.000,3930.000,3979.000
115.442,1730.000,3054.000,3487.000,3802.000,3801.000
119.278,1753.000,3109.000,3575.000,3813.000,3803.000
123.114,1666.000,3042.000,3377.000,3661.000,3652.000
126.948,1667.000,2923.000,3294.000,3573.000,3603.000
130.781,1690.000,2968.000,3356.000,3574.000,3571.000
134.613,1658.000,2934.000,3192.000,3366.000,3413.000
138.440,1638.000,2842.000,3235.000,3414.000,3420.000
142.269,1609.000,2944.000,3284.000,3454.000,3464.000
146.095,1570.000,2846.000,3181.000,3269.000,3386.000
149.920,1579.000,2817.000,3107.000,3252.000,3289.000
153.742,1619.000,2821.000,3101.000,3308.000,3319.000
157.564,1531.000,2800.000,3027.000,3166.000,3191.000
161.384,1552.000,2782.000,2950.000,3221.000,3127.000
165.203,1511.000,2778.000,2946.000,3065.000,3054.000
169.020,1494.000,2677.000,2828.000,2939.000,2934.000
172.834,1515.000,2640.000,2767.000,2775.000,2764.000
176.648,1489.000,2648.000,2622.000,2681.000,2714.000
180.461,1458.000,2598.000,2501.000,2541.000,2579.000
184.272,1449.000,2564.000,2490.000,2523.000,2576.000
188.081,1465.000,2620.000,2501.000,2469.000,2523.000
191.887,1439.000,2505.000,2390.000,2429.000,2485.000
195.693,1446.000,2541.000,2369.000,2441.000,2450.000
199.498,1400.000,2547.000,2410.000,2475.000,2454.000
203.302,1399.000,2491.000,2364.000,2468.000,2424.000
207.101,1407.000,2540.000,2455.000,2479.000,2497.000
210.901,1402.000,2511.000,2439.000,2442.000,2495.000
214.700,1358.000,2472.000,2390.000,2461.000,2451.000
218.497,1378.000,2535.000,2446.000,2443.000,2545.000
222.292,1378.000,2512.000,2453.000,2518.000,2554.000
226.084,1379.000,2512.000,2465.000,2579.000,2564.000
229.877,1380.000,2498.000,2515.000,2617.000,2680.000
233.667,1334.000,2573.000,2589.000,2689.000,2727.000
237.457,1360.000,2492.000,2529.000,2657.000,2658.000
241.244,1355.000,2539.000,2592.000,2677.000,2786.000
245.029,1341.000,2536.000,2597.000,2720.000,2733.000
248.813,1311.000,2536.000,2682.000,2681.000,2753.000
252.596,1293.000,2516.000,2784.000,2747.000,2803.000
256.378,1286.000,2600.000,2717.000,2768.000,2796.000
260.158,1310.000,2556.000,2776.000,2745.000,2753.000
263.934,1282.000,2545.000,2923.000,2866.000,2796.000
267.711,1307.000,2609.000,3033.000,2926.000,2899.000
271.487,1297.000,2591.000,3086.000,3019.000,2889.000
275.260,1311.000,2702.000,3240.000,3115.000,3069.000
279.031,1266.000,2752.000,3473.000,3309.000,3186.000
282.802,1267.000,2725.000,3575.000,3387.000,3295.000
286.571,1246.000,2803.000,3847.000,3616.000,3514.000
290.338,1280.000,2875.000,4019.000,3800.000,3637.000
294.105,1287.000,2870.000,4136.000,3800.000,3680.000
297.867,1255.000,2962.000,4213.000,3906.000,3731.000
301.630,1294.000,2932.000,4071.000,3813.000,3585.000
305.392,1269.000,2817.000,3834.000,3560.000,3314.000
309.152,1235.000,2750.000,3411.000,3268.000,3109.000
312.911,1256.000,2577.000,3113.000,2955.000,2821.000
316.666,1249.000,2508.000,2750.000,2634.000,2548.000
320.421,1255.000,2476.000,2546.000,2440.000,2314.000
324.175,1264.000,2435.000,2380.000,2295.000,2241.000
327.927,1243.000,2358.000,2239.000,2155.000,2110.000
331.678,1243.000,2354.000,2128.000,2113.000,2023.000
335.426,1236.000,2369.000,2100.000,2039.000,2027.000
339.173,1251.000,2304.000,2072.000,1934.000,1927.000
342.920,1220.000,2322.000,2019.000,1936.000,1899.000
346.665,1221.000,2313.000,2004.000,1891.000,1874.000
350.406,1215.000,2277.000,1924.000,1840.000,1849.000
354.148,1208.000,2283.000,1922.000,1837.000,1827.000
357.888,1230.000,2275.000,1913.000,1855.000,1856.000
361.627,1212.000,2281.000,1874.000,1784.000,1827.000
365.364,1194.000,2265.000,1915.000,1825.000,1796.000
369.098,1205.000,2275.000,1921.000,1813.000,1828.000
372.832,1207.000,2207.000,1890.000,1801.000,1787.000
376.564,1233.000,2244.000,1921.000,1815.000,1801.000
380.296,1204.000,2275.000,1899.000,1805.000,1810.000
384.025,1210.000,2227.000,1894.000,1821.000,1791.000
387.751,1204.000,2224.000,1840.000,1773.000,1802.000
391.478,1209.000,2244.000,1865.000,1782.000,1769.000
395.203,1199.000,2213.000,1858.000,1797.000,1769.000
398.927,1157.000,2238.000,1824.000,1770.000,1795.000
402.649,1215.000,2226.000,1835.000,1734.000,1763.000
406.367,1183.000,2215.000,1813.000,1735.000,1731.000
410.087,1190.000,2247.000,1862.000,1767.000,1793.000
413.804,1205.000,2203.000,1835.000,1804.000,1785.000
417.520,1206.000,2225.000,1837.000,1758.000,1736.000
421.233,1186.000,2207.000,1868.000,1771.000,1801.000
424.946,1166.000,2220.000,1832.000,1791.000,1806.000
428.658,1195.000,2219.000,1841.000,1777.000,1839.000
432.368,1201.000,2175.000,1872.000,1751.000,1839.000
436.076,1163.000,2211.000,1880.000,1819.000,1838.000
439.781,1187.000,2212.000,1912.000,1836.000,1799.000
443.487,1159.000,2232.000,1857.000,1811.000,1832.000
447.191,1182.000,2180.000,1880.000,1830.000,1830.000
450.894,1167.000,2192.000,1824.000,1825.000,1817.000
454.595,1153.000,2211.000,1883.000,1815.000,1853.000
458.292,1174.000,2200.000,1957.000,1906.000,1915.000
461.991,1166.000,2173.000,1866.000,1852.000,1851.000
465.687,1153.000,2219.000,1911.000,1836.000,1873.000
469.382,1163.000,2172.000,1893.000,1840.000,1871.000
473.076,1131.000,2197.000,1850.000,1812.000,1826.000
476.766,1154.000,2153.000,1881.000,1821.000,1830.000
480.457,1185.000,2193.000,1922.000,1813.000,1809.000
484.146,1149.000,2183.000,1911.000,1789.000,1795.000
487.834,1161.000,2221.000,1897.000,1844.000,1844.000
491.518,1164.000,2152.000,1907.000,1871.000,1885.000
495.203,1150.000,2145.000,1880.000,1815.000,1824.000
498.886,1171.000,2172.000,1889.000,1811.000,1853.000
502.568,1156.000,2149.000,1873.000,1844.000,1903.000
506.248,1153.000,2189.000,1877.000,1824.000,1808.000
509.925,1132.000,2150.000,1887.000,1836.000,1826.000
513.602,1118.000,2181.000,1889.000,1846.000,1855.000
517.278,1161.000,2195.000,1916.000,1815.000,1840.000
520.953,1153.000,2125.000,1891.000,1869.000,1836.000
524.626,1160.000,2189.000,1942.000,1849.000,1881.000
528.295,1147.000,2154.000,1875.000,1878.000,1856.000
531.965,1176.000,2171.000,1972.000,1866.000,1892.000
535.633,1135.000,2195.000,1896.000,1846.000,1903.000
539.300,1146.000,2207.000,1930.000,1861.000,1885.000
542.964,1148.000,2182.000,1916.000,1859.000,1892.000
546.628,1138.000,2129.000,1941.000,1863.000,1896.000
550.291,1152.000,2173.000,1919.000,1859.000,1875.000
553.952,1140.000,2137.000,1961.000,1917.000,1950.000
557.612,1176.000,2141.000,1998.000,1907.000,1966.000
561.268,1141.000,2120.000,1999.000,1930.000,1892.000
564.924,1138.000,2149.000,2023.000,1912.000,1928.000
568.580,1178.000,2142.000,1961.000,1923.000,1924.000
572.234,1132.000,2161.000,1976.000,1928.000,1933.000
575.886,1138.000,2108.000,1996.000,1938.000,1953.000
579.535,1140.000,2186.000,1965.000,3217.000,2035.000
583.184,1137.000,2158.000,2001.000,1997.000,1995.000
586.832,1151.000,2190.000,2031.000,1951.000,1975.000
590.479,1125.000,2156.000,2031.000,1918.000,1986.000
594.124,1137.000,2163.000,2056.000,1967.000,1984.000
597.765,1142.000,2222.000,2019.000,1952.000,1992.000
601.407,1139.000,2176.000,2034.000,1986.000,2044.000
605.048,1134.000,2132.000,2476.000,1996.000,2052.000
608.687,1154.000,2135.000,2106.000,2016.000,2040.000
612.323,1118.000,2101.000,2098.000,2007.000,2053.000
615.959,1155.000,2173.000,2029.000,2013.000,2069.000
619.594,1131.000,2166.000,2027.000,2068.000,2132.000
623.227,1146.000,2130.000,2097.000,2029.000,2129.000
626.859,1142.000,2160.000,2080.000,2030.000,2064.000
630.488,1133.000,2119.000,2029.000,2041.000,2129.000
634.117,1143.000,2149.000,2110.000,2072.000,2160.000
637.744,1135.000,2141.000,2130.000,2107.000,2174.000
641.371,1124.000,2130.000,2144.000,2100.000,2187.000
644.995,1157.000,2167.000,2137.000,2205.000,2286.000
648.616,1130.000,2180.000,2234.000,2283.000,2322.000
652.238,1150.000,2179.000,2272.000,2367.000,2452.000
655.859,1162.000,2199.000,2352.000,2470.000,2589.000
659.477,1143.000,2250.000,2528.000,2599.000,2732.000
663.095,1137.000,2274.000,2648.000,2699.000,2802.000
666.709,1156.000,2380.000,2960.000,2963.000,3048.000
670.324,1122.000,2431.000,3247.000,3211.000,3314.000
673.937,1145.000,2467.000,3535.000,3459.000,3558.000
677.548,1143.000,2589.000,3813.000,3717.000,3719.000
681.157,1142.000,2519.000,3718.000,3706.000,3629.000
684.765,1141.000,2369.000,3295.000,3284.000,3261.000
688.373,1142.000,2337.000,2919.000,2830.000,2883.000
691.979,1111.000,2275.000,2723.000,2715.000,2699.000
695.583,1127.000,2185.000,2637.000,2592.000,2618.000
699.184,1148.000,2207.000,2657.000,2600.000,2581.000
702.786,1163.000,2279.000,2611.000,2503.000,2571.000
706.386,1182.000,2210.000,2461.000,2454.000,2473.000
709.985,1147.000,2194.000,2379.000,2394.000,2372.000
713.582,1122.000,2158.000,2358.000,2298.000,2314.000
717.176,1129.000,2139.000,2271.000,2208.000,2230.000
720.771,1164.000,2156.000,2243.000,2170.000,2220.000
724.364,1138.000,2161.000,2247.000,2209.000,2300.000
727.955,1138.000,2156.000,2214.000,2155.000,2315.000
731.544,1140.000,2182.000,2167.000,2180.000,2235.000
735.132,1112.000,2175.000,2183.000,2122.000,2222.000
738.720,1146.000,2135.000,2244.000,2122.000,2229.000
742.306,1149.000,2170.000,2196.000,2155.000,2216.000
745.890,1149.000,2124.000,2151.000,2184.000,2190.000
749.471,1147.000,2131.000,2204.000,2217.000,2243.000
753.053,1131.000,2152.000,2204.000,2206.000,2179.000
756.633,1133.000,2123.000,2219.000,2191.000,2230.000
760.212,1126.000,2151.000,2197.000,2196.000,2189.000
763.789,1163.000,2109.000,2220.000,2181.000,2171.000
767.363,1143.000,2163.000,2216.000,2210.000,2230.000
770.938,1127.000,2077.000,2236.000,2168.000,2214.000
774.511,1158.000,2114.000,2209.000,2152.000,2219.000
778.083,1140.000,2116.000,2230.000,2168.000,2239.000
781.653,1116.000,2155.000,2219.000,2261.000,2267.000
785.220,1121.000,2088.000,2303.000,2210.000,2207.000
788.787,1164.000,2145.000,2291.000,2189.000,2272.000
792.354,1134.000,2155.000,2239.000,2239.000,2313.000
795.918,1153.000,2138.000,2322.000,2306.000,2334.000
799.479,1149.000,2163.000,2293.000,2273.000,2343.000
803.041,1124.000,2168.000,2302.000,2313.000,2370.000
806.602,1127.000,2110.000,2352.000,2374.000,2374.000
810.161,1150.000,2154.000,2342.000,2347.000,2409.000
813.718,1139.000,2136.000,2355.000,2391.000,2384.000
817.273,1153.000,2124.000,2352.000,2305.000,2384.000
820.827,1123.000,2148.000,2359.000,2287.000,2342.000
824.381,1130.000,2098.000,2356.000,2307.000,2477.000
827.933,1138.000,2148.000,2339.000,2353.000,2418.000
831.483,1140.000,2097.000,2352.000,2248.000,2353.000
835.031,1122.000,2148.000,2365.000,2371.000,2410.000
838.578,1146.000,2134.000,2353.000,2400.000,2336.000
842.125,1136.000,2093.000,2356.000,2297.000,2314.000
845.670,1135.000,2113.000,2328.000,2336.000,2312.000
849.213,1113.000,2106.000,2393.000,2333.000,2300.000
852.753,1141.000,2099.000,2369.000,2319.000,2328.000
856.294,1130.000,2116.000,2321.000,2293.000,2299.000
859.834,1134.000,2121.000,2270.000,2347.000,2362.000
863.372,1140.000,2096.000,2345.000,2273.000,2328.000
866.906,1108.000,2088.000,2291.000,2238.000,2324.000
870.441,1157.000,2079.000,3206.000,2308.000,2384.000
873.975,1118.000,2096.000,2266.000,2330.000,2365.000
877.508,1123.000,2131.000,2285.000,2273.000,2334.000
881.039,1130.000,2109.000,2268.000,2285.000,2332.000
884.566,1142.000,2107.000,2294.000,2311.000,2324.000
888.095,1160.000,2121.000,2311.000,2233.000,2289.000
891.621,1159.000,2108.000,2273.000,2259.000,2278.000
895.147,1154.000,2110.000,2325.000,2320.000,2280.000
898.671,1125.000,2094.000,2253.000,2256.000,2290.000
902.192,1142.000,2141.000,2332.000,2296.000,2330.000
905.713,1156.000,2173.000,2303.000,2310.000,2380.000
909.233,1158.000,2134.000,2324.000,2392.000,2337.000
912.751,1145.000,2125.000,2386.000,2350.000,2419.000
916.269,1148.000,2237.000,2512.000,2479.000,2433.000
919.782,1143.000,2239.000,2474.000,2481.000,2449.000
923.297,1175.000,2206.000,2442.000,2419.000,2393.000
926.810,1193.000,2629.000,2501.000,2431.000,2446.000
930.321,1200.000,2151.000,2445.000,2411.000,2429.000
933.830,1152.000,2096.000,2329.000,2352.000,2368.000
937.339,1163.000,2133.000,2335.000,2388.000,2387.000
940.846,1147.000,2137.000,2373.000,2350.000,2405.000
944.352,1159.000,2093.000,2308.000,2344.000,2421.000
947.857,1142.000,2051.000,2365.000,2410.000,2462.000
951.358,1143.000,2071.000,2367.000,2406.000,2453.000
954.860,1129.000,2065.000,2359.000,2435.000,2422.000
958.361,1119.000,2074.000,2318.000,2447.000,2417.000
961.860,1135.000,2072.000,2359.000,2448.000,2477.000
965.358,1132.000,2063.000,2390.000,2441.000,2513.000
968.853,1105.000,2057.000,2348.000,2406.000,2442.000
972.348,1153.000,1989.000,2374.000,2425.000,2483.000
975.841,1141.000,2074.000,2354.000,2399.000,2489.000
979.334,1121.000,2038.000,2303.000,2375.000,2442.000
982.825,1125.000,2042.000,2392.000,2418.000,2433.000
986.312,1133.000,2061.000,2341.000,2394.000,2438.000
989.801,1119.000,2057.000,2350.000,2373.000,2382.000
993.288,1126.000,2050.000,2357.000,2399.000,2439.000
996.773,1165.000,2039.000,2452.000,2493.000,2488.000
1000.255,1105.000,2056.000,2378.000,2373.000,2425.000
1003.738,1148.000,2023.000,2422.000,2355.000,2438.000
1007.220,1147.000,2064.000,2429.000,2402.000,2441.000
1010.700,1163.000,2026.000,2455.000,2431.000,2458.000
1014.179,1146.000,2052.000,2464.000,2420.000,2519.000
1017.654,1125.000,2063.000,2578.000,2596.000,2620.000
1021.130,1143.000,2090.000,2738.000,2687.000,2754.000
1024.605,1147.000,2124.000,2916.000,2891.000,2940.000
1028.078,1151.000,2176.000,3258.000,3201.000,3233.000
1031.550,1139.000,2334.000,3608.000,3490.000,3587.000
1035.019,1149.000,2398.000,3956.000,3879.000,3821.000
1038.488,1151.000,2502.000,4398.000,4288.000,4270.000
1041.956,1161.000,2601.000,4734.000,4666.000,4749.000
1045.422,1172.000,2599.000,4671.000,4747.000,4562.000
1048.887,1197.000,2507.000,4336.000,4367.000,4221.000
1052.349,1230.000,2403.000,3839.000,3780.000,3736.000
1055.812,1240.000,2298.000,3264.000,3300.000,3220.000
1059.273,1201.000,2246.000,2894.000,2864.000,2914.000
1062.733,1183.000,2093.000,2701.000,2699.000,2656.000
1066.189,1158.000,2107.000,2611.000,2547.000,2546.000
1069.646,1154.000,2075.000,2516.000,2535.000,2488.000
1073.102,1175.000,2050.000,2496.000,2512.000,2537.000
1076.556,1171.000,2096.000,2479.000,2536.000,2541.000
1080.009,1154.000,2035.000,2520.000,2505.000,2524.000
1083.459,1150.000,2048.000,2496.000,2502.000,2521.000
1086.909,1191.000,2066.000,2473.000,2534.000,2573.000
1090.358,1156.000,2032.000,2494.000,2505.000,2511.000
1093.806,1165.000,2037.000,2445.000,2486.000,2600.000
1097.252,1175.000,2103.000,2519.000,2501.000,2597.000
1100.695,1197.000,2060.000,2537.000,2555.000,2648.000
1104.139,1209.000,2032.000,2524.000,2511.000,2630.000
1107.581,1223.000,2092.000,2549.000,2551.000,2624.000
1111.022,1202.000,2075.000,2486.000,2567.000,2599.000
1114.462,1154.000,2040.000,2490.000,2499.000,2619.000
1117.898,1193.000,2083.000,2524.000,2521.000,2602.000
1121.335,1272.000,2110.000,2526.000,2543.000,2797.000
1124.771,1331.000,2113.000,2509.000,2572.000,2693.000
1128.205,1205.000,2084.000,2551.000,2561.000,2681.000
1131.636,1184.000,2022.000,2476.000,2595.000,2705.000
1135.067,1170.000,1988.000,2517.000,2514.000,2706.000
1138.498,1162.000,1978.000,2463.000,2523.000,2707.000
1141.927,1201.000,2036.000,2549.000,2555.000,2752.000
1145.354,1186.000,2048.000,2470.000,2566.000,2810.000
1148.779,1171.000,1980.000,2517.000,2544.000,2762.000
1152.203,1188.000,2016.000,2489.000,2616.000,2791.000
1155.627,1165.000,2024.000,2518.000,2670.000,2851.000
1159.049,1205.000,1989.000,2483.000,2606.000,2728.000
1162.470,1187.000,1987.000,2532.000,2619.000,2719.000
1165.888,1209.000,2031.000,2573.000,2630.000,2781.000
1169.306,1180.000,2018.000,2545.000,2560.000,2774.000
1172.723,1182.000,1988.000,2512.000,2598.000,2721.000
1176.139,1191.000,2051.000,2474.000,2607.000,3102.000
1179.553,1187.000,2028.000,2523.000,2618.000,2854.000
1182.964,1192.000,2005.000,2583.000,2600.000,2790.000
1186.376,1192.000,2024.000,2565.000,2569.000,2823.000
1189.786,1187.000,2028.000,2546.000,2672.000,2759.000
1193.195,1198.000,2038.000,2507.000,2698.000,2763.000
1196.601,1171.000,1997.000,2600.000,2644.000,2860.000
1200.008,1196.000,2017.000,2585.000,2713.000,2936.000
1203.413,1167.000,1944.000,2584.000,2708.000,2857.000
1206.817,1159.000,2005.000,2550.000,2666.000,2865.000
1210.219,1182.000,2010.000,2599.000,2724.000,2904.000
1213.618,1202.000,2000.000,2568.000,2766.000,2929.000
1217.018,1181.000,1987.000,2522.000,2720.000,2887.000
1220.417,1189.000,2033.000,2642.000,2782.000,2894.000
1223.814,1205.000,2025.000,2646.000,2753.000,2974.000
1227.208,1168.000,2002.000,2658.000,2848.000,2933.000
1230.602,1205.000,2008.000,2674.000,2785.000,2890.000
1233.996,1183.000,2022.000,2672.000,2823.000,2988.000
1237.387,1183.000,2029.000,2692.000,2887.000,3027.000
1240.778,1149.000,2007.000,2687.000,2877.000,2999.000
1244.166,1168.000,2011.000,2789.000,2962.000,3099.000
1247.554,1216.000,2026.000,2791.000,2979.000,3049.000
1250.940,1184.000,2055.000,2805.000,2996.000,3090.000
1254.326,1184.000,2049.000,2867.000,3038.000,3183.000
1257.710,1201.000,2075.000,2888.000,2980.000,3176.000
1261.091,1191.000,2012.000,2846.000,3057.000,3208.000
1264.472,1188.000,2031.000,2866.000,2976.000,3237.000
1267.852,1200.000,2061.000,2880.000,3048.000,3271.000
1271.231,1203.000,2029.000,2865.000,3076.000,3309.000
1274.609,1190.000,2050.000,2870.000,3034.000,3172.000
1277.983,1218.000,2094.000,2918.000,3100.000,3345.000
1281.358,1250.000,2067.000,2932.000,3151.000,3306.000
1284.732,1249.000,2120.000,2936.000,3154.000,3351.000
1288.104,1407.000,2193.000,2902.000,3149.000,3482.000
1291.473,1307.000,2145.000,2987.000,3166.000,3383.000
1294.843,1219.000,2055.000,2949.000,3103.000,3363.000
1298.212,1174.000,2056.000,2966.000,3172.000,3419.000
1301.579,1177.000,2110.000,3014.000,3210.000,3485.000
1304.945,1203.000,2086.000,2994.000,3092.000,3459.000
1308.307,1196.000,2034.000,2980.000,3191.000,3534.000
1311.671,1210.000,2098.000,3031.000,3231.000,3539.000
1315.033,1218.000,2092.000,2980.000,3176.000,3507.000
1318.393,1195.000,2041.000,2973.000,3208.000,3496.000
1321.753,1220.000,2034.000,2951.000,3201.000,3460.000
1325.109,1223.000,2060.000,2972.000,3197.000,3448.000
1328.466,1232.000,2073.000,2939.000,3199.000,3409.000
1331.822,1222.000,2035.000,2898.000,3161.000,3269.000
1335.176,1226.000,2028.000,2956.000,3151.000,3372.000
1338.529,1213.000,2088.000,2975.000,3121.000,3288.000
1341.879,1214.000,2061.000,2883.000,3058.000,3230.000
1345.229,1259.000,2075.000,2930.000,3100.000,3271.000
1348.578,1234.000,2082.000,2884.000,3164.000,3358.000
1351.926,1236.000,2056.000,2895.000,3130.000,3244.000
1355.271,1233.000,2069.000,2887.000,3137.000,3277.000
1358.616,1253.000,2072.000,2937.000,3074.000,3236.000
1361.960,1245.000,2071.000,2848.000,3062.000,3147.000
1365.303,1221.000,2062.000,2899.000,3074.000,3162.000
1368.644,1245.000,2121.000,2861.000,3084.000,3212.000
1371.982,1228.000,2135.000,2940.000,3049.000,3151.000
1375.321,1231.000,2156.000,2935.000,3116.000,3189.000
1378.659,1240.000,2212.000,2992.000,3136.000,3156.000
1381.995,1272.000,2206.000,3015.000,3271.000,3204.000
1385.330,1248.000,2216.000,3059.000,3170.000,3224.000
1388.662,1267.000,2218.000,3032.000,3132.000,3189.000
1391.994,1263.000,2222.000,3066.000,3153.000,3178.000
1395.326,1253.000,2175.000,3042.000,3082.000,3185.000
1398.656,1260.000,2174.000,2972.000,3037.000,3117.000
1401.984,1295.000,2130.000,2958.000,3058.000,3191.000
1405.310,1270.000,2096.000,2872.000,3043.000,3159.000
1408.636,1285.000,2103.000,2878.000,3072.000,3105.000
1411.961,1283.000,2089.000,2908.000,3025.000,3113.000
1415.284,1295.000,2061.000,2912.000,3089.000,3178.000
1418.605,1259.000,2055.000,2926.000,3049.000,3207.000
1421.926,1278.000,2059.000,2895.000,3067.000,3141.000
1425.245,1294.000,2132.000,2931.000,3113.000,3145.000
1428.564,1364.000,2122.000,2912.000,3138.000,3178.000
1431.881,1362.000,2203.000,2930.000,3010.000,3155.000
1435.195,1409.000,2196.000,2950.000,3070.000,3137.000
1438.510,1460.000,2188.000,2910.000,3027.000,3179.000
1441.823,1440.000,2172.000,2912.000,3026.000,3142.000
1445.135,1419.000,2181.000,2981.000,2972.000,3152.000
1448.446,1407.000,2167.000,2904.000,3080.000,3222.000
1451.754,1415.000,2171.000,2982.000,3080.000,3227.000
1455.062,1421.000,2190.000,2981.000,3047.000,3198.000
1458.370,1531.000,2191.000,2980.000,3103.000,3293.000
1461.675,1461.000,2212.000,3102.000,3155.000,3211.000
1464.980,1391.000,2162.000,3032.000,3137.000,3264.000
1468.281,1344.000,2118.000,3018.000,3186.000,3243.000
1471.583,1304.000,2127.000,3120.000,3183.000,3352.000
1474.884,1309.000,2120.000,3187.000,3257.000,3442.000
1478.184,1285.000,2112.000,3196.000,3288.000,3523.000
1481.480,1277.000,2183.000,3285.000,3352.000,3536.000
1484.777,1281.000,2163.000,3379.000,3490.000,3657.000
1488.073,1246.000,2190.000,3511.000,3566.000,3716.000
1491.368,1275.000,2179.000,3589.000,3697.000,3835.000
1494.661,1323.000,2284.000,3746.000,3804.000,4043.000
1497.951,1269.000,2320.000,3840.000,3986.000,4217.000
1501.242,1312.000,2296.000,4080.000,4094.000,4317.000
1504.531,1317.000,2385.000,4239.000,4296.000,4629.000
1507.820,1289.000,2463.000,4567.000,4566.000,4833.000
1511.107,1297.000,2427.000,4735.000,4766.000,5025.000
1514.391,1279.000,2621.000,5023.000,4917.000,5267.000
1517.675,1299.000,2624.000,5290.000,5220.000,5622.000
1520.958,1285.000,2635.000,5442.000,5479.000,5859.000
1524.240,1273.000,2653.000,5566.000,5485.000,5874.000
1527.521,1279.000,2679.000,5627.000,5721.000,5826.000
1530.799,1271.000,2695.000,5557.000,5688.000,5730.000
1534.077,1286.000,2576.000,5295.000,5487.000,5528.000
1537.354,1262.000,2556.000,4995.000,5294.000,5197.000
1540.630,1296.000,2485.000,4633.000,4953.000,4945.000
1543.903,1272.000,2283.000,4132.000,4540.000,4578.000
1547.176,1300.000,2251.000,3784.000,4134.000,4125.000
1550.448,1284.000,2198.000,3483.000,3765.000,3918.000
1553.719,1299.000,2097.000,3272.000,3579.000,3708.000
1556.988,1287.000,2060.000,3211.000,3448.000,3581.000
1560.255,1283.000,2020.000,3066.000,3384.000,3546.000
1563.522,1305.000,2057.000,3106.000,3396.000,3497.000
1566.788,1276.000,2050.000,3052.000,3359.000,3517.000
1570.052,1256.000,2024.000,2988.000,3253.000,3454.000
1573.316,1329.000,2042.000,2948.000,3326.000,3434.000
1576.576,1276.000,2057.000,3045.000,3334.000,3430.000
1579.837,1271.000,2000.000,2927.000,3314.000,3406.000
1583.097,1298.000,2035.000,2932.000,3211.000,3349.000
1586.355,1274.000,1986.000,2874.000,3241.000,3337.000
1589.612,1334.000,2007.000,2944.000,3251.000,3343.000
1592.867,1290.000,2008.000,2833.000,3158.000,3263.000
1596.121,1287.000,1986.000,2774.000,3167.000,3257.000
1599.375,1274.000,1945.000,2814.000,3124.000,3243.000
1602.627,1285.000,2004.000,2828.000,3090.000,3182.000
1605.876,1288.000,1990.000,2789.000,2993.000,3169.000
1609.126,1298.000,1992.000,2800.000,3044.000,3150.000
1612.375,1312.000,1980.000,2756.000,2968.000,3155.000
1615.622,1277.000,1981.000,2798.000,2932.000,3155.000
1618.868,1307.000,2006.000,2719.000,2920.000,3237.000
1622.112,1321.000,1930.000,2805.000,2862.000,3127.000
1625.355,1291.000,1983.000,2714.000,2900.000,3138.000
1628.598,1275.000,1950.000,2681.000,2850.000,3054.000
1631.839,1308.000,1961.000,2675.000,2862.000,3034.000
1635.079,1312.000,1933.000,3223.000,2828.000,3094.000
1638.316,1293.000,2030.000,2702.000,2790.000,3041.000
1641.554,1300.000,1960.000,2694.000,2802.000,3082.000
1644.790,1285.000,1962.000,2655.000,2806.000,3085.000
1648.025,1300.000,1929.000,2683.000,2791.000,3051.000
1651.259,1314.000,1930.000,2647.000,2762.000,2988.000
1654.490,1331.000,1934.000,2638.000,2764.000,2981.000
1657.721,1865.000,1928.000,2629.000,2797.000,2934.000
1660.952,1331.000,1927.000,2609.000,2750.000,2842.000
1664.181,1330.000,1957.000,2632.000,2718.000,2867.000
1667.407,1298.000,1910.000,2583.000,2731.000,2823.000
1670.633,1312.000,1905.000,2620.000,2636.000,2786.000
1673.859,1295.000,1914.000,2654.000,2698.000,2758.000
1677.083,1307.000,1930.000,2635.000,2665.000,2731.000
1680.306,1319.000,1953.000,2607.000,2697.000,2741.000
1683.526,1282.000,1896.000,2599.000,2633.000,2717.000
1686.746,1303.000,1900.000,2641.000,2640.000,2677.000
1689.966,1291.000,1932.000,2648.000,2687.000,2691.000
1693.184,1309.000,1902.000,2618.000,2631.000,2627.000
1696.401,1286.000,1917.000,2576.000,2592.000,2645.000
1699.615,1334.000,1924.000,2572.000,2656.000,2627.000
1702.829,1321.000,1899.000,2567.000,2623.000,2605.000
1706.042,1329.000,1949.000,2611.000,2608.000,2594.000
1709.254,1318.000,1944.000,2557.000,2597.000,2593.000
1712.465,1336.000,1918.000,2602.000,2604.000,2527.000
1715.673,1329.000,1913.000,2543.000,2614.000,2572.000
1718.882,1318.000,1895.000,2570.000,2526.000,2579.000
1722.089,1288.000,1972.000,2493.000,2532.000,2563.000
1725.295,1310.000,1955.000,2503.000,2574.000,2557.000
1728.498,1330.000,1904.000,2519.000,2542.000,2544.000
1731.702,1349.000,1922.000,2490.000,2549.000,2538.000
1734.904,1320.000,1884.000,2503.000,2512.000,2536.000
1738.105,1303.000,1901.000,2493.000,2499.000,2512.000
1741.305,1305.000,1919.000,2502.000,2558.000,2519.000
1744.502,1351.000,1897.000,2547.000,2546.000,2552.000
1747.700,1325.000,1932.000,2517.000,2521.000,2499.000
1750.897,1336.000,1914.000,2539.000,2573.000,2496.000
1754.092,1342.000,1908.000,2502.000,2494.000,2522.000
1757.284,1333.000,1917.000,2550.000,2524.000,2534.000
1760.477,1330.000,1875.000,2463.000,2505.000,2503.000
1763.669,1363.000,1939.000,2534.000,2501.000,2547.000
1766.859,1361.000,1910.000,2531.000,2469.000,2517.000
1770.048,1347.000,1891.000,2533.000,2562.000,2510.000
1773.235,1328.000,1889.000,2477.000,2525.000,2526.000
1776.421,1350.000,1879.000,2525.000,2592.000,2548.000
1779.607,1341.000,1922.000,2512.000,2556.000,2556.000
1782.792,1350.000,1905.000,2515.000,2489.000,2585.000
1785.975,1352.000,1898.000,2487.000,2528.000,2516.000
1789.155,1364.000,1895.000,2532.000,2533.000,2530.000
1792.336,1348.000,1960.000,2564.000,2519.000,2519.000
1795.516,1332.000,1946.000,2447.000,2560.000,2536.000
1798.694,1373.000,1905.000,2528.000,2495.000,2502.000
1801.872,1365.000,1933.000,2561.000,2553.000,2544.000
1805.046,1359.000,1936.000,2535.000,2553.000,2504.000
1808.221,1384.000,1931.000,2560.000,2583.000,2565.000
1811.395,1399.000,1946.000,2579.000,2624.000,2560.000
1814.567,1406.000,1930.000,2564.000,2547.000,2592.000
1817.737,1423.000,1978.000,2546.000,2595.000,2542.000
1820.907,1405.000,1954.000,2616.000,2580.000,2614.000
1824.076,1409.000,1986.000,2642.000,2593.000,2638.000
1825.661,1408.000,1952.000,2629.000,2591.000,2630.000