File: FTIR/16 a.trifasciata 11162021 Perceived Outer Yellow Crystals.0.dpt
3995.6,-0.00164
3991.48,-0.00188
3987.36,-0.00206
3983.24,-0.00198
3979.12,-0.00176
3975.01,-0.00160
3970.89,-0.00155
3966.77,-0.00159
3962.65,-0.00163
3958.53,-0.00165
3954.41,-0.00167
3950.29,-0.00168
3946.17,-0.00171
3942.05,-0.00171
3937.93,-0.00165
3933.81,-0.00158
3929.69,-0.00155
3925.58,-0.00156
3921.46,-0.00157
3917.34,-0.00166
3913.22,-0.00177
3909.1,-0.00173
3904.98,-0.00164
3900.86,-0.00161
3896.74,-0.00156
3892.62,-0.00148
3888.5,-0.00143
3884.38,-0.00139
3880.26,-0.00141
3876.14,-0.00139
3872.03,-0.00139
3867.91,-0.00151
3863.79,-0.00151
3859.67,-0.00142
3855.55,-0.00147
3851.43,-0.00161
3847.31,-0.00164
3843.19,-0.00159
3839.07,-0.00155
3834.95,-0.00156
3830.83,-0.00157
3826.71,-0.00156
3822.6,-0.00157
3818.48,-0.00153
3814.36,-0.00147
3810.24,-0.00142
3806.12,-0.00137
3802,-0.00133
3797.88,-0.00133
3793.76,-0.00134
3789.64,-0.00139
3785.52,-0.00150
3781.4,-0.00157
3777.28,-0.00154
3773.17,-0.00142
3769.05,-0.00124
3764.93,-0.00113
3760.81,-0.00115
3756.69,-0.00123
3752.57,-0.00138
3748.45,-0.00156
3744.33,-0.00151
3740.21,-0.00143
3736.09,-0.00150
3731.97,-0.00148
3727.85,-0.00130
3723.74,-0.00121
3719.62,-0.00124
3715.5,-0.00131
3711.38,-0.00144
3707.26,-0.00155
3703.14,-0.00168
3699.02,-0.00181
3694.9,-0.00180
3690.78,-0.00176
3686.66,-0.00190
3682.54,-0.00218
3678.42,-0.00244
3674.31,-0.00261
3670.19,-0.00273
3666.07,-0.00295
3661.95,-0.00329
3657.83,-0.00371
3653.71,-0.00415
3649.59,-0.00450
3645.47,-0.00475
3641.35,-0.00501
3637.23,-0.00541
3633.11,-0.00591
3628.99,-0.00638
3624.88,-0.00674
3620.76,-0.00706
3616.64,-0.00745
3612.52,-0.00786
3608.4,-0.00824
3604.28,-0.00863
3600.16,-0.00905
3596.04,-0.00942
3591.92,-0.00974
3587.8,-0.01011
3583.68,-0.01050
3579.56,-0.01090
3575.45,-0.01125
3571.33,-0.01148
3567.21,-0.01178
3563.09,-0.01225
3558.97,-0.01272
3554.85,-0.01310
3550.73,-0.01339
3546.61,-0.01367
3542.49,-0.01406
3538.37,-0.01448
3534.25,-0.01486
3530.13,-0.01524
3526.01,-0.01560
3521.9,-0.01600
3517.78,-0.01641
3513.66,-0.01678
3509.54,-0.01719
3505.42,-0.01766
3501.3,-0.01800
3497.18,-0.01823
3493.06,-0.01854
3488.94,-0.01894
3484.82,-0.01933
3480.7,-0.01971
3476.58,-0.02010
3472.47,-0.02042
3468.35,-0.02069
3464.23,-0.02100
3460.11,-0.02135
3455.99,-0.02171
3451.87,-0.02203
3447.75,-0.02233
3443.63,-0.02261
3439.51,-0.02280
3435.39,-0.02301
3431.27,-0.02338
3427.15,-0.02377
3423.04,-0.02399
3418.92,-0.02410
3414.8,-0.02425
3410.68,-0.02439
3406.56,-0.02452
3402.44,-0.02471
3398.32,-0.02492
3394.2,-0.02505
3390.08,-0.02511
3385.96,-0.02521
3381.84,-0.02539
3377.72,-0.02545
3373.61,-0.02536
3369.49,-0.02531
3365.37,-0.02533
3361.25,-0.02530
3357.13,-0.02522
3353.01,-0.02516
3348.89,-0.02515
3344.77,-0.02518
3340.65,-0.02518
3336.53,-0.02500
3332.41,-0.02478
3328.29,-0.02472
3324.18,-0.02476
3320.06,-0.02477
3315.94,-0.02474
3311.82,-0.02464
3307.7,-0.02451
3303.58,-0.02453
3299.46,-0.02463
3295.34,-0.02464
3291.22,-0.02458
3287.1,-0.02453
3282.98,-0.02444
3278.86,-0.02434
3274.75,-0.02427
3270.63,-0.02422
3266.51,-0.02411
3262.39,-0.02395
3258.27,-0.02379
3254.15,-0.02361
3250.03,-0.02345
3245.91,-0.02328
3241.79,-0.02310
3237.67,-0.02295
3233.55,-0.02280
3229.43,-0.02265
3225.32,-0.02251
3221.2,-0.02226
3217.08,-0.02193
3212.96,-0.02162
3208.84,-0.02140
3204.72,-0.02126
3200.6,-0.02108
3196.48,-0.02074
3192.36,-0.02035
3188.24,-0.02004
3184.12,-0.01977
3180,-0.01952
3175.88,-0.01920
3171.77,-0.01880
3167.65,-0.01847
3163.53,-0.01818
3159.41,-0.01785
3155.29,-0.01755
3151.17,-0.01730
3147.05,-0.01704
3142.93,-0.01667
3138.81,-0.01624
3134.69,-0.01587
3130.57,-0.01553
3126.45,-0.01516
3122.34,-0.01483
3118.22,-0.01459
3114.1,-0.01442
3109.98,-0.01422
3105.86,-0.01397
3101.74,-0.01367
3097.62,-0.01337
3093.5,-0.01315
3089.38,-0.01303
3085.26,-0.01289
3081.14,-0.01265
3077.02,-0.01237
3072.91,-0.01211
3068.79,-0.01187
3064.67,-0.01164
3060.55,-0.01143
3056.43,-0.01127
3052.31,-0.01109
3048.19,-0.01089
3044.07,-0.01070
3039.95,-0.01048
3035.83,-0.01028
3031.71,-0.01011
3027.59,-0.00988
3023.48,-0.00962
3019.36,-0.00945
3015.24,-0.00930
3011.12,-0.00906
3007,-0.00886
3002.88,-0.00874
2998.76,-0.00868
2994.64,-0.00859
2990.52,-0.00843
2986.4,-0.00828
2982.28,-0.00826
2978.16,-0.00831
2974.05,-0.00825
2969.93,-0.00811
2965.81,-0.00804
2961.69,-0.00801
2957.57,-0.00789
2953.45,-0.00776
2949.33,-0.00769
2945.21,-0.00763
2941.09,-0.00755
2936.97,-0.00749
2932.85,-0.00750
2928.73,-0.00749
2924.62,-0.00738
2920.5,-0.00723
2916.38,-0.00709
2912.26,-0.00692
2908.14,-0.00678
2904.02,-0.00668
2899.9,-0.00664
2895.78,-0.00661
2891.66,-0.00653
2887.54,-0.00643
2883.42,-0.00636
2879.3,-0.00627
2875.19,-0.00620
2871.07,-0.00615
2866.95,-0.00608
2862.83,-0.00596
2858.71,-0.00588
2854.59,-0.00590
2850.47,-0.00594
2846.35,-0.00582
2842.23,-0.00559
2838.11,-0.00544
2833.99,-0.00540
2829.87,-0.00541
2825.75,-0.00543
2821.64,-0.00542
2817.52,-0.00533
2813.4,-0.00522
2809.28,-0.00517
2805.16,-0.00511
2801.04,-0.00506
2796.92,-0.00505
2792.8,-0.00504
2788.68,-0.00504
2784.56,-0.00504
2780.44,-0.00498
2776.32,-0.00488
2772.21,-0.00485
2768.09,-0.00487
2763.97,-0.00484
2759.85,-0.00473
2755.73,-0.00463
2751.61,-0.00459
2747.49,-0.00461
2743.37,-0.00462
2739.25,-0.00463
2735.13,-0.00462
2731.01,-0.00456
2726.89,-0.00453
2722.78,-0.00454
2718.66,-0.00456
2714.54,-0.00456
2710.42,-0.00452
2706.3,-0.00444
2702.18,-0.00439
2698.06,-0.00436
2693.94,-0.00435
2689.82,-0.00431
2685.7,-0.00423
2681.58,-0.00420
2677.46,-0.00424
2673.35,-0.00428
2669.23,-0.00432
2665.11,-0.00432
2660.99,-0.00424
2656.87,-0.00413
2652.75,-0.00412
2648.63,-0.00417
2644.51,-0.00410
2640.39,-0.00399
2636.27,-0.00394
2632.15,-0.00390
2628.03,-0.00389
2623.92,-0.00390
2619.8,-0.00389
2615.68,-0.00386
2611.56,-0.00382
2607.44,-0.00381
2603.32,-0.00386
2599.2,-0.00390
2595.08,-0.00385
2590.96,-0.00374
2586.84,-0.00371
2582.72,-0.00376
2578.6,-0.00379
2574.49,-0.00374
2570.37,-0.00367
2566.25,-0.00367
2562.13,-0.00374
2558.01,-0.00372
2553.89,-0.00359
2549.77,-0.00356
2545.65,-0.00367
2541.53,-0.00369
2537.41,-0.00365
2533.29,-0.00368
2529.17,-0.00373
2525.06,-0.00367
2520.94,-0.00361
2516.82,-0.00367
2512.7,-0.00373
2508.58,-0.00377
2504.46,-0.00377
2500.34,-0.00369
2496.22,-0.00368
2492.1,-0.00375
2487.98,-0.00370
2483.86,-0.00357
2479.74,-0.00353
2475.62,-0.00361
2471.51,-0.00371
2467.39,-0.00369
2463.27,-0.00358
2459.15,-0.00353
2455.03,-0.00355
2450.91,-0.00355
2446.79,-0.00352
2442.67,-0.00348
2438.55,-0.00349
2434.43,-0.00355
2430.31,-0.00360
2426.19,-0.00360
2422.08,-0.00359
2417.96,-0.00363
2413.84,-0.00369
2409.72,-0.00371
2405.6,-0.00370
2401.48,-0.00368
2397.36,-0.00372
2393.24,-0.00377
2389.12,-0.00375
2385,-0.00374
2380.88,-0.00382
2376.76,-0.00393
2372.65,-0.00396
2368.53,-0.00394
2364.41,-0.00390
2360.29,-0.00386
2356.17,-0.00384
2352.05,-0.00385
2347.93,-0.00390
2343.81,-0.00399
2339.69,-0.00403
2335.57,-0.00398
2331.45,-0.00394
2327.33,-0.00392
2323.22,-0.00380
2319.1,-0.00362
2314.98,-0.00353
2310.86,-0.00358
2306.74,-0.00371
2302.62,-0.00378
2298.5,-0.00377
2294.38,-0.00379
2290.26,-0.00378
2286.14,-0.00374
2282.02,-0.00371
2277.9,-0.00372
2273.79,-0.00379
2269.67,-0.00389
2265.55,-0.00395
2261.43,-0.00391
2257.31,-0.00376
2253.19,-0.00359
2249.07,-0.00349
2244.95,-0.00340
2240.83,-0.00331
2236.71,-0.00334
2232.59,-0.00343
2228.47,-0.00344
2224.36,-0.00340
2220.24,-0.00320
2216.12,-0.00306
2212,-0.00326
2207.88,-0.00328
2203.76,-0.00295
2199.64,-0.00274
2195.52,-0.00276
2191.4,-0.00293
2187.28,-0.00324
2183.16,-0.00329
2179.04,-0.00311
2174.93,-0.00316
2170.81,-0.00328
2166.69,-0.00314
2162.57,-0.00301
2158.45,-0.00325
2154.33,-0.00343
2150.21,-0.00332
2146.09,-0.00326
2141.97,-0.00334
2137.85,-0.00361
2133.73,-0.00402
2129.61,-0.00415
2125.49,-0.00387
2121.38,-0.00361
2117.26,-0.00360
2113.14,-0.00361
2109.02,-0.00344
2104.9,-0.00332
2100.78,-0.00342
2096.66,-0.00350
2092.54,-0.00364
2088.42,-0.00390
2084.3,-0.00418
2080.18,-0.00433
2076.06,-0.00423
2071.95,-0.00401
2067.83,-0.00374
2063.71,-0.00340
2059.59,-0.00311
2055.47,-0.00298
2051.35,-0.00306
2047.23,-0.00324
2043.11,-0.00319
2038.99,-0.00307
2034.87,-0.00318
2030.75,-0.00325
2026.63,-0.00323
2022.52,-0.00332
2018.4,-0.00322
2014.28,-0.00298
2010.16,-0.00306
2006.04,-0.00325
2001.92,-0.00321
1997.8,-0.00315
1993.68,-0.00301
1989.56,-0.00280
1985.44,-0.00288
1981.32,-0.00289
1977.2,-0.00246
1973.09,-0.00213
1968.97,-0.00219
1964.85,-0.00231
1960.73,-0.00236
1956.61,-0.00249
1952.49,-0.00260
1948.37,-0.00252
1944.25,-0.00247
1940.13,-0.00272
1936.01,-0.00313
1931.89,-0.00332
1927.77,-0.00327
1923.66,-0.00335
1919.54,-0.00351
1915.42,-0.00337
1911.3,-0.00315
1907.18,-0.00319
1903.06,-0.00327
1898.94,-0.00324
1894.82,-0.00328
1890.7,-0.00320
1886.58,-0.00304
1882.46,-0.00301
1878.34,-0.00302
1874.23,-0.00297
1870.11,-0.00288
1865.99,-0.00280
1861.87,-0.00286
1857.75,-0.00305
1853.63,-0.00319
1849.51,-0.00318
1845.39,-0.00308
1841.27,-0.00301
1837.15,-0.00301
1833.03,-0.00300
1828.91,-0.00301
1824.8,-0.00306
1820.68,-0.00311
1816.56,-0.00313
1812.44,-0.00312
1808.32,-0.00305
1804.2,-0.00300
1800.08,-0.00299
1795.96,-0.00299
1791.84,-0.00301
1787.72,-0.00304
1783.6,-0.00305
1779.48,-0.00304
1775.36,-0.00303
1771.25,-0.00304
1767.13,-0.00306
1763.01,-0.00317
1758.89,-0.00334
1754.77,-0.00341
1750.65,-0.00339
1746.53,-0.00338
1742.41,-0.00343
1738.29,-0.00351
1734.17,-0.00359
1730.05,-0.00369
1725.93,-0.00375
1721.82,-0.00383
1717.7,-0.00398
1713.58,-0.00420
1709.46,-0.00448
1705.34,-0.00483
1701.22,-0.00541
1697.1,-0.00626
1692.98,-0.00693
1688.86,-0.00742
1684.74,-0.00817
1680.62,-0.00911
1676.5,-0.00995
1672.39,-0.01089
1668.27,-0.01189
1664.15,-0.01281
1660.03,-0.01361
1655.91,-0.01434
1651.79,-0.01518
1647.67,-0.01592
1643.55,-0.01639
1639.43,-0.01665
1635.31,-0.01685
1631.19,-0.01695
1627.07,-0.01689
1622.96,-0.01678
1618.84,-0.01665
1614.72,-0.01638
1610.6,-0.01588
1606.48,-0.01520
1602.36,-0.01447
1598.24,-0.01389
1594.12,-0.01342
1590,-0.01299
1585.88,-0.01263
1581.76,-0.01236
1577.64,-0.01210
1573.53,-0.01188
1569.41,-0.01173
1565.29,-0.01170
1561.17,-0.01183
1557.05,-0.01215
1552.93,-0.01242
1548.81,-0.01258
1544.69,-0.01266
1540.57,-0.01260
1536.45,-0.01243
1532.33,-0.01231
1528.21,-0.01221
1524.1,-0.01207
1519.98,-0.01197
1515.86,-0.01187
1511.74,-0.01163
1507.62,-0.01116
1503.5,-0.01067
1499.38,-0.01026
1495.26,-0.00980
1491.14,-0.00935
1487.02,-0.00902
1482.9,-0.00881
1478.78,-0.00867
1474.67,-0.00858
1470.55,-0.00855
1466.43,-0.00855
1462.31,-0.00854
1458.19,-0.00862
1454.07,-0.00874
1449.95,-0.00872
1445.83,-0.00864
1441.71,-0.00858
1437.59,-0.00850
1433.47,-0.00844
1429.35,-0.00842
1425.23,-0.00844
1421.12,-0.00859
1417,-0.00887
1412.88,-0.00906
1408.76,-0.00915
1404.64,-0.00926
1400.52,-0.00942
1396.4,-0.00960
1392.28,-0.00973
1388.16,-0.00980
1384.04,-0.00981
1379.92,-0.00977
1375.8,-0.00971
1371.69,-0.00965
1367.57,-0.00957
1363.45,-0.00952
1359.33,-0.00950
1355.21,-0.00947
1351.09,-0.00940
1346.97,-0.00931
1342.85,-0.00923
1338.73,-0.00916
1334.61,-0.00908
1330.49,-0.00899
1326.37,-0.00892
1322.26,-0.00886
1318.14,-0.00879
1314.02,-0.00873
1309.9,-0.00871
1305.78,-0.00868
1301.66,-0.00857
1297.54,-0.00842
1293.42,-0.00827
1289.3,-0.00817
1285.18,-0.00811
1281.06,-0.00805
1276.94,-0.00799
1272.83,-0.00795
1268.71,-0.00791
1264.59,-0.00787
1260.47,-0.00785
1256.35,-0.00789
1252.23,-0.00798
1248.11,-0.00805
1243.99,-0.00809
1239.87,-0.00811
1235.75,-0.00808
1231.63,-0.00801
1227.51,-0.00795
1223.4,-0.00786
1219.28,-0.00774
1215.16,-0.00764
1211.04,-0.00754
1206.92,-0.00738
1202.8,-0.00723
1198.68,-0.00712
1194.56,-0.00701
1190.44,-0.00690
1186.32,-0.00678
1182.2,-0.00666
1178.08,-0.00662
1173.97,-0.00670
1169.85,-0.00686
1165.73,-0.00701
1161.61,-0.00715
1157.49,-0.00730
1153.37,-0.00748
1149.25,-0.00766
1145.13,-0.00789
1141.01,-0.00821
1136.89,-0.00856
1132.77,-0.00890
1128.65,-0.00931
1124.54,-0.00980
1120.42,-0.01034
1116.3,-0.01085
1112.18,-0.01129
1108.06,-0.01168
1103.94,-0.01206
1099.82,-0.01241
1095.7,-0.01266
1091.58,-0.01278
1087.46,-0.01278
1083.34,-0.01271
1079.22,-0.01261
1075.11,-0.01242
1070.99,-0.01213
1066.87,-0.01185
1062.75,-0.01150
1058.63,-0.01101
1054.51,-0.01048
1050.39,-0.01000
1046.27,-0.00966
1042.15,-0.00945
1038.03,-0.00921
1033.91,-0.00888
1029.79,-0.00861
1025.67,-0.00844
1021.56,-0.00828
1017.44,-0.00807
1013.32,-0.00788
1009.2,-0.00777
1005.08,-0.00773
1000.96,-0.00766
996.841,-0.00758
992.721,-0.00753
988.602,-0.00753
984.483,-0.00752
980.364,-0.00748
976.245,-0.00740
972.126,-0.00729
968.006,-0.00722
963.887,-0.00720
959.768,-0.00720
955.649,-0.00717
951.53,-0.00711
947.411,-0.00708
943.291,-0.00712
939.172,-0.00720
935.053,-0.00730
930.934,-0.00738
926.815,-0.00744
922.695,-0.00748
918.576,-0.00746
914.457,-0.00743
910.338,-0.00745
906.219,-0.00749
902.1,-0.00758
897.98,-0.00775
893.861,-0.00788
889.742,-0.00790
885.623,-0.00792
881.504,-0.00804
877.385,-0.00828
873.265,-0.00855
869.146,-0.00872
865.027,-0.00887
860.908,-0.00906
856.789,-0.00922
852.669,-0.00936
848.55,-0.00957
844.431,-0.00975
840.312,-0.00988
836.193,-0.01001
832.074,-0.01024
827.954,-0.01059
823.835,-0.01083
819.716,-0.01097
815.597,-0.01129
811.478,-0.01163
807.359,-0.01184
803.239,-0.01210
799.12,-0.01238
795.001,-0.01262
790.882,-0.01284
786.763,-0.01305
782.644,-0.01324
778.524,-0.01339
774.405,-0.01364
770.286,-0.01406
766.167,-0.01443
762.048,-0.01465
757.928,-0.01477
753.809,-0.01493
749.69,-0.01530
745.571,-0.01574
741.452,-0.01597
737.333,-0.01610
733.213,-0.01627
729.094,-0.01648
724.975,-0.01675
720.856,-0.01706
716.737,-0.01740
712.617,-0.01778
708.498,-0.01812
704.379,-0.01835
700.26,-0.01851
696.141,-0.01878
692.022,-0.01915
687.902,-0.01936
683.783,-0.01959
679.664,-0.02005
675.545,-0.02045
671.426,-0.02062
667.307,-0.02077
663.187,-0.02103
659.068,-0.02131
654.949,-0.02147
650.83,-0.02167
646.711,-0.02208
642.591,-0.02239
638.472,-0.02243
634.353,-0.02233
630.234,-0.02235
626.115,-0.02277
621.996,-0.02337
617.876,-0.02374
613.757,-0.02386
609.638,-0.02399
605.519,-0.02422
601.4,-0.02438
597.281,-0.02451
593.161,-0.02479
589.042,-0.02502
584.923,-0.02501
580.804,-0.02493
576.685,-0.02509
572.566,-0.02547
568.446,-0.02571
564.327,-0.02572
560.208,-0.02575
556.089,-0.02590
551.97,-0.02601
547.85,-0.02607
543.731,-0.02621
539.612,-0.02636
535.493,-0.02652
531.374,-0.02671
527.255,-0.02693
523.135,-0.02707
519.016,-0.02686
514.897,-0.02656
510.778,-0.02667
506.659,-0.02702
502.54,-0.02732
498.42,-0.02769
494.301,-0.02783
490.182,-0.02773
486.063,-0.02790
481.944,-0.02808
477.824,-0.02794
473.705,-0.02788
469.586,-0.02808
465.467,-0.02815
461.348,-0.02796
457.229,-0.02797
453.109,-0.02832
448.99,-0.02857
444.871,-0.02879
440.752,-0.02908
436.633,-0.02897
432.514,-0.02870
428.394,-0.02860
424.275,-0.02836
420.156,-0.02864
416.037,-0.02983
411.918,-0.03027
407.798,-0.02991
403.679,-0.02952
399.56,-0.02900