File: FTIR/2023_06_14_CBG_new_powder.dpt
3998.68	0.01352
3995.6	0.01337
3992.51	0.01394
3989.42	0.01363
3986.33	0.01390
3983.24	0.01360
3980.15	0.01384
3977.06	0.01347
3973.97	0.01331
3970.88	0.01357
3967.79	0.01418
3964.7	0.01340
3961.61	0.01366
3958.52	0.01352
3955.43	0.01355
3952.34	0.01365
3949.25	0.01303
3946.17	0.01318
3943.08	0.01355
3939.99	0.01350
3936.9	0.01329
3933.81	0.01302
3930.72	0.01382
3927.63	0.01362
3924.54	0.01328
3921.45	0.01319
3918.36	0.01337
3915.27	0.01329
3912.18	0.01349
3909.09	0.01304
3906	0.01368
3902.91	0.01258
3899.82	0.01319
3896.74	0.01317
3893.65	0.01303
3890.56	0.01299
3887.47	0.01288
3884.38	0.01312
3881.29	0.01308
3878.2	0.01282
3875.11	0.01257
3872.02	0.01256
3868.93	0.01284
3865.84	0.01324
3862.75	0.01259
3859.66	0.01304
3856.57	0.01292
3853.48	0.01198
3850.39	0.01298
3847.31	0.01278
3844.22	0.01341
3841.13	0.01308
3838.04	0.01343
3834.95	0.01279
3831.86	0.01265
3828.77	0.01272
3825.68	0.01187
3822.59	0.01255
3819.5	0.01184
3816.41	0.01277
3813.32	0.01275
3810.23	0.01224
3807.14	0.01237
3804.05	0.01294
3800.96	0.01181
3797.88	0.01251
3794.79	0.01200
3791.7	0.01239
3788.61	0.01234
3785.52	0.01224
3782.43	0.01221
3779.34	0.01283
3776.25	0.01294
3773.16	0.01215
3770.07	0.01159
3766.98	0.01258
3763.89	0.01210
3760.8	0.01266
3757.71	0.01169
3754.62	0.01229
3751.53	0.01183
3748.45	0.01171
3745.36	0.01180
3742.27	0.01124
3739.18	0.01194
3736.09	0.01141
3733	0.01154
3729.91	0.01145
3726.82	0.01191
3723.73	0.01144
3720.64	0.01124
3717.55	0.01116
3714.46	0.01135
3711.37	0.01051
3708.28	0.01108
3705.19	0.01155
3702.1	0.01148
3699.01	0.01122
3695.93	0.01158
3692.84	0.01158
3689.75	0.01194
3686.66	0.01169
3683.57	0.01138
3680.48	0.01123
3677.39	0.01181
3674.3	0.01077
3671.21	0.01181
3668.12	0.01089
3665.03	0.01124
3661.94	0.01123
3658.85	0.01131
3655.76	0.01123
3652.67	0.01170
3649.58	0.01126
3646.5	0.01053
3643.41	0.01115
3640.32	0.01085
3637.23	0.01152
3634.14	0.01205
3631.05	0.01165
3627.96	0.01003
3624.87	0.01138
3621.78	0.01172
3618.69	0.01081
3615.6	0.01207
3612.51	0.01136
3609.42	0.01180
3606.33	0.01135
3603.24	0.01161
3600.15	0.01188
3597.07	0.01219
3593.98	0.01094
3590.89	0.01248
3587.8	0.01186
3584.71	0.01223
3581.62	0.01306
3578.53	0.01290
3575.44	0.01263
3572.35	0.01318
3569.26	0.01433
3566.17	0.01351
3563.08	0.01443
3559.99	0.01426
3556.9	0.01442
3553.81	0.01538
3550.72	0.01599
3547.64	0.01644
3544.55	0.01637
3541.46	0.01670
3538.37	0.01740
3535.28	0.01780
3532.19	0.01918
3529.1	0.01964
3526.01	0.02051
3522.92	0.02146
3519.83	0.02223
3516.74	0.02355
3513.65	0.02442
3510.56	0.02508
3507.47	0.02663
3504.38	0.02803
3501.29	0.02903
3498.21	0.03057
3495.12	0.03207
3492.03	0.03399
3488.94	0.03668
3485.85	0.03928
3482.76	0.04235
3479.67	0.04602
3476.58	0.05031
3473.49	0.05680
3470.4	0.06276
3467.31	0.07072
3464.22	0.07966
3461.13	0.08684
3458.04	0.09068
3454.95	0.09173
3451.86	0.08816
3448.78	0.08254
3445.69	0.07710
3442.6	0.07300
3439.51	0.06987
3436.42	0.06810
3433.33	0.06789
3430.24	0.06791
3427.15	0.06902
3424.06	0.06833
3420.97	0.06747
3417.88	0.06581
3414.79	0.06322
3411.7	0.06106
3408.61	0.05867
3405.52	0.05694
3402.43	0.05556
3399.35	0.05422
3396.26	0.05301
3393.17	0.05211
3390.08	0.05160
3386.99	0.05118
3383.9	0.05086
3380.81	0.05073
3377.72	0.05074
3374.63	0.05103
3371.54	0.05144
3368.45	0.05176
3365.36	0.05203
3362.27	0.05214
3359.18	0.05288
3356.09	0.05302
3353	0.05312
3349.92	0.05383
3346.83	0.05436
3343.74	0.05519
3340.65	0.05608
3337.56	0.05666
3334.47	0.05734
3331.38	0.05800
3328.29	0.05921
3325.2	0.06045
3322.11	0.06179
3319.02	0.06328
3315.93	0.06496
3312.84	0.06678
3309.75	0.06887
3306.66	0.07111
3303.57	0.07299
3300.49	0.07550
3297.4	0.07802
3294.31	0.08129
3291.22	0.08398
3288.13	0.08718
3285.04	0.09018
3281.95	0.09335
3278.86	0.09657
3275.77	0.09941
3272.68	0.10282
3269.59	0.10390
3266.5	0.10575
3263.41	0.10678
3260.32	0.10774
3257.23	0.10670
3254.14	0.10609
3251.06	0.10484
3247.97	0.10355
3244.88	0.10083
3241.79	0.09801
3238.7	0.09494
3235.61	0.09235
3232.52	0.08886
3229.43	0.08638
3226.34	0.08412
3223.25	0.08155
3220.16	0.08021
3217.07	0.07840
3213.98	0.07757
3210.89	0.07643
3207.8	0.07520
3204.71	0.07439
3201.63	0.07288
3198.54	0.07197
3195.45	0.07069
3192.36	0.07051
3189.27	0.06947
3186.18	0.06844
3183.09	0.06796
3180	0.06731
3176.91	0.06579
3173.82	0.06477
3170.73	0.06395
3167.64	0.06287
3164.55	0.06196
3161.46	0.06052
3158.37	0.05933
3155.28	0.05819
3152.2	0.05774
3149.11	0.05639
3146.02	0.05596
3142.93	0.05499
3139.84	0.05408
3136.75	0.05281
3133.66	0.05173
3130.57	0.05092
3127.48	0.04946
3124.39	0.04820
3121.3	0.04718
3118.21	0.04636
3115.12	0.04552
3112.03	0.04455
3108.94	0.04312
3105.85	0.04290
3102.77	0.04229
3099.68	0.04152
3096.59	0.04086
3093.5	0.04015
3090.41	0.03945
3087.32	0.03854
3084.23	0.03775
3081.14	0.03750
3078.05	0.03727
3074.96	0.03726
3071.87	0.03652
3068.78	0.03595
3065.69	0.03507
3062.6	0.03436
3059.51	0.03434
3056.42	0.03399
3053.34	0.03475
3050.25	0.03461
3047.16	0.03415
3044.07	0.03387
3040.98	0.03438
3037.89	0.03520
3034.8	0.03661
3031.71	0.03674
3028.62	0.03622
3025.53	0.03545
3022.44	0.03564
3019.35	0.03551
3016.26	0.03571
3013.17	0.03667
3010.08	0.03733
3006.99	0.03943
3003.91	0.04155
3000.82	0.04360
2997.73	0.04497
2994.64	0.04619
2991.55	0.04928
2988.46	0.05452
2985.37	0.06185
2982.28	0.06919
2979.19	0.07273
2976.1	0.07645
2973.01	0.08137
2969.92	0.10155
2966.83	0.14679
2963.74	0.18654
2960.65	0.16164
2957.56	0.12869
2954.47	0.12280
2951.39	0.13670
2948.3	0.11567
2945.21	0.09742
2942.12	0.10537
2939.03	0.13372
2935.94	0.16709
2932.85	0.17406
2929.76	0.18168
2926.67	0.21338
2923.58	0.26462
2920.49	0.24888
2917.4	0.22654
2914.31	0.21432
2911.22	0.21092
2908.13	0.19843
2905.04	0.17846
2901.96	0.15749
2898.87	0.14049
2895.78	0.13036
2892.69	0.12604
2889.6	0.11713
2886.51	0.11064
2883.42	0.10652
2880.33	0.10477
2877.24	0.10502
2874.15	0.11101
2871.06	0.12291
2867.97	0.11786
2864.88	0.11448
2861.79	0.13156
2858.7	0.17187
2855.61	0.19306
2852.53	0.18221
2849.44	0.16650
2846.35	0.15352
2843.26	0.12566
2840.17	0.09987
2837.08	0.08371
2833.99	0.07341
2830.9	0.06668
2827.81	0.06221
2824.72	0.05823
2821.63	0.05504
2818.54	0.05127
2815.45	0.04893
2812.36	0.04644
2809.27	0.04503
2806.18	0.04383
2803.1	0.04255
2800.01	0.04152
2796.92	0.04044
2793.83	0.03917
2790.74	0.03806
2787.65	0.03733
2784.56	0.03658
2781.47	0.03607
2778.38	0.03524
2775.29	0.03491
2772.2	0.03416
2769.11	0.03432
2766.02	0.03339
2762.93	0.03323
2759.84	0.03309
2756.75	0.03325
2753.67	0.03323
2750.58	0.03318
2747.49	0.03317
2744.4	0.03372
2741.31	0.03390
2738.22	0.03404
2735.13	0.03511
2732.04	0.03834
2728.95	0.03834
2725.86	0.03714
2722.77	0.03626
2719.68	0.03494
2716.59	0.03341
2713.5	0.03255
2710.41	0.03187
2707.32	0.03125
2704.24	0.03083
2701.15	0.03031
2698.06	0.03006
2694.97	0.02979
2691.88	0.02980
2688.79	0.02988
2685.7	0.03016
2682.61	0.02996
2679.52	0.02995
2676.43	0.02936
2673.34	0.02909
2670.25	0.02859
2667.16	0.02822
2664.07	0.02789
2660.98	0.02758
2657.89	0.02793
2654.81	0.02722
2651.72	0.02670
2648.63	0.02655
2645.54	0.02579
2642.45	0.02553
2639.36	0.02547
2636.27	0.02480
2633.18	0.02470
2630.09	0.02480
2627	0.02438
2623.91	0.02370
2620.82	0.02360
2617.73	0.02365
2614.64	0.02338
2611.55	0.02353
2608.46	0.02318
2605.38	0.02304
2602.29	0.02232
2599.2	0.02231
2596.11	0.02196
2593.02	0.02206
2589.93	0.02179
2586.84	0.02175
2583.75	0.02133
2580.66	0.02112
2577.57	0.02126
2574.48	0.02174
2571.39	0.02129
2568.3	0.02142
2565.21	0.02103
2562.12	0.02060
2559.03	0.01972
2555.95	0.01979
2552.86	0.01966
2549.77	0.02009
2546.68	0.01988
2543.59	0.01924
2540.5	0.01943
2537.41	0.01953
2534.32	0.01859
2531.23	0.01957
2528.14	0.01925
2525.05	0.01943
2521.96	0.01868
2518.87	0.01889
2515.78	0.01841
2512.69	0.01807
2509.6	0.01812
2506.52	0.01841
2503.43	0.01807
2500.34	0.01802
2497.25	0.01827
2494.16	0.01775
2491.07	0.01787
2487.98	0.01777
2484.89	0.01731
2481.8	0.01779
2478.71	0.01793
2475.62	0.01768
2472.53	0.01739
2469.44	0.01802
2466.35	0.01762
2463.26	0.01743
2460.17	0.01708
2457.09	0.01703
2454	0.01692
2450.91	0.01647
2447.82	0.01670
2444.73	0.01685
2441.64	0.01641
2438.55	0.01668
2435.46	0.01646
2432.37	0.01640
2429.28	0.01635
2426.19	0.01665
2423.1	0.01607
2420.01	0.01655
2416.92	0.01644
2413.83	0.01639
2410.74	0.01582
2407.66	0.01585
2404.57	0.01586
2401.48	0.01544
2398.39	0.01586
2395.3	0.01543
2392.21	0.01509
2389.12	0.01512
2386.03	0.01578
2382.94	0.01524
2379.85	0.01522
2376.76	0.01559
2373.67	0.01532
2370.58	0.01494
2367.49	0.01546
2364.4	0.01564
2361.31	0.01576
2358.23	0.01606
2355.14	0.01547
2352.05	0.01619
2348.96	0.01581
2345.87	0.01527
2342.78	0.01502
2339.69	0.01522
2336.6	0.01579
2333.51	0.01502
2330.42	0.01590
2327.33	0.01558
2324.24	0.01686
2321.15	0.01584
2318.06	0.01592
2314.97	0.01472
2311.88	0.01475
2308.8	0.01437
2305.71	0.01536
2302.62	0.01435
2299.53	0.01451
2296.44	0.01461
2293.35	0.01411
2290.26	0.01443
2287.17	0.01409
2284.08	0.01398
2280.99	0.01364
2277.9	0.01369
2274.81	0.01328
2271.72	0.01289
2268.63	0.01354
2265.54	0.01366
2262.45	0.01238
2259.36	0.01265
2256.28	0.01289
2253.19	0.01191
2250.1	0.01232
2247.01	0.01238
2243.92	0.01275
2240.83	0.01250
2237.74	0.01213
2234.65	0.01182
2231.56	0.01174
2228.47	0.01139
2225.38	0.01111
2222.29	0.01187
2219.2	0.01215
2216.11	0.01197
2213.02	0.01245
2209.93	0.01134
2206.85	0.01170
2203.76	0.01075
2200.67	0.01054
2197.58	0.01095
2194.49	0.01103
2191.4	0.00991
2188.31	0.01154
2185.22	0.01102
2182.13	0.01032
2179.04	0.01052
2175.95	0.01115
2172.86	0.00991
2169.77	0.01097
2166.68	0.01072
2163.59	0.01166
2160.5	0.00864
2157.42	0.00690
2154.33	0.00931
2151.24	0.00811
2148.15	0.00975
2145.06	0.00916
2141.97	0.00964
2138.88	0.00914
2135.79	0.00979
2132.7	0.00956
2129.61	0.01025
2126.52	0.01090
2123.43	0.01175
2120.34	0.01154
2117.25	0.01155
2114.16	0.01189
2111.07	0.01190
2107.99	0.01194
2104.9	0.01163
2101.81	0.01121
2098.72	0.01103
2095.63	0.01008
2092.54	0.00998
2089.45	0.01094
2086.36	0.01157
2083.27	0.01199
2080.18	0.01081
2077.09	0.01168
2074	0.01113
2070.91	0.01054
2067.82	0.01000
2064.73	0.01131
2061.64	0.01029
2058.56	0.01072
2055.47	0.01085
2052.38	0.01198
2049.29	0.01129
2046.2	0.00858
2043.11	0.00916
2040.02	0.00895
2036.93	0.00861
2033.84	0.00713
2030.75	0.00848
2027.66	0.00837
2024.57	0.00933
2021.48	0.00856
2018.39	0.00899
2015.3	0.00814
2012.21	0.00845
2009.13	0.00922
2006.04	0.00824
2002.95	0.00693
1999.86	0.00861
1996.77	0.00827
1993.68	0.00824
1990.59	0.00883
1987.5	0.00866
1984.41	0.00944
1981.32	0.01047
1978.23	0.00876
1975.14	0.00661
1972.05	0.00908
1968.96	0.00885
1965.87	0.00858
1962.78	0.00948
1959.7	0.00915
1956.61	0.00832
1953.52	0.00971
1950.43	0.00879
1947.34	0.00904
1944.25	0.00959
1941.16	0.00900
1938.07	0.01005
1934.98	0.01046
1931.89	0.00987
1928.8	0.00978
1925.71	0.00943
1922.62	0.01026
1919.53	0.01030
1916.44	0.00989
1913.35	0.01051
1910.27	0.01062
1907.18	0.01027
1904.09	0.01059
1901	0.01041
1897.91	0.01035
1894.82	0.01083
1891.73	0.01063
1888.64	0.01106
1885.55	0.01088
1882.46	0.01067
1879.37	0.01068
1876.28	0.01062
1873.19	0.01078
1870.1	0.01083
1867.01	0.01053
1863.92	0.01064
1860.84	0.01084
1857.75	0.01072
1854.66	0.01102
1851.57	0.01085
1848.48	0.01087
1845.39	0.01078
1842.3	0.01121
1839.21	0.01079
1836.12	0.01146
1833.03	0.01105
1829.94	0.01144
1826.85	0.01165
1823.76	0.01159
1820.67	0.01165
1817.58	0.01135
1814.49	0.01142
1811.41	0.01202
1808.32	0.01183
1805.23	0.01170
1802.14	0.01124
1799.05	0.01171
1795.96	0.01177
1792.87	0.01185
1789.78	0.01166
1786.69	0.01208
1783.6	0.01239
1780.51	0.01283
1777.42	0.01238
1774.33	0.01223
1771.24	0.01241
1768.15	0.01300
1765.06	0.01310
1761.98	0.01342
1758.89	0.01337
1755.8	0.01314
1752.71	0.01361
1749.62	0.01346
1746.53	0.01405
1743.44	0.01486
1740.35	0.01586
1737.26	0.01581
1734.17	0.01471
1731.08	0.01439
1727.99	0.01405
1724.9	0.01375
1721.81	0.01483
1718.72	0.01593
1715.63	0.01639
1712.55	0.01547
1709.46	0.01506
1706.37	0.01461
1703.28	0.01465
1700.19	0.01318
1697.1	0.01504
1694.01	0.01477
1690.92	0.01535
1687.83	0.01553
1684.74	0.01522
1681.65	0.01640
1678.56	0.01804
1675.47	0.02145
1672.38	0.02211
1669.29	0.02052
1666.2	0.01904
1663.12	0.01830
1660.03	0.01825
1656.94	0.01888
1653.85	0.01885
1650.76	0.02233
1647.67	0.02669
1644.58	0.03512
1641.49	0.05196
1638.4	0.08460
1635.31	0.12439
1632.22	0.13680
1629.13	0.12557
1626.04	0.10769
1622.95	0.08595
1619.86	0.06943
1616.77	0.05626
1613.68	0.04662
1610.6	0.03985
1607.51	0.03701
1604.42	0.03626
1601.33	0.03855
1598.24	0.04384
1595.15	0.05540
1592.06	0.07400
1588.97	0.10598
1585.88	0.17029
1582.79	0.20269
1579.7	0.15502
1576.61	0.11158
1573.52	0.08214
1570.43	0.06479
1567.34	0.05265
1564.25	0.04498
1561.17	0.04040
1558.08	0.03567
1554.99	0.03368
1551.9	0.03264
1548.81	0.03163
1545.72	0.03146
1542.63	0.03242
1539.54	0.03473
1536.45	0.03922
1533.36	0.04523
1530.27	0.05670
1527.18	0.08075
1524.09	0.11609
1521	0.12003
1517.91	0.10604
1514.82	0.10903
1511.74	0.09581
1508.65	0.07457
1505.56	0.06264
1502.47	0.05448
1499.38	0.04738
1496.29	0.04255
1493.2	0.03827
1490.11	0.03436
1487.02	0.03232
1483.93	0.03164
1480.84	0.03279
1477.75	0.03506
1474.66	0.04038
1471.57	0.05356
1468.48	0.10440
1465.39	0.12636
1462.31	0.09920
1459.22	0.12119
1456.13	0.16714
1453.04	0.19724
1449.95	0.24328
1446.86	0.32042
1443.77	0.34289
1440.68	0.29743
1437.59	0.24193
1434.5	0.19062
1431.41	0.14794
1428.32	0.11857
1425.23	0.09519
1422.14	0.07873
1419.05	0.06917
1415.96	0.06448
1412.88	0.06409
1409.79	0.06801
1406.7	0.07460
1403.61	0.08192
1400.52	0.08463
1397.43	0.08530
1394.34	0.08746
1391.25	0.09503
1388.16	0.09261
1385.07	0.08052
1381.98	0.08484
1378.89	0.07893
1375.8	0.09087
1372.71	0.08992
1369.62	0.07369
1366.53	0.08078
1363.45	0.06390
1360.36	0.05363
1357.27	0.05283
1354.18	0.06187
1351.09	0.08776
1348	0.12209
1344.91	0.20645
1341.82	0.22271
1338.73	0.16808
1335.64	0.17354
1332.55	0.15179
1329.46	0.11973
1326.37	0.10981
1323.28	0.12383
1320.19	0.15881
1317.1	0.17052
1314.02	0.16807
1310.93	0.19404
1307.84	0.17518
1304.75	0.12305
1301.66	0.09734
1298.57	0.08266
1295.48	0.07300
1292.39	0.06742
1289.3	0.06560
1286.21	0.07340
1283.12	0.08079
1280.03	0.07750
1276.94	0.08158
1273.85	0.09482
1270.76	0.11174
1267.67	0.10645
1264.59	0.12446
1261.5	0.16084
1258.41	0.17585
1255.32	0.15158
1252.23	0.12062
1249.14	0.09865
1246.05	0.08239
1242.96	0.07082
1239.87	0.05860
1236.78	0.04920
1233.69	0.04540
1230.6	0.04674
1227.51	0.05952
1224.42	0.06556
1221.33	0.07470
1218.24	0.10792
1215.16	0.09248
1212.07	0.06767
1208.98	0.06401
1205.89	0.07467
1202.8	0.10157
1199.71	0.14132
1196.62	0.15408
1193.53	0.11148
1190.44	0.07481
1187.35	0.06544
1184.26	0.08418
1181.17	0.07453
1178.08	0.06710
1174.99	0.08201
1171.9	0.11129
1168.81	0.11652
1165.73	0.12016
1162.64	0.13188
1159.55	0.16768
1156.46	0.25398
1153.37	0.28076
1150.28	0.26269
1147.19	0.34240
1144.1	0.36829
1141.01	0.29115
1137.92	0.25628
1134.83	0.24451
1131.74	0.19752
1128.65	0.16028
1125.56	0.13274
1122.47	0.11381
1119.38	0.10451
1116.3	0.10673
1113.21	0.12738
1110.12	0.14903
1107.03	0.13439
1103.94	0.11490
1100.85	0.10281
1097.76	0.13101
1094.67	0.12306
1091.58	0.08959
1088.49	0.07476
1085.4	0.07445
1082.31	0.09439
1079.22	0.12861
1076.13	0.11379
1073.04	0.08580
1069.95	0.07094
1066.87	0.06360
1063.78	0.06529
1060.69	0.07273
1057.6	0.06986
1054.51	0.07292
1051.42	0.09603
1048.33	0.16975
1045.24	0.29174
1042.15	0.28341
1039.06	0.21572
1035.97	0.17583
1032.88	0.14088
1029.79	0.11252
1026.7	0.09627
1023.61	0.09338
1020.52	0.10852
1017.44	0.16282
1014.35	0.26838
1011.26	0.28034
1008.17	0.19489
1005.08	0.14106
1001.99	0.14371
998.899	0.14340
995.809	0.11140
992.72	0.09303
989.631	0.09061
986.541	0.09693
983.452	0.10957
980.363	0.12148
977.273	0.11272
974.184	0.10227
971.094	0.10701
968.005	0.13230
964.916	0.11350
961.826	0.08395
958.737	0.06854
955.648	0.05913
952.558	0.05328
949.469	0.04991
946.379	0.04663
943.29	0.04385
940.201	0.04200
937.111	0.04073
934.022	0.04059
930.933	0.04099
927.843	0.04399
924.754	0.05281
921.664	0.08272
918.575	0.14692
915.486	0.12167
912.396	0.09061
909.307	0.09084
906.217	0.08894
903.128	0.11107
900.039	0.10702
896.949	0.07235
893.86	0.05725
890.771	0.05145
887.681	0.05020
884.592	0.05361
881.502	0.06311
878.413	0.05979
875.324	0.04961
872.234	0.04589
869.145	0.04623
866.056	0.05511
862.966	0.09265
859.877	0.23200
856.787	0.15146
853.698	0.09996
850.609	0.12256
847.519	0.11506
844.43	0.11359
841.341	0.16314
838.251	0.24915
835.162	0.21759
832.072	0.14175
828.983	0.09808
825.894	0.08171
822.804	0.07449
819.715	0.07078
816.626	0.06804
813.536	0.06718
810.447	0.06777
807.357	0.07120
804.268	0.08204
801.179	0.11010
798.089	0.10795
795	0.09460
791.911	0.08866
788.821	0.08318
785.732	0.08667
782.642	0.10057
779.553	0.11016
776.464	0.09790
773.374	0.09239
770.285	0.09707
767.195	0.10944
764.106	0.09692
761.017	0.08840
757.927	0.08602
754.838	0.08625
751.749	0.08866
748.659	0.09700
745.57	0.10311
742.48	0.09878
739.391	0.09876
736.302	0.10520
733.212	0.12510
730.123	0.16365
727.034	0.14449
723.944	0.12100
720.855	0.08179
717.765	0.07125
714.676	0.06843
711.587	0.06787
708.497	0.06735
705.408	0.06736
702.319	0.06679
699.229	0.06671
696.14	0.06797
693.05	0.06803
689.961	0.06947
686.872	0.07001
683.782	0.07141
680.693	0.07164
677.604	0.07381
674.514	0.07512
671.425	0.07458
668.335	0.07554
665.246	0.07451
662.157	0.07255
659.067	0.08757
655.978	0.14620
652.889	0.12781
649.799	0.11792
646.71	0.12079
643.62	0.12426
640.531	0.12832
637.442	0.13313
634.352	0.13753
631.263	0.14031
628.173	0.14301
625.084	0.14540
621.995	0.14518
618.905	0.13918
615.816	0.12808
612.727	0.11632
609.637	0.11944
606.548	0.12912
603.458	0.13950
600.369	0.15237
597.28	0.17148
594.19	0.20541
591.101	0.20740
588.012	0.18489
584.922	0.14878
581.833	0.14048
578.743	0.16065
575.654	0.19036
572.565	0.18583
569.475	0.17600
566.386	0.16720
563.297	0.15516
560.207	0.14274
557.118	0.13213
554.028	0.12337
550.939	0.11576
547.85	0.11256
544.76	0.11090
541.671	0.12031
538.582	0.15242
535.492	0.19887
532.403	0.19013
529.313	0.15790
526.224	0.14394
523.135	0.14523
520.045	0.13176
516.956	0.11646
513.867	0.10640
510.777	0.10135
507.688	0.09646
504.598	0.09047
501.509	0.08802
498.42	0.08766
495.33	0.08676
492.241	0.09261
489.151	0.11375
486.062	0.11945
482.973	0.10188
479.883	0.08955
476.794	0.08460
473.705	0.08116
470.615	0.08173
467.526	0.08101
464.436	0.08293
461.347	0.08372
458.258	0.09033
455.168	0.11512
452.079	0.12949
448.99	0.11734
445.9	0.11302
442.811	0.11615
439.721	0.14070
436.632	0.15582
433.543	0.17049
430.453	0.17169
427.364	0.15630
424.275	0.14602
421.185	0.13672
418.096	0.13523
415.006	0.12699
411.917	0.13040
408.828	0.13249
405.738	0.13550
402.649	0.13446
399.56	0.13193