File: FTIR/2023_06_07_CBG_powder.dpt
3998.68	0.00498
3995.6	0.00447
3992.51	0.00493
3989.42	0.00491
3986.33	0.00444
3983.24	0.00496
3980.15	0.00503
3977.06	0.00483
3973.97	0.00501
3970.88	0.00539
3967.79	0.00516
3964.7	0.00502
3961.61	0.00511
3958.52	0.00468
3955.43	0.00486
3952.34	0.00494
3949.25	0.00491
3946.17	0.00456
3943.08	0.00467
3939.99	0.00451
3936.9	0.00479
3933.81	0.00441
3930.72	0.00510
3927.63	0.00423
3924.54	0.00513
3921.45	0.00488
3918.36	0.00465
3915.27	0.00478
3912.18	0.00466
3909.09	0.00487
3906	0.00495
3902.91	0.00483
3899.82	0.00415
3896.74	0.00456
3893.65	0.00432
3890.56	0.00438
3887.47	0.00415
3884.38	0.00448
3881.29	0.00477
3878.2	0.00407
3875.11	0.00478
3872.02	0.00450
3868.93	0.00461
3865.84	0.00469
3862.75	0.00443
3859.66	0.00395
3856.57	0.00448
3853.48	0.00376
3850.39	0.00429
3847.31	0.00432
3844.22	0.00450
3841.13	0.00492
3838.04	0.00518
3834.95	0.00480
3831.86	0.00435
3828.77	0.00464
3825.68	0.00398
3822.59	0.00463
3819.5	0.00454
3816.41	0.00527
3813.32	0.00494
3810.23	0.00427
3807.14	0.00404
3804.05	0.00407
3800.96	0.00351
3797.88	0.00418
3794.79	0.00399
3791.7	0.00387
3788.61	0.00398
3785.52	0.00380
3782.43	0.00376
3779.34	0.00412
3776.25	0.00441
3773.16	0.00371
3770.07	0.00401
3766.98	0.00405
3763.89	0.00391
3760.8	0.00435
3757.71	0.00412
3754.62	0.00445
3751.53	0.00422
3748.45	0.00400
3745.36	0.00299
3742.27	0.00405
3739.18	0.00358
3736.09	0.00406
3733	0.00347
3729.91	0.00325
3726.82	0.00377
3723.73	0.00371
3720.64	0.00319
3717.55	0.00326
3714.46	0.00347
3711.37	0.00415
3708.28	0.00328
3705.19	0.00376
3702.1	0.00343
3699.01	0.00393
3695.93	0.00350
3692.84	0.00351
3689.75	0.00399
3686.66	0.00321
3683.57	0.00364
3680.48	0.00366
3677.39	0.00287
3674.3	0.00296
3671.21	0.00317
3668.12	0.00384
3665.03	0.00357
3661.94	0.00291
3658.85	0.00368
3655.76	0.00365
3652.67	0.00291
3649.58	0.00399
3646.5	0.00365
3643.41	0.00344
3640.32	0.00350
3637.23	0.00312
3634.14	0.00396
3631.05	0.00379
3627.96	0.00408
3624.87	0.00352
3621.78	0.00316
3618.69	0.00369
3615.6	0.00456
3612.51	0.00371
3609.42	0.00289
3606.33	0.00358
3603.24	0.00363
3600.15	0.00379
3597.07	0.00409
3593.98	0.00393
3590.89	0.00395
3587.8	0.00397
3584.71	0.00442
3581.62	0.00461
3578.53	0.00494
3575.44	0.00468
3572.35	0.00591
3569.26	0.00610
3566.17	0.00560
3563.08	0.00662
3559.99	0.00686
3556.9	0.00691
3553.81	0.00737
3550.72	0.00811
3547.64	0.00798
3544.55	0.00880
3541.46	0.00909
3538.37	0.00981
3535.28	0.01115
3532.19	0.01152
3529.1	0.01219
3526.01	0.01281
3522.92	0.01462
3519.83	0.01524
3516.74	0.01669
3513.65	0.01695
3510.56	0.01840
3507.47	0.01971
3504.38	0.02031
3501.29	0.02241
3498.21	0.02338
3495.12	0.02514
3492.03	0.02727
3488.94	0.02905
3485.85	0.03177
3482.76	0.03473
3479.67	0.03891
3476.58	0.04307
3473.49	0.04876
3470.4	0.05588
3467.31	0.06366
3464.22	0.07242
3461.13	0.07988
3458.04	0.08431
3454.95	0.08436
3451.86	0.08157
3448.78	0.07679
3445.69	0.07087
3442.6	0.06654
3439.51	0.06403
3436.42	0.06221
3433.33	0.06139
3430.24	0.06169
3427.15	0.06284
3424.06	0.06235
3420.97	0.06116
3417.88	0.05946
3414.79	0.05759
3411.7	0.05526
3408.61	0.05246
3405.52	0.05085
3402.43	0.04866
3399.35	0.04754
3396.26	0.04697
3393.17	0.04632
3390.08	0.04499
3386.99	0.04469
3383.9	0.04478
3380.81	0.04428
3377.72	0.04438
3374.63	0.04456
3371.54	0.04461
3368.45	0.04510
3365.36	0.04529
3362.27	0.04576
3359.18	0.04568
3356.09	0.04611
3353	0.04641
3349.92	0.04671
3346.83	0.04766
3343.74	0.04794
3340.65	0.04877
3337.56	0.04924
3334.47	0.05034
3331.38	0.05111
3328.29	0.05203
3325.2	0.05318
3322.11	0.05461
3319.02	0.05611
3315.93	0.05758
3312.84	0.05895
3309.75	0.06135
3306.66	0.06316
3303.57	0.06554
3300.49	0.06783
3297.4	0.07068
3294.31	0.07281
3291.22	0.07606
3288.13	0.07885
3285.04	0.08192
3281.95	0.08566
3278.86	0.08814
3275.77	0.09115
3272.68	0.09387
3269.59	0.09549
3266.5	0.09710
3263.41	0.09849
3260.32	0.09885
3257.23	0.09897
3254.14	0.09761
3251.06	0.09620
3247.97	0.09457
3244.88	0.09197
3241.79	0.08967
3238.7	0.08687
3235.61	0.08364
3232.52	0.08135
3229.43	0.07842
3226.34	0.07597
3223.25	0.07396
3220.16	0.07213
3217.07	0.07087
3213.98	0.06993
3210.89	0.06829
3207.8	0.06756
3204.71	0.06616
3201.63	0.06513
3198.54	0.06470
3195.45	0.06373
3192.36	0.06311
3189.27	0.06215
3186.18	0.06194
3183.09	0.06099
3180	0.06051
3176.91	0.05942
3173.82	0.05850
3170.73	0.05752
3167.64	0.05611
3164.55	0.05525
3161.46	0.05408
3158.37	0.05316
3155.28	0.05177
3152.2	0.05126
3149.11	0.04989
3146.02	0.04993
3142.93	0.04845
3139.84	0.04744
3136.75	0.04643
3133.66	0.04560
3130.57	0.04443
3127.48	0.04300
3124.39	0.04184
3121.3	0.04027
3118.21	0.03943
3115.12	0.03808
3112.03	0.03745
3108.94	0.03711
3105.85	0.03640
3102.77	0.03605
3099.68	0.03529
3096.59	0.03395
3093.5	0.03361
3090.41	0.03301
3087.32	0.03200
3084.23	0.03142
3081.14	0.03089
3078.05	0.03086
3074.96	0.03058
3071.87	0.02994
3068.78	0.02942
3065.69	0.02861
3062.6	0.02780
3059.51	0.02751
3056.42	0.02771
3053.34	0.02769
3050.25	0.02815
3047.16	0.02775
3044.07	0.02758
3040.98	0.02820
3037.89	0.02907
3034.8	0.02983
3031.71	0.03040
3028.62	0.03041
3025.53	0.02968
3022.44	0.02924
3019.35	0.02919
3016.26	0.02971
3013.17	0.03032
3010.08	0.03153
3006.99	0.03314
3003.91	0.03565
3000.82	0.03798
2997.73	0.03871
2994.64	0.04088
2991.55	0.04365
2988.46	0.04902
2985.37	0.05688
2982.28	0.06361
2979.19	0.06768
2976.1	0.07136
2973.01	0.07626
2969.92	0.09584
2966.83	0.14051
2963.74	0.18099
2960.65	0.15776
2957.56	0.12358
2954.47	0.11691
2951.39	0.13106
2948.3	0.10980
2945.21	0.09179
2942.12	0.09957
2939.03	0.12800
2935.94	0.16034
2932.85	0.16689
2929.76	0.17328
2926.67	0.20357
2923.58	0.25191
2920.49	0.23197
2917.4	0.20259
2914.31	0.19101
2911.22	0.19603
2908.13	0.18727
2905.04	0.16873
2901.96	0.14760
2898.87	0.13147
2895.78	0.12141
2892.69	0.11728
2889.6	0.10965
2886.51	0.10322
2883.42	0.09917
2880.33	0.09791
2877.24	0.09833
2874.15	0.10445
2871.06	0.11601
2867.97	0.11128
2864.88	0.10753
2861.79	0.12430
2858.7	0.16471
2855.61	0.18580
2852.53	0.17131
2849.44	0.14590
2846.35	0.13591
2843.26	0.11477
2840.17	0.09101
2837.08	0.07561
2833.99	0.06587
2830.9	0.05901
2827.81	0.05478
2824.72	0.05069
2821.63	0.04672
2818.54	0.04428
2815.45	0.04147
2812.36	0.03891
2809.27	0.03775
2806.18	0.03608
2803.1	0.03497
2800.01	0.03424
2796.92	0.03291
2793.83	0.03203
2790.74	0.03083
2787.65	0.02969
2784.56	0.02893
2781.47	0.02852
2778.38	0.02808
2775.29	0.02765
2772.2	0.02712
2769.11	0.02658
2766.02	0.02676
2762.93	0.02622
2759.84	0.02615
2756.75	0.02631
2753.67	0.02628
2750.58	0.02596
2747.49	0.02648
2744.4	0.02663
2741.31	0.02703
2738.22	0.02688
2735.13	0.02810
2732.04	0.03208
2728.95	0.03179
2725.86	0.03032
2722.77	0.02993
2719.68	0.02805
2716.59	0.02679
2713.5	0.02572
2710.41	0.02467
2707.32	0.02448
2704.24	0.02408
2701.15	0.02353
2698.06	0.02305
2694.97	0.02291
2691.88	0.02277
2688.79	0.02315
2685.7	0.02336
2682.61	0.02323
2679.52	0.02306
2676.43	0.02281
2673.34	0.02205
2670.25	0.02178
2667.16	0.02147
2664.07	0.02113
2660.98	0.02144
2657.89	0.02109
2654.81	0.02087
2651.72	0.02020
2648.63	0.02000
2645.54	0.01949
2642.45	0.01884
2639.36	0.01896
2636.27	0.01862
2633.18	0.01863
2630.09	0.01833
2627	0.01796
2623.91	0.01733
2620.82	0.01721
2617.73	0.01726
2614.64	0.01691
2611.55	0.01693
2608.46	0.01697
2605.38	0.01665
2602.29	0.01644
2599.2	0.01632
2596.11	0.01574
2593.02	0.01544
2589.93	0.01582
2586.84	0.01538
2583.75	0.01519
2580.66	0.01506
2577.57	0.01581
2574.48	0.01569
2571.39	0.01520
2568.3	0.01523
2565.21	0.01521
2562.12	0.01455
2559.03	0.01454
2555.95	0.01400
2552.86	0.01366
2549.77	0.01393
2546.68	0.01413
2543.59	0.01355
2540.5	0.01326
2537.41	0.01349
2534.32	0.01332
2531.23	0.01362
2528.14	0.01370
2525.05	0.01295
2521.96	0.01302
2518.87	0.01322
2515.78	0.01275
2512.69	0.01273
2509.6	0.01235
2506.52	0.01247
2503.43	0.01224
2500.34	0.01261
2497.25	0.01187
2494.16	0.01247
2491.07	0.01238
2487.98	0.01255
2484.89	0.01138
2481.8	0.01195
2478.71	0.01163
2475.62	0.01223
2472.53	0.01143
2469.44	0.01199
2466.35	0.01175
2463.26	0.01165
2460.17	0.01108
2457.09	0.01118
2454	0.01149
2450.91	0.01057
2447.82	0.01061
2444.73	0.01119
2441.64	0.01111
2438.55	0.01100
2435.46	0.01140
2432.37	0.01047
2429.28	0.01055
2426.19	0.01108
2423.1	0.01077
2420.01	0.01046
2416.92	0.01011
2413.83	0.01029
2410.74	0.01009
2407.66	0.01031
2404.57	0.01024
2401.48	0.01024
2398.39	0.01005
2395.3	0.01024
2392.21	0.00971
2389.12	0.00984
2386.03	0.00988
2382.94	0.00998
2379.85	0.00947
2376.76	0.00955
2373.67	0.00972
2370.58	0.00966
2367.49	0.00911
2364.4	0.01002
2361.31	0.01016
2358.23	0.01034
2355.14	0.01024
2352.05	0.00976
2348.96	0.01038
2345.87	0.00937
2342.78	0.00892
2339.69	0.01000
2336.6	0.00969
2333.51	0.00980
2330.42	0.00919
2327.33	0.00986
2324.24	0.01119
2321.15	0.00978
2318.06	0.00991
2314.97	0.00967
2311.88	0.00945
2308.8	0.00928
2305.71	0.00939
2302.62	0.00944
2299.53	0.00901
2296.44	0.00970
2293.35	0.00951
2290.26	0.00900
2287.17	0.00886
2284.08	0.00915
2280.99	0.00887
2277.9	0.00784
2274.81	0.00852
2271.72	0.00747
2268.63	0.00833
2265.54	0.00805
2262.45	0.00784
2259.36	0.00751
2256.28	0.00826
2253.19	0.00790
2250.1	0.00724
2247.01	0.00744
2243.92	0.00835
2240.83	0.00803
2237.74	0.00734
2234.65	0.00736
2231.56	0.00825
2228.47	0.00775
2225.38	0.00681
2222.29	0.00757
2219.2	0.00756
2216.11	0.00783
2213.02	0.00758
2209.93	0.00717
2206.85	0.00667
2203.76	0.00805
2200.67	0.00646
2197.58	0.00674
2194.49	0.00648
2191.4	0.00711
2188.31	0.00751
2185.22	0.00713
2182.13	0.00743
2179.04	0.00623
2175.95	0.00764
2172.86	0.00684
2169.77	0.00710
2166.68	0.00849
2163.59	0.00573
2160.5	0.00928
2157.42	0.00374
2154.33	0.00513
2151.24	0.00599
2148.15	0.00670
2145.06	0.00609
2141.97	0.00634
2138.88	0.00587
2135.79	0.00589
2132.7	0.00591
2129.61	0.00621
2126.52	0.00725
2123.43	0.00723
2120.34	0.00788
2117.25	0.00703
2114.16	0.00741
2111.07	0.00704
2107.99	0.00742
2104.9	0.00673
2101.81	0.00717
2098.72	0.00753
2095.63	0.00730
2092.54	0.00676
2089.45	0.00645
2086.36	0.00701
2083.27	0.00720
2080.18	0.00781
2077.09	0.00680
2074	0.00632
2070.91	0.00820
2067.82	0.00678
2064.73	0.00740
2061.64	0.00729
2058.56	0.00646
2055.47	0.00755
2052.38	0.00720
2049.29	0.00737
2046.2	0.00719
2043.11	0.00570
2040.02	0.00533
2036.93	0.00608
2033.84	0.00386
2030.75	0.00692
2027.66	0.00660
2024.57	0.00484
2021.48	0.00530
2018.39	0.00555
2015.3	0.00581
2012.21	0.00616
2009.13	0.00517
2006.04	0.00498
2002.95	0.00666
1999.86	0.00406
1996.77	0.00529
1993.68	0.00518
1990.59	0.00581
1987.5	0.00489
1984.41	0.00560
1981.32	0.00591
1978.23	0.00659
1975.14	0.00479
1972.05	0.00555
1968.96	0.00627
1965.87	0.00620
1962.78	0.00566
1959.7	0.00444
1956.61	0.00589
1953.52	0.00568
1950.43	0.00537
1947.34	0.00580
1944.25	0.00600
1941.16	0.00500
1938.07	0.00544
1934.98	0.00569
1931.89	0.00599
1928.8	0.00579
1925.71	0.00606
1922.62	0.00569
1919.53	0.00620
1916.44	0.00669
1913.35	0.00664
1910.27	0.00657
1907.18	0.00631
1904.09	0.00646
1901	0.00594
1897.91	0.00693
1894.82	0.00665
1891.73	0.00662
1888.64	0.00665
1885.55	0.00641
1882.46	0.00678
1879.37	0.00667
1876.28	0.00659
1873.19	0.00693
1870.1	0.00660
1867.01	0.00635
1863.92	0.00654
1860.84	0.00634
1857.75	0.00694
1854.66	0.00657
1851.57	0.00652
1848.48	0.00689
1845.39	0.00699
1842.3	0.00705
1839.21	0.00717
1836.12	0.00728
1833.03	0.00683
1829.94	0.00717
1826.85	0.00702
1823.76	0.00762
1820.67	0.00756
1817.58	0.00765
1814.49	0.00762
1811.41	0.00744
1808.32	0.00781
1805.23	0.00755
1802.14	0.00804
1799.05	0.00775
1795.96	0.00719
1792.87	0.00770
1789.78	0.00774
1786.69	0.00796
1783.6	0.00809
1780.51	0.00815
1777.42	0.00825
1774.33	0.00824
1771.24	0.00839
1768.15	0.00864
1765.06	0.00897
1761.98	0.00915
1758.89	0.00942
1755.8	0.00941
1752.71	0.00922
1749.62	0.00933
1746.53	0.00990
1743.44	0.01074
1740.35	0.01215
1737.26	0.01149
1734.17	0.01161
1731.08	0.00989
1727.99	0.00989
1724.9	0.00969
1721.81	0.01046
1718.72	0.01166
1715.63	0.01216
1712.55	0.01153
1709.46	0.01151
1706.37	0.01076
1703.28	0.01078
1700.19	0.01117
1697.1	0.01099
1694.01	0.01137
1690.92	0.01174
1687.83	0.01224
1684.74	0.01223
1681.65	0.01321
1678.56	0.01497
1675.47	0.01788
1672.38	0.01948
1669.29	0.01765
1666.2	0.01565
1663.12	0.01488
1660.03	0.01506
1656.94	0.01601
1653.85	0.01649
1650.76	0.01965
1647.67	0.02375
1644.58	0.03247
1641.49	0.04984
1638.4	0.08336
1635.31	0.12430
1632.22	0.13702
1629.13	0.12619
1626.04	0.10805
1622.95	0.08572
1619.86	0.06818
1616.77	0.05434
1613.68	0.04397
1610.6	0.03744
1607.51	0.03379
1604.42	0.03310
1601.33	0.03520
1598.24	0.04098
1595.15	0.05242
1592.06	0.07109
1588.97	0.10286
1585.88	0.16841
1582.79	0.20095
1579.7	0.15086
1576.61	0.10576
1573.52	0.07641
1570.43	0.05912
1567.34	0.04759
1564.25	0.04026
1561.17	0.03545
1558.08	0.03140
1554.99	0.02966
1551.9	0.02862
1548.81	0.02762
1545.72	0.02747
1542.63	0.02737
1539.54	0.02904
1536.45	0.03347
1533.36	0.04043
1530.27	0.05229
1527.18	0.07660
1524.09	0.11187
1521	0.11553
1517.91	0.10190
1514.82	0.10465
1511.74	0.09145
1508.65	0.07022
1505.56	0.05841
1502.47	0.05033
1499.38	0.04341
1496.29	0.03870
1493.2	0.03469
1490.11	0.03127
1487.02	0.02897
1483.93	0.02858
1480.84	0.02983
1477.75	0.03197
1474.66	0.03611
1471.57	0.04968
1468.48	0.10154
1465.39	0.12360
1462.31	0.09498
1459.22	0.11922
1456.13	0.16538
1453.04	0.19713
1449.95	0.24424
1446.86	0.32264
1443.77	0.34717
1440.68	0.30110
1437.59	0.24354
1434.5	0.19142
1431.41	0.14905
1428.32	0.11913
1425.23	0.09543
1422.14	0.07766
1419.05	0.06782
1415.96	0.06273
1412.88	0.06247
1409.79	0.06633
1406.7	0.07318
1403.61	0.08033
1400.52	0.08346
1397.43	0.08396
1394.34	0.08597
1391.25	0.09368
1388.16	0.09135
1385.07	0.07982
1381.98	0.08500
1378.89	0.07867
1375.8	0.09011
1372.71	0.08880
1369.62	0.07233
1366.53	0.07987
1363.45	0.06289
1360.36	0.05265
1357.27	0.05219
1354.18	0.06093
1351.09	0.08737
1348	0.12257
1344.91	0.20827
1341.82	0.22604
1338.73	0.17051
1335.64	0.17456
1332.55	0.15248
1329.46	0.11994
1326.37	0.10944
1323.28	0.12251
1320.19	0.15769
1317.1	0.16965
1314.02	0.16743
1310.93	0.19499
1307.84	0.17624
1304.75	0.12277
1301.66	0.09708
1298.57	0.08183
1295.48	0.07203
1292.39	0.06624
1289.3	0.06421
1286.21	0.07168
1283.12	0.07923
1280.03	0.07615
1276.94	0.08041
1273.85	0.09352
1270.76	0.11100
1267.67	0.10491
1264.59	0.12186
1261.5	0.15897
1258.41	0.17390
1255.32	0.14807
1252.23	0.11666
1249.14	0.09550
1246.05	0.07988
1242.96	0.06880
1239.87	0.05685
1236.78	0.04772
1233.69	0.04372
1230.6	0.04496
1227.51	0.05745
1224.42	0.06381
1221.33	0.07275
1218.24	0.10646
1215.16	0.09100
1212.07	0.06588
1208.98	0.06191
1205.89	0.07204
1202.8	0.09827
1199.71	0.13835
1196.62	0.15023
1193.53	0.10739
1190.44	0.07110
1187.35	0.06277
1184.26	0.08269
1181.17	0.07278
1178.08	0.06521
1174.99	0.08045
1171.9	0.10992
1168.81	0.11537
1165.73	0.11920
1162.64	0.12924
1159.55	0.16387
1156.46	0.25479
1153.37	0.28440
1150.28	0.26507
1147.19	0.34963
1144.1	0.37489
1141.01	0.29112
1137.92	0.25501
1134.83	0.24238
1131.74	0.19241
1128.65	0.15396
1125.56	0.12621
1122.47	0.10782
1119.38	0.09938
1116.3	0.10271
1113.21	0.12479
1110.12	0.14746
1107.03	0.13356
1103.94	0.11373
1100.85	0.10196
1097.76	0.12924
1094.67	0.12086
1091.58	0.08729
1088.49	0.07193
1085.4	0.07224
1082.31	0.09160
1079.22	0.12587
1076.13	0.11109
1073.04	0.08294
1069.95	0.06860
1066.87	0.06117
1063.78	0.06346
1060.69	0.07061
1057.6	0.06826
1054.51	0.07080
1051.42	0.09406
1048.33	0.16821
1045.24	0.29801
1042.15	0.28689
1039.06	0.21464
1035.97	0.17347
1032.88	0.13845
1029.79	0.10918
1026.7	0.09430
1023.61	0.09165
1020.52	0.10760
1017.44	0.16305
1014.35	0.27218
1011.26	0.28299
1008.17	0.19116
1005.08	0.13554
1001.99	0.13969
998.899	0.14021
995.809	0.10798
992.72	0.08897
989.631	0.08733
986.541	0.09362
983.452	0.10681
980.363	0.11861
977.273	0.10934
974.184	0.09936
971.094	0.10465
968.005	0.13022
964.916	0.11023
961.826	0.08006
958.737	0.06405
955.648	0.05485
952.558	0.04929
949.469	0.04561
946.379	0.04233
943.29	0.03965
940.201	0.03793
937.111	0.03690
934.022	0.03613
930.933	0.03764
927.843	0.04026
924.754	0.04998
921.664	0.08134
918.575	0.14670
915.486	0.12247
912.396	0.08962
909.307	0.08980
906.217	0.08782
903.128	0.11095
900.039	0.10759
896.949	0.07105
893.86	0.05484
890.771	0.04883
887.681	0.04804
884.592	0.05195
881.502	0.06182
878.413	0.05772
875.324	0.04758
872.234	0.04363
869.145	0.04449
866.056	0.05377
862.966	0.09238
859.877	0.23978
856.787	0.15609
853.698	0.10028
850.609	0.12463
847.519	0.11710
844.43	0.11547
841.341	0.16637
838.251	0.25481
835.162	0.22346
832.072	0.14605
828.983	0.10175
825.894	0.08381
822.804	0.07566
819.715	0.07098
816.626	0.06831
813.536	0.06796
810.447	0.06815
807.357	0.07123
804.268	0.08261
801.179	0.11151
798.089	0.10928
795	0.09573
791.911	0.08889
788.821	0.08370
785.732	0.08749
782.642	0.10120
779.553	0.11161
776.464	0.09956
773.374	0.09383
770.285	0.09826
767.195	0.11092
764.106	0.09782
761.017	0.08922
757.927	0.08724
754.838	0.08651
751.749	0.08914
748.659	0.09784
745.57	0.10322
742.48	0.09933
739.391	0.09914
736.302	0.10584
733.212	0.12654
730.123	0.16733
727.034	0.14638
723.944	0.12416
720.855	0.08146
717.765	0.07011
714.676	0.06859
711.587	0.06765
708.497	0.06730
705.408	0.06785
702.319	0.06730
699.229	0.06649
696.14	0.06737
693.05	0.06752
689.961	0.06888
686.872	0.06981
683.782	0.07131
680.693	0.07191
677.604	0.07337
674.514	0.07467
671.425	0.07469
668.335	0.07530
665.246	0.07512
662.157	0.07199
659.067	0.08757
655.978	0.15049
652.889	0.13136
649.799	0.12081
646.71	0.12246
643.62	0.12668
640.531	0.13094
637.442	0.13578
634.352	0.13968
631.263	0.14344
628.173	0.14695
625.084	0.14886
621.995	0.14755
618.905	0.14305
615.816	0.13086
612.727	0.11873
609.637	0.12058
606.548	0.13164
603.458	0.14203
600.369	0.15361
597.28	0.17547
594.19	0.21054
591.101	0.21378
588.012	0.19222
584.922	0.15429
581.833	0.14334
578.743	0.16713
575.654	0.19876
572.565	0.19233
569.475	0.18219
566.386	0.17318
563.297	0.16110
560.207	0.14993
557.118	0.13815
554.028	0.13038
550.939	0.12218
547.85	0.11539
544.76	0.11577
541.671	0.12462
538.582	0.15760
535.492	0.20123
532.403	0.19658
529.313	0.16368
526.224	0.14883
523.135	0.14919
520.045	0.13823
516.956	0.12194
513.867	0.11265
510.777	0.10518
507.688	0.09900
504.598	0.09395
501.509	0.09056
498.42	0.08879
495.33	0.08966
492.241	0.09688
489.151	0.11734
486.062	0.12615
482.973	0.10726
479.883	0.09451
476.794	0.08821
473.705	0.08513
470.615	0.08474
467.526	0.08151
464.436	0.08224
461.347	0.08704
458.258	0.09531
455.168	0.11871
452.079	0.13533
448.99	0.11921
445.9	0.11309
442.811	0.11832
439.721	0.14374
436.632	0.16053
433.543	0.17856
430.453	0.17802
427.364	0.16260
424.275	0.15097
421.185	0.14505
418.096	0.13944
415.006	0.13458
411.917	0.12912
408.828	0.13471
405.738	0.14153
402.649	0.14144
399.56	0.13834