File: FTIR/2023_06_07_CBN_powder.dpt
3998.68	0.04412
3995.6	0.04372
3992.51	0.04339
3989.42	0.04382
3986.33	0.04344
3983.24	0.04369
3980.15	0.04420
3977.06	0.04374
3973.97	0.04379
3970.88	0.04396
3967.79	0.04406
3964.7	0.04346
3961.61	0.04367
3958.52	0.04346
3955.43	0.04346
3952.34	0.04392
3949.25	0.04355
3946.17	0.04352
3943.08	0.04353
3939.99	0.04317
3936.9	0.04306
3933.81	0.04304
3930.72	0.04346
3927.63	0.04319
3924.54	0.04329
3921.45	0.04299
3918.36	0.04319
3915.27	0.04332
3912.18	0.04303
3909.09	0.04335
3906	0.04322
3902.91	0.04262
3899.82	0.04343
3896.74	0.04294
3893.65	0.04308
3890.56	0.04283
3887.47	0.04281
3884.38	0.04338
3881.29	0.04224
3878.2	0.04322
3875.11	0.04248
3872.02	0.04286
3868.93	0.04325
3865.84	0.04216
3862.75	0.04244
3859.66	0.04248
3856.57	0.04229
3853.48	0.04302
3850.39	0.04278
3847.31	0.04255
3844.22	0.04214
3841.13	0.04236
3838.04	0.04282
3834.95	0.04238
3831.86	0.04241
3828.77	0.04162
3825.68	0.04230
3822.59	0.04251
3819.5	0.04275
3816.41	0.04193
3813.32	0.04230
3810.23	0.04175
3807.14	0.04170
3804.05	0.04197
3800.96	0.04222
3797.88	0.04161
3794.79	0.04173
3791.7	0.04121
3788.61	0.04159
3785.52	0.04154
3782.43	0.04207
3779.34	0.04180
3776.25	0.04168
3773.16	0.04187
3770.07	0.04161
3766.98	0.04141
3763.89	0.04137
3760.8	0.04085
3757.71	0.04124
3754.62	0.04113
3751.53	0.04178
3748.45	0.04075
3745.36	0.04107
3742.27	0.04145
3739.18	0.04052
3736.09	0.03996
3733	0.04022
3729.91	0.04051
3726.82	0.03982
3723.73	0.04085
3720.64	0.04049
3717.55	0.04030
3714.46	0.04022
3711.37	0.04038
3708.28	0.04015
3705.19	0.03996
3702.1	0.03946
3699.01	0.03988
3695.93	0.04052
3692.84	0.04004
3689.75	0.04053
3686.66	0.04061
3683.57	0.03983
3680.48	0.04021
3677.39	0.04010
3674.3	0.04004
3671.21	0.04002
3668.12	0.04012
3665.03	0.03981
3661.94	0.03984
3658.85	0.03998
3655.76	0.03972
3652.67	0.04059
3649.58	0.04055
3646.5	0.03945
3643.41	0.04003
3640.32	0.04019
3637.23	0.04029
3634.14	0.03991
3631.05	0.03877
3627.96	0.03966
3624.87	0.03990
3621.78	0.03987
3618.69	0.03959
3615.6	0.03934
3612.51	0.03984
3609.42	0.04004
3606.33	0.04005
3603.24	0.03993
3600.15	0.03950
3597.07	0.03948
3593.98	0.03959
3590.89	0.03942
3587.8	0.04005
3584.71	0.03990
3581.62	0.03903
3578.53	0.04015
3575.44	0.03976
3572.35	0.04003
3569.26	0.04039
3566.17	0.03995
3563.08	0.04007
3559.99	0.03978
3556.9	0.03964
3553.81	0.04018
3550.72	0.04041
3547.64	0.04036
3544.55	0.04036
3541.46	0.04099
3538.37	0.04130
3535.28	0.04148
3532.19	0.04126
3529.1	0.04147
3526.01	0.04176
3522.92	0.04190
3519.83	0.04236
3516.74	0.04277
3513.65	0.04233
3510.56	0.04317
3507.47	0.04327
3504.38	0.04421
3501.29	0.04387
3498.21	0.04446
3495.12	0.04462
3492.03	0.04545
3488.94	0.04570
3485.85	0.04681
3482.76	0.04690
3479.67	0.04776
3476.58	0.04874
3473.49	0.04952
3470.4	0.05058
3467.31	0.05157
3464.22	0.05266
3461.13	0.05393
3458.04	0.05481
3454.95	0.05564
3451.86	0.05756
3448.78	0.05815
3445.69	0.05983
3442.6	0.06089
3439.51	0.06233
3436.42	0.06368
3433.33	0.06537
3430.24	0.06766
3427.15	0.06976
3424.06	0.07190
3420.97	0.07421
3417.88	0.07631
3414.79	0.07873
3411.7	0.08067
3408.61	0.08220
3405.52	0.08379
3402.43	0.08412
3399.35	0.08506
3396.26	0.08529
3393.17	0.08511
3390.08	0.08481
3386.99	0.08332
3383.9	0.08214
3380.81	0.08088
3377.72	0.07982
3374.63	0.07832
3371.54	0.07764
3368.45	0.07594
3365.36	0.07537
3362.27	0.07395
3359.18	0.07344
3356.09	0.07190
3353	0.07094
3349.92	0.07046
3346.83	0.07019
3343.74	0.06964
3340.65	0.06914
3337.56	0.06903
3334.47	0.06870
3331.38	0.06880
3328.29	0.06861
3325.2	0.06886
3322.11	0.06857
3319.02	0.06913
3315.93	0.06935
3312.84	0.06993
3309.75	0.07077
3306.66	0.07085
3303.57	0.07145
3300.49	0.07244
3297.4	0.07236
3294.31	0.07349
3291.22	0.07369
3288.13	0.07484
3285.04	0.07590
3281.95	0.07662
3278.86	0.07760
3275.77	0.07827
3272.68	0.07917
3269.59	0.07999
3266.5	0.08070
3263.41	0.08156
3260.32	0.08273
3257.23	0.08347
3254.14	0.08427
3251.06	0.08494
3247.97	0.08613
3244.88	0.08629
3241.79	0.08732
3238.7	0.08734
3235.61	0.08791
3232.52	0.08902
3229.43	0.08919
3226.34	0.08906
3223.25	0.08936
3220.16	0.08925
3217.07	0.08930
3213.98	0.08865
3210.89	0.08859
3207.8	0.08785
3204.71	0.08703
3201.63	0.08624
3198.54	0.08529
3195.45	0.08443
3192.36	0.08352
3189.27	0.08239
3186.18	0.08122
3183.09	0.08013
3180	0.07907
3176.91	0.07787
3173.82	0.07620
3170.73	0.07481
3167.64	0.07386
3164.55	0.07255
3161.46	0.07140
3158.37	0.07050
3155.28	0.06886
3152.2	0.06800
3149.11	0.06692
3146.02	0.06621
3142.93	0.06489
3139.84	0.06426
3136.75	0.06278
3133.66	0.06222
3130.57	0.06167
3127.48	0.06027
3124.39	0.06018
3121.3	0.05989
3118.21	0.05911
3115.12	0.05843
3112.03	0.05750
3108.94	0.05654
3105.85	0.05591
3102.77	0.05504
3099.68	0.05449
3096.59	0.05429
3093.5	0.05333
3090.41	0.05395
3087.32	0.05470
3084.23	0.05375
3081.14	0.05393
3078.05	0.05383
3074.96	0.05306
3071.87	0.05278
3068.78	0.05274
3065.69	0.05237
3062.6	0.05250
3059.51	0.05205
3056.42	0.05260
3053.34	0.05245
3050.25	0.05196
3047.16	0.05188
3044.07	0.05182
3040.98	0.05218
3037.89	0.05226
3034.8	0.05322
3031.71	0.05388
3028.62	0.05354
3025.53	0.05203
3022.44	0.05046
3019.35	0.04995
3016.26	0.04845
3013.17	0.04814
3010.08	0.04820
3006.99	0.04817
3003.91	0.04959
3000.82	0.05093
2997.73	0.05399
2994.64	0.05753
2991.55	0.06020
2988.46	0.06118
2985.37	0.06322
2982.28	0.06944
2979.19	0.07912
2976.1	0.07999
2973.01	0.08497
2969.92	0.09768
2966.83	0.10062
2963.74	0.10522
2960.65	0.11222
2957.56	0.11195
2954.47	0.10130
2951.39	0.09143
2948.3	0.08619
2945.21	0.08720
2942.12	0.09239
2939.03	0.09946
2935.94	0.11289
2932.85	0.13284
2929.76	0.15472
2926.67	0.17047
2923.58	0.17159
2920.49	0.16301
2917.4	0.15077
2914.31	0.13781
2911.22	0.12688
2908.13	0.11849
2905.04	0.11177
2901.96	0.10586
2898.87	0.09987
2895.78	0.09530
2892.69	0.09089
2889.6	0.08734
2886.51	0.08408
2883.42	0.08124
2880.33	0.08082
2877.24	0.08455
2874.15	0.09225
2871.06	0.09541
2867.97	0.09319
2864.88	0.09275
2861.79	0.10278
2858.7	0.12176
2855.61	0.13524
2852.53	0.13861
2849.44	0.13336
2846.35	0.11627
2843.26	0.10105
2840.17	0.09023
2837.08	0.08277
2833.99	0.07806
2830.9	0.07424
2827.81	0.07146
2824.72	0.06918
2821.63	0.06738
2818.54	0.06568
2815.45	0.06430
2812.36	0.06355
2809.27	0.06209
2806.18	0.06128
2803.1	0.06055
2800.01	0.05965
2796.92	0.05918
2793.83	0.05839
2790.74	0.05781
2787.65	0.05713
2784.56	0.05662
2781.47	0.05606
2778.38	0.05560
2775.29	0.05517
2772.2	0.05474
2769.11	0.05471
2766.02	0.05460
2762.93	0.05436
2759.84	0.05416
2756.75	0.05432
2753.67	0.05362
2750.58	0.05359
2747.49	0.05395
2744.4	0.05398
2741.31	0.05421
2738.22	0.05445
2735.13	0.05464
2732.04	0.05534
2728.95	0.05568
2725.86	0.05552
2722.77	0.05504
2719.68	0.05430
2716.59	0.05423
2713.5	0.05361
2710.41	0.05363
2707.32	0.05355
2704.24	0.05351
2701.15	0.05336
2698.06	0.05292
2694.97	0.05269
2691.88	0.05256
2688.79	0.05224
2685.7	0.05203
2682.61	0.05198
2679.52	0.05170
2676.43	0.05143
2673.34	0.05170
2670.25	0.05204
2667.16	0.05216
2664.07	0.05204
2660.98	0.05220
2657.89	0.05229
2654.81	0.05226
2651.72	0.05233
2648.63	0.05200
2645.54	0.05170
2642.45	0.05175
2639.36	0.05124
2636.27	0.05127
2633.18	0.05069
2630.09	0.05036
2627	0.05018
2623.91	0.04950
2620.82	0.04941
2617.73	0.04861
2614.64	0.04882
2611.55	0.04852
2608.46	0.04793
2605.38	0.04838
2602.29	0.04843
2599.2	0.04833
2596.11	0.04842
2593.02	0.04820
2589.93	0.04890
2586.84	0.04823
2583.75	0.04883
2580.66	0.04835
2577.57	0.04798
2574.48	0.04777
2571.39	0.04767
2568.3	0.04767
2565.21	0.04814
2562.12	0.04780
2559.03	0.04669
2555.95	0.04687
2552.86	0.04655
2549.77	0.04656
2546.68	0.04645
2543.59	0.04641
2540.5	0.04624
2537.41	0.04690
2534.32	0.04647
2531.23	0.04657
2528.14	0.04612
2525.05	0.04608
2521.96	0.04599
2518.87	0.04584
2515.78	0.04605
2512.69	0.04585
2509.6	0.04620
2506.52	0.04575
2503.43	0.04511
2500.34	0.04504
2497.25	0.04504
2494.16	0.04452
2491.07	0.04475
2487.98	0.04443
2484.89	0.04465
2481.8	0.04456
2478.71	0.04421
2475.62	0.04423
2472.53	0.04421
2469.44	0.04433
2466.35	0.04356
2463.26	0.04383
2460.17	0.04382
2457.09	0.04382
2454	0.04389
2450.91	0.04406
2447.82	0.04393
2444.73	0.04384
2441.64	0.04314
2438.55	0.04292
2435.46	0.04361
2432.37	0.04341
2429.28	0.04368
2426.19	0.04290
2423.1	0.04274
2420.01	0.04304
2416.92	0.04322
2413.83	0.04311
2410.74	0.04296
2407.66	0.04331
2404.57	0.04333
2401.48	0.04315
2398.39	0.04279
2395.3	0.04365
2392.21	0.04286
2389.12	0.04273
2386.03	0.04311
2382.94	0.04288
2379.85	0.04309
2376.76	0.04279
2373.67	0.04294
2370.58	0.04357
2367.49	0.04303
2364.4	0.04275
2361.31	0.04425
2358.23	0.04320
2355.14	0.04348
2352.05	0.04431
2348.96	0.04364
2345.87	0.04372
2342.78	0.04387
2339.69	0.04352
2336.6	0.04350
2333.51	0.04320
2330.42	0.04328
2327.33	0.04400
2324.24	0.04408
2321.15	0.04315
2318.06	0.04285
2314.97	0.04233
2311.88	0.04245
2308.8	0.04199
2305.71	0.04179
2302.62	0.04180
2299.53	0.04191
2296.44	0.04154
2293.35	0.04112
2290.26	0.04144
2287.17	0.04135
2284.08	0.04118
2280.99	0.04016
2277.9	0.03956
2274.81	0.03947
2271.72	0.03940
2268.63	0.03919
2265.54	0.03842
2262.45	0.03764
2259.36	0.03715
2256.28	0.03684
2253.19	0.03705
2250.1	0.03736
2247.01	0.03683
2243.92	0.03757
2240.83	0.03704
2237.74	0.03676
2234.65	0.03546
2231.56	0.03604
2228.47	0.03555
2225.38	0.03563
2222.29	0.03631
2219.2	0.03576
2216.11	0.03369
2213.02	0.03374
2209.93	0.03499
2206.85	0.03401
2203.76	0.03489
2200.67	0.03407
2197.58	0.03311
2194.49	0.03529
2191.4	0.03353
2188.31	0.03196
2185.22	0.03390
2182.13	0.03211
2179.04	0.03326
2175.95	0.03103
2172.86	0.03223
2169.77	0.03294
2166.68	0.03238
2163.59	0.03087
2160.5	0.03051
2157.42	0.02713
2154.33	0.02994
2151.24	0.03078
2148.15	0.03179
2145.06	0.03070
2141.97	0.03227
2138.88	0.03272
2135.79	0.03297
2132.7	0.03266
2129.61	0.03381
2126.52	0.03441
2123.43	0.03518
2120.34	0.03494
2117.25	0.03566
2114.16	0.03561
2111.07	0.03417
2107.99	0.03597
2104.9	0.03479
2101.81	0.03445
2098.72	0.03501
2095.63	0.03394
2092.54	0.03404
2089.45	0.03428
2086.36	0.03523
2083.27	0.03514
2080.18	0.03473
2077.09	0.03373
2074	0.03455
2070.91	0.03327
2067.82	0.03352
2064.73	0.03260
2061.64	0.03319
2058.56	0.03318
2055.47	0.03283
2052.38	0.03318
2049.29	0.03107
2046.2	0.03153
2043.11	0.03005
2040.02	0.03025
2036.93	0.03050
2033.84	0.02775
2030.75	0.02819
2027.66	0.02983
2024.57	0.03061
2021.48	0.02918
2018.39	0.02766
2015.3	0.02832
2012.21	0.02851
2009.13	0.02817
2006.04	0.02770
2002.95	0.02897
1999.86	0.03010
1996.77	0.02866
1993.68	0.03142
1990.59	0.02937
1987.5	0.03016
1984.41	0.03034
1981.32	0.02920
1978.23	0.02913
1975.14	0.02738
1972.05	0.02933
1968.96	0.02871
1965.87	0.02873
1962.78	0.02891
1959.7	0.02836
1956.61	0.03035
1953.52	0.03128
1950.43	0.03021
1947.34	0.03063
1944.25	0.03132
1941.16	0.03295
1938.07	0.03080
1934.98	0.03305
1931.89	0.03220
1928.8	0.03406
1925.71	0.03281
1922.62	0.03321
1919.53	0.03352
1916.44	0.03397
1913.35	0.03374
1910.27	0.03622
1907.18	0.03773
1904.09	0.03647
1901	0.03536
1897.91	0.03468
1894.82	0.03569
1891.73	0.03569
1888.64	0.03440
1885.55	0.03434
1882.46	0.03407
1879.37	0.03439
1876.28	0.03423
1873.19	0.03347
1870.1	0.03410
1867.01	0.03444
1863.92	0.03401
1860.84	0.03461
1857.75	0.03467
1854.66	0.03494
1851.57	0.03486
1848.48	0.03508
1845.39	0.03576
1842.3	0.03619
1839.21	0.03466
1836.12	0.03468
1833.03	0.03446
1829.94	0.03408
1826.85	0.03415
1823.76	0.03435
1820.67	0.03446
1817.58	0.03411
1814.49	0.03437
1811.41	0.03451
1808.32	0.03417
1805.23	0.03399
1802.14	0.03413
1799.05	0.03474
1795.96	0.03490
1792.87	0.03539
1789.78	0.03503
1786.69	0.03452
1783.6	0.03426
1780.51	0.03376
1777.42	0.03477
1774.33	0.03590
1771.24	0.03600
1768.15	0.03495
1765.06	0.03473
1761.98	0.03483
1758.89	0.03574
1755.8	0.03484
1752.71	0.03412
1749.62	0.03382
1746.53	0.03377
1743.44	0.03406
1740.35	0.03370
1737.26	0.03348
1734.17	0.03384
1731.08	0.03391
1727.99	0.03404
1724.9	0.03434
1721.81	0.03477
1718.72	0.03489
1715.63	0.03490
1712.55	0.03554
1709.46	0.03573
1706.37	0.03524
1703.28	0.03532
1700.19	0.03430
1697.1	0.03447
1694.01	0.03423
1690.92	0.03424
1687.83	0.03460
1684.74	0.03402
1681.65	0.03419
1678.56	0.03377
1675.47	0.03309
1672.38	0.03319
1669.29	0.03274
1666.2	0.03245
1663.12	0.03251
1660.03	0.03201
1656.94	0.03219
1653.85	0.03139
1650.76	0.03229
1647.67	0.03306
1644.58	0.03460
1641.49	0.03696
1638.4	0.03930
1635.31	0.04170
1632.22	0.05169
1629.13	0.07728
1626.04	0.12452
1622.95	0.16318
1619.86	0.17860
1616.77	0.15698
1613.68	0.13724
1610.6	0.14876
1607.51	0.14508
1604.42	0.12292
1601.33	0.10084
1598.24	0.08585
1595.15	0.08046
1592.06	0.08805
1588.97	0.11359
1585.88	0.14615
1582.79	0.16173
1579.7	0.15690
1576.61	0.14138
1573.52	0.12414
1570.43	0.11456
1567.34	0.10873
1564.25	0.09509
1561.17	0.07989
1558.08	0.06907
1554.99	0.06303
1551.9	0.05958
1548.81	0.05711
1545.72	0.05500
1542.63	0.05344
1539.54	0.05098
1536.45	0.05020
1533.36	0.04826
1530.27	0.04757
1527.18	0.04715
1524.09	0.04788
1521	0.04962
1517.91	0.05185
1514.82	0.05716
1511.74	0.06193
1508.65	0.06288
1505.56	0.06270
1502.47	0.06371
1499.38	0.07591
1496.29	0.11301
1493.2	0.10809
1490.11	0.08292
1487.02	0.06766
1483.93	0.05932
1480.84	0.05500
1477.75	0.05298
1474.66	0.05396
1471.57	0.06111
1468.48	0.08655
1465.39	0.11072
1462.31	0.10269
1459.22	0.10308
1456.13	0.10256
1453.04	0.09441
1449.95	0.09562
1446.86	0.09942
1443.77	0.10861
1440.68	0.11977
1437.59	0.12515
1434.5	0.13538
1431.41	0.15220
1428.32	0.16029
1425.23	0.15223
1422.14	0.14050
1419.05	0.12887
1415.96	0.11817
1412.88	0.11180
1409.79	0.11598
1406.7	0.13428
1403.61	0.16626
1400.52	0.18974
1397.43	0.18883
1394.34	0.16261
1391.25	0.13607
1388.16	0.12988
1385.07	0.14009
1381.98	0.12082
1378.89	0.12445
1375.8	0.12150
1372.71	0.09737
1369.62	0.09332
1366.53	0.12123
1363.45	0.13154
1360.36	0.16107
1357.27	0.15594
1354.18	0.13307
1351.09	0.12657
1348	0.13107
1344.91	0.13152
1341.82	0.12115
1338.73	0.10562
1335.64	0.09747
1332.55	0.10298
1329.46	0.10878
1326.37	0.10654
1323.28	0.09879
1320.19	0.09417
1317.1	0.08830
1314.02	0.08036
1310.93	0.07929
1307.84	0.08836
1304.75	0.10860
1301.66	0.14594
1298.57	0.14883
1295.48	0.13287
1292.39	0.12676
1289.3	0.11477
1286.21	0.12481
1283.12	0.14547
1280.03	0.14049
1276.94	0.11382
1273.85	0.09588
1270.76	0.08460
1267.67	0.07795
1264.59	0.07551
1261.5	0.07138
1258.41	0.06746
1255.32	0.06598
1252.23	0.06703
1249.14	0.07376
1246.05	0.08984
1242.96	0.10629
1239.87	0.11511
1236.78	0.13536
1233.69	0.15934
1230.6	0.15312
1227.51	0.12816
1224.42	0.11155
1221.33	0.10362
1218.24	0.10714
1215.16	0.11964
1212.07	0.11973
1208.98	0.10097
1205.89	0.08880
1202.8	0.09419
1199.71	0.11805
1196.62	0.15249
1193.53	0.17833
1190.44	0.16456
1187.35	0.13235
1184.26	0.10378
1181.17	0.08721
1178.08	0.07849
1174.99	0.07273
1171.9	0.06948
1168.81	0.06761
1165.73	0.06783
1162.64	0.07271
1159.55	0.09153
1156.46	0.14207
1153.37	0.17393
1150.28	0.12426
1147.19	0.08579
1144.1	0.07347
1141.01	0.07021
1137.92	0.07338
1134.83	0.09004
1131.74	0.14044
1128.65	0.20448
1125.56	0.20628
1122.47	0.17076
1119.38	0.12689
1116.3	0.11006
1113.21	0.10691
1110.12	0.09572
1107.03	0.08714
1103.94	0.09595
1100.85	0.13858
1097.76	0.15212
1094.67	0.11345
1091.58	0.08493
1088.49	0.07249
1085.4	0.06702
1082.31	0.06391
1079.22	0.06252
1076.13	0.06203
1073.04	0.06334
1069.95	0.06742
1066.87	0.07338
1063.78	0.08177
1060.69	0.10573
1057.6	0.16096
1054.51	0.23667
1051.42	0.26573
1048.33	0.27522
1045.24	0.24704
1042.15	0.19454
1039.06	0.15331
1035.97	0.14562
1032.88	0.14996
1029.79	0.18495
1026.7	0.25768
1023.61	0.23973
1020.52	0.17931
1017.44	0.13719
1014.35	0.11332
1011.26	0.10152
1008.17	0.10810
1005.08	0.13340
1001.99	0.14709
998.899	0.13599
995.809	0.12571
992.72	0.12017
989.631	0.10448
986.541	0.09085
983.452	0.08283
980.363	0.07877
977.273	0.07835
974.184	0.07805
971.094	0.07659
968.005	0.07566
964.916	0.07637
961.826	0.08261
958.737	0.07478
955.648	0.06594
952.558	0.06040
949.469	0.06083
946.379	0.06427
943.29	0.06171
940.201	0.06705
937.111	0.07136
934.022	0.07488
930.933	0.08036
927.843	0.07345
924.754	0.07505
921.664	0.09032
918.575	0.08226
915.486	0.06529
912.396	0.05753
909.307	0.05390
906.217	0.05485
903.128	0.06310
900.039	0.08722
896.949	0.08718
893.86	0.06908
890.771	0.09019
887.681	0.08328
884.592	0.06021
881.502	0.05889
878.413	0.06564
875.324	0.09742
872.234	0.15105
869.145	0.19091
866.056	0.16359
862.966	0.13182
859.877	0.09963
856.787	0.09195
853.698	0.11918
850.609	0.14569
847.519	0.16937
844.43	0.13363
841.341	0.11070
838.251	0.11310
835.162	0.15348
832.072	0.17124
828.983	0.14187
825.894	0.09736
822.804	0.10365
819.715	0.21427
816.626	0.21755
813.536	0.23200
810.447	0.12974
807.357	0.09525
804.268	0.08149
801.179	0.07406
798.089	0.06928
795	0.06620
791.911	0.06312
788.821	0.06093
785.732	0.05933
782.642	0.05760
779.553	0.05808
776.464	0.06600
773.374	0.08723
770.285	0.06548
767.195	0.06136
764.106	0.06097
761.017	0.06776
757.927	0.07200
754.838	0.06329
751.749	0.05894
748.659	0.05852
745.57	0.05982
742.48	0.06289
739.391	0.07278
736.302	0.11130
733.212	0.12771
730.123	0.11762
727.034	0.13032
723.944	0.09537
720.855	0.08083
717.765	0.08739
714.676	0.10877
711.587	0.10218
708.497	0.08868
705.408	0.08504
702.319	0.09145
699.229	0.10031
696.14	0.10295
693.05	0.09007
689.961	0.10009
686.872	0.11554
683.782	0.09793
680.693	0.09386
677.604	0.09813
674.514	0.11201
671.425	0.12948
668.335	0.12550
665.246	0.11523
662.157	0.12304
659.067	0.12113
655.978	0.10298
652.889	0.09462
649.799	0.09016
646.71	0.08765
643.62	0.08532
640.531	0.08329
637.442	0.08146
634.352	0.08171
631.263	0.08131
628.173	0.08276
625.084	0.08946
621.995	0.10288
618.905	0.11365
615.816	0.10056
612.727	0.08343
609.637	0.08138
606.548	0.10678
603.458	0.13645
600.369	0.14621
597.28	0.14672
594.19	0.14619
591.101	0.14106
588.012	0.12952
584.922	0.12166
581.833	0.12229
578.743	0.13192
575.654	0.16310
572.565	0.13575
569.475	0.11321
566.386	0.10520
563.297	0.12000
560.207	0.14437
557.118	0.14057
554.028	0.12302
550.939	0.12349
547.85	0.15014
544.76	0.16455
541.671	0.14794
538.582	0.13171
535.492	0.12912
532.403	0.14992
529.313	0.15839
526.224	0.13357
523.135	0.11317
520.045	0.10053
516.956	0.09621
513.867	0.09121
510.777	0.09048
507.688	0.09419
504.598	0.09685
501.509	0.08765
498.42	0.08147
495.33	0.08439
492.241	0.09262
489.151	0.09055
486.062	0.08172
482.973	0.07705
479.883	0.07506
476.794	0.07067
473.705	0.06997
470.615	0.06687
467.526	0.06391
464.436	0.06356
461.347	0.06140
458.258	0.06300
455.168	0.06532
452.079	0.06350
448.99	0.05922
445.9	0.05777
442.811	0.05889
439.721	0.06419
436.632	0.06338
433.543	0.05752
430.453	0.05643
427.364	0.05523
424.275	0.05262
421.185	0.04868
418.096	0.05190
415.006	0.05438
411.917	0.06677
408.828	0.08106
405.738	0.06666
402.649	0.05814
399.56	0.05380