File: FTIR/2023_06_07_CBD_powder.dpt
3998.68	0.02431
3995.6	0.02366
3992.51	0.02371
3989.42	0.02462
3986.33	0.02391
3983.24	0.02401
3980.15	0.02394
3977.06	0.02388
3973.97	0.02447
3970.88	0.02383
3967.79	0.02445
3964.7	0.02408
3961.61	0.02372
3958.52	0.02425
3955.43	0.02413
3952.34	0.02397
3949.25	0.02447
3946.17	0.02433
3943.08	0.02431
3939.99	0.02425
3936.9	0.02413
3933.81	0.02446
3930.72	0.02436
3927.63	0.02402
3924.54	0.02449
3921.45	0.02431
3918.36	0.02447
3915.27	0.02465
3912.18	0.02425
3909.09	0.02385
3906	0.02381
3902.91	0.02329
3899.82	0.02361
3896.74	0.02373
3893.65	0.02374
3890.56	0.02389
3887.47	0.02372
3884.38	0.02368
3881.29	0.02342
3878.2	0.02353
3875.11	0.02387
3872.02	0.02368
3868.93	0.02374
3865.84	0.02377
3862.75	0.02306
3859.66	0.02394
3856.57	0.02307
3853.48	0.02341
3850.39	0.02397
3847.31	0.02305
3844.22	0.02311
3841.13	0.02396
3838.04	0.02360
3834.95	0.02331
3831.86	0.02305
3828.77	0.02289
3825.68	0.02305
3822.59	0.02332
3819.5	0.02290
3816.41	0.02271
3813.32	0.02352
3810.23	0.02340
3807.14	0.02311
3804.05	0.02270
3800.96	0.02287
3797.88	0.02365
3794.79	0.02298
3791.7	0.02308
3788.61	0.02281
3785.52	0.02270
3782.43	0.02298
3779.34	0.02291
3776.25	0.02236
3773.16	0.02304
3770.07	0.02327
3766.98	0.02267
3763.89	0.02304
3760.8	0.02289
3757.71	0.02310
3754.62	0.02278
3751.53	0.02353
3748.45	0.02219
3745.36	0.02280
3742.27	0.02229
3739.18	0.02230
3736.09	0.02264
3733	0.02246
3729.91	0.02196
3726.82	0.02165
3723.73	0.02264
3720.64	0.02154
3717.55	0.02285
3714.46	0.02261
3711.37	0.02258
3708.28	0.02221
3705.19	0.02222
3702.1	0.02219
3699.01	0.02188
3695.93	0.02212
3692.84	0.02219
3689.75	0.02163
3686.66	0.02159
3683.57	0.02194
3680.48	0.02205
3677.39	0.02205
3674.3	0.02146
3671.21	0.02169
3668.12	0.02128
3665.03	0.02175
3661.94	0.02177
3658.85	0.02200
3655.76	0.02085
3652.67	0.02134
3649.58	0.02161
3646.5	0.02142
3643.41	0.02172
3640.32	0.02178
3637.23	0.02170
3634.14	0.02125
3631.05	0.02158
3627.96	0.02149
3624.87	0.02147
3621.78	0.02195
3618.69	0.02137
3615.6	0.02122
3612.51	0.02130
3609.42	0.02141
3606.33	0.02184
3603.24	0.02152
3600.15	0.02169
3597.07	0.02160
3593.98	0.02159
3590.89	0.02153
3587.8	0.02183
3584.71	0.02203
3581.62	0.02230
3578.53	0.02227
3575.44	0.02203
3572.35	0.02193
3569.26	0.02219
3566.17	0.02218
3563.08	0.02252
3559.99	0.02345
3556.9	0.02359
3553.81	0.02388
3550.72	0.02491
3547.64	0.02556
3544.55	0.02672
3541.46	0.02899
3538.37	0.03129
3535.28	0.03489
3532.19	0.04009
3529.1	0.04915
3526.01	0.06378
3522.92	0.07889
3519.83	0.08725
3516.74	0.08613
3513.65	0.07730
3510.56	0.06673
3507.47	0.05881
3504.38	0.05332
3501.29	0.04932
3498.21	0.04809
3495.12	0.04721
3492.03	0.04734
3488.94	0.04796
3485.85	0.04869
3482.76	0.04926
3479.67	0.05128
3476.58	0.05329
3473.49	0.05570
3470.4	0.05779
3467.31	0.06064
3464.22	0.06334
3461.13	0.06706
3458.04	0.06990
3454.95	0.07335
3451.86	0.07661
3448.78	0.07974
3445.69	0.08312
3442.6	0.08635
3439.51	0.08858
3436.42	0.09221
3433.33	0.09470
3430.24	0.09774
3427.15	0.10031
3424.06	0.10391
3420.97	0.10816
3417.88	0.11361
3414.79	0.11888
3411.7	0.12414
3408.61	0.12868
3405.52	0.12969
3402.43	0.12598
3399.35	0.11887
3396.26	0.10941
3393.17	0.09936
3390.08	0.09064
3386.99	0.08339
3383.9	0.07711
3380.81	0.07202
3377.72	0.06726
3374.63	0.06418
3371.54	0.06081
3368.45	0.05763
3365.36	0.05514
3362.27	0.05278
3359.18	0.05086
3356.09	0.04851
3353	0.04717
3349.92	0.04558
3346.83	0.04397
3343.74	0.04271
3340.65	0.04138
3337.56	0.04092
3334.47	0.03948
3331.38	0.03863
3328.29	0.03750
3325.2	0.03708
3322.11	0.03595
3319.02	0.03572
3315.93	0.03493
3312.84	0.03459
3309.75	0.03375
3306.66	0.03348
3303.57	0.03278
3300.49	0.03218
3297.4	0.03199
3294.31	0.03113
3291.22	0.03096
3288.13	0.03010
3285.04	0.02988
3281.95	0.02968
3278.86	0.02966
3275.77	0.02882
3272.68	0.02864
3269.59	0.02833
3266.5	0.02830
3263.41	0.02834
3260.32	0.02824
3257.23	0.02806
3254.14	0.02775
3251.06	0.02754
3247.97	0.02760
3244.88	0.02723
3241.79	0.02730
3238.7	0.02684
3235.61	0.02698
3232.52	0.02711
3229.43	0.02654
3226.34	0.02670
3223.25	0.02660
3220.16	0.02666
3217.07	0.02681
3213.98	0.02633
3210.89	0.02648
3207.8	0.02643
3204.71	0.02641
3201.63	0.02653
3198.54	0.02681
3195.45	0.02668
3192.36	0.02608
3189.27	0.02592
3186.18	0.02589
3183.09	0.02582
3180	0.02593
3176.91	0.02510
3173.82	0.02552
3170.73	0.02556
3167.64	0.02548
3164.55	0.02527
3161.46	0.02515
3158.37	0.02536
3155.28	0.02531
3152.2	0.02562
3149.11	0.02508
3146.02	0.02512
3142.93	0.02526
3139.84	0.02560
3136.75	0.02486
3133.66	0.02591
3130.57	0.02547
3127.48	0.02534
3124.39	0.02522
3121.3	0.02538
3118.21	0.02563
3115.12	0.02539
3112.03	0.02551
3108.94	0.02587
3105.85	0.02527
3102.77	0.02525
3099.68	0.02507
3096.59	0.02560
3093.5	0.02577
3090.41	0.02577
3087.32	0.02586
3084.23	0.02647
3081.14	0.02824
3078.05	0.03340
3074.96	0.03999
3071.87	0.03830
3068.78	0.03222
3065.69	0.02861
3062.6	0.02796
3059.51	0.02712
3056.42	0.02665
3053.34	0.02650
3050.25	0.02655
3047.16	0.02682
3044.07	0.02742
3040.98	0.02756
3037.89	0.02802
3034.8	0.02923
3031.71	0.03001
3028.62	0.02954
3025.53	0.02815
3022.44	0.02752
3019.35	0.02699
3016.26	0.02706
3013.17	0.02742
3010.08	0.02776
3006.99	0.02830
3003.91	0.02873
3000.82	0.02918
2997.73	0.03013
2994.64	0.03049
2991.55	0.03196
2988.46	0.03382
2985.37	0.03453
2982.28	0.03616
2979.19	0.03968
2976.1	0.04475
2973.01	0.05472
2969.92	0.06686
2966.83	0.07728
2963.74	0.08014
2960.65	0.07902
2957.56	0.07490
2954.47	0.06837
2951.39	0.06327
2948.3	0.06278
2945.21	0.07035
2942.12	0.08161
2939.03	0.08873
2935.94	0.09743
2932.85	0.10921
2929.76	0.12192
2926.67	0.13486
2923.58	0.13959
2920.49	0.13696
2917.4	0.13521
2914.31	0.13248
2911.22	0.12474
2908.13	0.11356
2905.04	0.10300
2901.96	0.09541
2898.87	0.09058
2895.78	0.08304
2892.69	0.07592
2889.6	0.07144
2886.51	0.06934
2883.42	0.06843
2880.33	0.06814
2877.24	0.06974
2874.15	0.07335
2871.06	0.07636
2867.97	0.07382
2864.88	0.07221
2861.79	0.07943
2858.7	0.09713
2855.61	0.11508
2852.53	0.10725
2849.44	0.08792
2846.35	0.07146
2843.26	0.06028
2840.17	0.05440
2837.08	0.05206
2833.99	0.05575
2830.9	0.06769
2827.81	0.07268
2824.72	0.05937
2821.63	0.04891
2818.54	0.04396
2815.45	0.04109
2812.36	0.03922
2809.27	0.03773
2806.18	0.03701
2803.1	0.03582
2800.01	0.03473
2796.92	0.03441
2793.83	0.03383
2790.74	0.03327
2787.65	0.03285
2784.56	0.03234
2781.47	0.03184
2778.38	0.03153
2775.29	0.03104
2772.2	0.03104
2769.11	0.03049
2766.02	0.03063
2762.93	0.03034
2759.84	0.02988
2756.75	0.02965
2753.67	0.02928
2750.58	0.02926
2747.49	0.02922
2744.4	0.02932
2741.31	0.02970
2738.22	0.02977
2735.13	0.03025
2732.04	0.03103
2728.95	0.03199
2725.86	0.03178
2722.77	0.03096
2719.68	0.02992
2716.59	0.02960
2713.5	0.02923
2710.41	0.02896
2707.32	0.02839
2704.24	0.02817
2701.15	0.02848
2698.06	0.02807
2694.97	0.02826
2691.88	0.02811
2688.79	0.02836
2685.7	0.02817
2682.61	0.02835
2679.52	0.02845
2676.43	0.02872
2673.34	0.02902
2670.25	0.02879
2667.16	0.02884
2664.07	0.02883
2660.98	0.02900
2657.89	0.02900
2654.81	0.02854
2651.72	0.02834
2648.63	0.02823
2645.54	0.02801
2642.45	0.02782
2639.36	0.02752
2636.27	0.02756
2633.18	0.02758
2630.09	0.02743
2627	0.02736
2623.91	0.02736
2620.82	0.02708
2617.73	0.02685
2614.64	0.02680
2611.55	0.02686
2608.46	0.02692
2605.38	0.02638
2602.29	0.02673
2599.2	0.02672
2596.11	0.02611
2593.02	0.02689
2589.93	0.02636
2586.84	0.02619
2583.75	0.02599
2580.66	0.02659
2577.57	0.02608
2574.48	0.02636
2571.39	0.02615
2568.3	0.02605
2565.21	0.02574
2562.12	0.02592
2559.03	0.02608
2555.95	0.02622
2552.86	0.02559
2549.77	0.02558
2546.68	0.02557
2543.59	0.02500
2540.5	0.02557
2537.41	0.02505
2534.32	0.02577
2531.23	0.02589
2528.14	0.02589
2525.05	0.02592
2521.96	0.02595
2518.87	0.02532
2515.78	0.02519
2512.69	0.02597
2509.6	0.02587
2506.52	0.02590
2503.43	0.02585
2500.34	0.02530
2497.25	0.02546
2494.16	0.02540
2491.07	0.02627
2487.98	0.02516
2484.89	0.02559
2481.8	0.02535
2478.71	0.02562
2475.62	0.02541
2472.53	0.02594
2469.44	0.02522
2466.35	0.02554
2463.26	0.02586
2460.17	0.02557
2457.09	0.02609
2454	0.02609
2450.91	0.02607
2447.82	0.02538
2444.73	0.02525
2441.64	0.02500
2438.55	0.02533
2435.46	0.02455
2432.37	0.02450
2429.28	0.02416
2426.19	0.02421
2423.1	0.02409
2420.01	0.02398
2416.92	0.02429
2413.83	0.02438
2410.74	0.02424
2407.66	0.02442
2404.57	0.02366
2401.48	0.02429
2398.39	0.02393
2395.3	0.02410
2392.21	0.02428
2389.12	0.02464
2386.03	0.02441
2382.94	0.02452
2379.85	0.02490
2376.76	0.02436
2373.67	0.02474
2370.58	0.02456
2367.49	0.02464
2364.4	0.02492
2361.31	0.02450
2358.23	0.02461
2355.14	0.02528
2352.05	0.02524
2348.96	0.02520
2345.87	0.02508
2342.78	0.02470
2339.69	0.02500
2336.6	0.02460
2333.51	0.02467
2330.42	0.02418
2327.33	0.02493
2324.24	0.02552
2321.15	0.02507
2318.06	0.02428
2314.97	0.02423
2311.88	0.02396
2308.8	0.02422
2305.71	0.02372
2302.62	0.02412
2299.53	0.02459
2296.44	0.02399
2293.35	0.02395
2290.26	0.02391
2287.17	0.02353
2284.08	0.02364
2280.99	0.02298
2277.9	0.02314
2274.81	0.02203
2271.72	0.02246
2268.63	0.02270
2265.54	0.02217
2262.45	0.02225
2259.36	0.02159
2256.28	0.02165
2253.19	0.02182
2250.1	0.02106
2247.01	0.02231
2243.92	0.02162
2240.83	0.02164
2237.74	0.02254
2234.65	0.02099
2231.56	0.02074
2228.47	0.02046
2225.38	0.02232
2222.29	0.02109
2219.2	0.02086
2216.11	0.01994
2213.02	0.02102
2209.93	0.02029
2206.85	0.02095
2203.76	0.01969
2200.67	0.01962
2197.58	0.01989
2194.49	0.01985
2191.4	0.01891
2188.31	0.01900
2185.22	0.01841
2182.13	0.01828
2179.04	0.01853
2175.95	0.01873
2172.86	0.01891
2169.77	0.01930
2166.68	0.02057
2163.59	0.01991
2160.5	0.01935
2157.42	0.01578
2154.33	0.01507
2151.24	0.01692
2148.15	0.01806
2145.06	0.01850
2141.97	0.01889
2138.88	0.01823
2135.79	0.01974
2132.7	0.01840
2129.61	0.01910
2126.52	0.02036
2123.43	0.02014
2120.34	0.01949
2117.25	0.02096
2114.16	0.02031
2111.07	0.01987
2107.99	0.02130
2104.9	0.02030
2101.81	0.02118
2098.72	0.02086
2095.63	0.01947
2092.54	0.01978
2089.45	0.02101
2086.36	0.01978
2083.27	0.02106
2080.18	0.01915
2077.09	0.01983
2074	0.01941
2070.91	0.01903
2067.82	0.01983
2064.73	0.01914
2061.64	0.02017
2058.56	0.01886
2055.47	0.01964
2052.38	0.01964
2049.29	0.01851
2046.2	0.01921
2043.11	0.01692
2040.02	0.01819
2036.93	0.01652
2033.84	0.01780
2030.75	0.01733
2027.66	0.01617
2024.57	0.01703
2021.48	0.01732
2018.39	0.01606
2015.3	0.01644
2012.21	0.01681
2009.13	0.01773
2006.04	0.01768
2002.95	0.01758
1999.86	0.01800
1996.77	0.01718
1993.68	0.01811
1990.59	0.01758
1987.5	0.01839
1984.41	0.01777
1981.32	0.01855
1978.23	0.01832
1975.14	0.01543
1972.05	0.01624
1968.96	0.01661
1965.87	0.01533
1962.78	0.01713
1959.7	0.01693
1956.61	0.01732
1953.52	0.01830
1950.43	0.01849
1947.34	0.01795
1944.25	0.01867
1941.16	0.01797
1938.07	0.01820
1934.98	0.01872
1931.89	0.01868
1928.8	0.01865
1925.71	0.01954
1922.62	0.01925
1919.53	0.02019
1916.44	0.01932
1913.35	0.02005
1910.27	0.02011
1907.18	0.02003
1904.09	0.02025
1901	0.02012
1897.91	0.01989
1894.82	0.01981
1891.73	0.02040
1888.64	0.02040
1885.55	0.01992
1882.46	0.02055
1879.37	0.02040
1876.28	0.02093
1873.19	0.02023
1870.1	0.02073
1867.01	0.02012
1863.92	0.02057
1860.84	0.02021
1857.75	0.02056
1854.66	0.02040
1851.57	0.02025
1848.48	0.02030
1845.39	0.02037
1842.3	0.02028
1839.21	0.02062
1836.12	0.02074
1833.03	0.02070
1829.94	0.02057
1826.85	0.02106
1823.76	0.02098
1820.67	0.02110
1817.58	0.02086
1814.49	0.02122
1811.41	0.02136
1808.32	0.02167
1805.23	0.02211
1802.14	0.02296
1799.05	0.02260
1795.96	0.02249
1792.87	0.02203
1789.78	0.02166
1786.69	0.02178
1783.6	0.02170
1780.51	0.02176
1777.42	0.02218
1774.33	0.02268
1771.24	0.02350
1768.15	0.02288
1765.06	0.02223
1761.98	0.02183
1758.89	0.02176
1755.8	0.02191
1752.71	0.02167
1749.62	0.02116
1746.53	0.02119
1743.44	0.02121
1740.35	0.02138
1737.26	0.02141
1734.17	0.02162
1731.08	0.02161
1727.99	0.02171
1724.9	0.02150
1721.81	0.02198
1718.72	0.02164
1715.63	0.02198
1712.55	0.02205
1709.46	0.02242
1706.37	0.02254
1703.28	0.02269
1700.19	0.02199
1697.1	0.02311
1694.01	0.02314
1690.92	0.02279
1687.83	0.02262
1684.74	0.02179
1681.65	0.02257
1678.56	0.02228
1675.47	0.02282
1672.38	0.02290
1669.29	0.02375
1666.2	0.02479
1663.12	0.02628
1660.03	0.02662
1656.94	0.02649
1653.85	0.02755
1650.76	0.03222
1647.67	0.04166
1644.58	0.06887
1641.49	0.06916
1638.4	0.06047
1635.31	0.07529
1632.22	0.09749
1629.13	0.10679
1626.04	0.11959
1622.95	0.14266
1619.86	0.12618
1616.77	0.09177
1613.68	0.06961
1610.6	0.05704
1607.51	0.04890
1604.42	0.04442
1601.33	0.04306
1598.24	0.04402
1595.15	0.04938
1592.06	0.06309
1588.97	0.09485
1585.88	0.13182
1582.79	0.15974
1579.7	0.16333
1576.61	0.13266
1573.52	0.10072
1570.43	0.07867
1567.34	0.06182
1564.25	0.05027
1561.17	0.04442
1558.08	0.04034
1554.99	0.03783
1551.9	0.03603
1548.81	0.03378
1545.72	0.03281
1542.63	0.03150
1539.54	0.03060
1536.45	0.03113
1533.36	0.03063
1530.27	0.03040
1527.18	0.03094
1524.09	0.03210
1521	0.03664
1517.91	0.04537
1514.82	0.05382
1511.74	0.05220
1508.65	0.04419
1505.56	0.04031
1502.47	0.03826
1499.38	0.03633
1496.29	0.03368
1493.2	0.03151
1490.11	0.02963
1487.02	0.02857
1483.93	0.02819
1480.84	0.02835
1477.75	0.02894
1474.66	0.03073
1471.57	0.03608
1468.48	0.05121
1465.39	0.06330
1462.31	0.06799
1459.22	0.07347
1456.13	0.08015
1453.04	0.09321
1449.95	0.12344
1446.86	0.16655
1443.77	0.19249
1440.68	0.19278
1437.59	0.18332
1434.5	0.17069
1431.41	0.15194
1428.32	0.12380
1425.23	0.08671
1422.14	0.06458
1419.05	0.05331
1415.96	0.04708
1412.88	0.04313
1409.79	0.04030
1406.7	0.03845
1403.61	0.03760
1400.52	0.03614
1397.43	0.03554
1394.34	0.03475
1391.25	0.03381
1388.16	0.03371
1385.07	0.03624
1381.98	0.04351
1378.89	0.06281
1375.8	0.09279
1372.71	0.08940
1369.62	0.07378
1366.53	0.06320
1363.45	0.05498
1360.36	0.04964
1357.27	0.04691
1354.18	0.04654
1351.09	0.04710
1348	0.04892
1344.91	0.05280
1341.82	0.05619
1338.73	0.05306
1335.64	0.04809
1332.55	0.05024
1329.46	0.05599
1326.37	0.06073
1323.28	0.06606
1320.19	0.05858
1317.1	0.05776
1314.02	0.07539
1310.93	0.09190
1307.84	0.08463
1304.75	0.08418
1301.66	0.09183
1298.57	0.09035
1295.48	0.08543
1292.39	0.07770
1289.3	0.07116
1286.21	0.07200
1283.12	0.08241
1280.03	0.09193
1276.94	0.09337
1273.85	0.08542
1270.76	0.07094
1267.67	0.05621
1264.59	0.04674
1261.5	0.04198
1258.41	0.03846
1255.32	0.03741
1252.23	0.03855
1249.14	0.04569
1246.05	0.04786
1242.96	0.05539
1239.87	0.08062
1236.78	0.10624
1233.69	0.10463
1230.6	0.09188
1227.51	0.09162
1224.42	0.11602
1221.33	0.14424
1218.24	0.19146
1215.16	0.24244
1212.07	0.23666
1208.98	0.19476
1205.89	0.16153
1202.8	0.13446
1199.71	0.10375
1196.62	0.08241
1193.53	0.07213
1190.44	0.07177
1187.35	0.07590
1184.26	0.08094
1181.17	0.08555
1178.08	0.08822
1174.99	0.08910
1171.9	0.10528
1168.81	0.08568
1165.73	0.06268
1162.64	0.05236
1159.55	0.04853
1156.46	0.05032
1153.37	0.07054
1150.28	0.11419
1147.19	0.07984
1144.1	0.05344
1141.01	0.04641
1137.92	0.04673
1134.83	0.04968
1131.74	0.04670
1128.65	0.04071
1125.56	0.03695
1122.47	0.03538
1119.38	0.03494
1116.3	0.03507
1113.21	0.03630
1110.12	0.03728
1107.03	0.04088
1103.94	0.04559
1100.85	0.05306
1097.76	0.05800
1094.67	0.04791
1091.58	0.04231
1088.49	0.03899
1085.4	0.03972
1082.31	0.04784
1079.22	0.05802
1076.13	0.05147
1073.04	0.04395
1069.95	0.03993
1066.87	0.03780
1063.78	0.03818
1060.69	0.04137
1057.6	0.05153
1054.51	0.08593
1051.42	0.11161
1048.33	0.10428
1045.24	0.07312
1042.15	0.06488
1039.06	0.06938
1035.97	0.08540
1032.88	0.12298
1029.79	0.12251
1026.7	0.09771
1023.61	0.10322
1020.52	0.14402
1017.44	0.15812
1014.35	0.12757
1011.26	0.09937
1008.17	0.09273
1005.08	0.10151
1001.99	0.11667
998.899	0.10730
995.809	0.07856
992.72	0.06509
989.631	0.06547
986.541	0.07200
983.452	0.07356
980.363	0.06204
977.273	0.05721
974.184	0.05420
971.094	0.05379
968.005	0.05971
964.916	0.06800
961.826	0.08227
958.737	0.07723
955.648	0.05795
952.558	0.04810
949.469	0.04381
946.379	0.04140
943.29	0.03960
940.201	0.03851
937.111	0.03756
934.022	0.03808
930.933	0.04009
927.843	0.04196
924.754	0.04075
921.664	0.04001
918.575	0.04220
915.486	0.04722
912.396	0.04565
909.307	0.04525
906.217	0.05358
903.128	0.07040
900.039	0.09985
896.949	0.15686
893.86	0.14569
890.771	0.10602
887.681	0.10205
884.592	0.16603
881.502	0.18249
878.413	0.11607
875.324	0.08527
872.234	0.08240
869.145	0.09438
866.056	0.08325
862.966	0.10116
859.877	0.11058
856.787	0.10654
853.698	0.11702
850.609	0.12420
847.519	0.11467
844.43	0.10339
841.341	0.09915
838.251	0.09249
835.162	0.09570
832.072	0.10743
828.983	0.11939
825.894	0.12088
822.804	0.10174
819.715	0.08025
816.626	0.06420
813.536	0.05895
810.447	0.05562
807.357	0.06886
804.268	0.11133
801.179	0.08711
798.089	0.06610
795	0.05716
791.911	0.05566
788.821	0.05384
785.732	0.05512
782.642	0.05164
779.553	0.04887
776.464	0.04884
773.374	0.04673
770.285	0.04825
767.195	0.04570
764.106	0.04082
761.017	0.03871
757.927	0.03891
754.838	0.04291
751.749	0.05463
748.659	0.05798
745.57	0.05049
742.48	0.04265
739.391	0.03969
736.302	0.04012
733.212	0.04606
730.123	0.05578
727.034	0.04706
723.944	0.04437
720.855	0.04322
717.765	0.04127
714.676	0.03747
711.587	0.03682
708.497	0.03584
705.408	0.03370
702.319	0.03281
699.229	0.03200
696.14	0.03203
693.05	0.03192
689.961	0.03287
686.872	0.03247
683.782	0.03284
680.693	0.03330
677.604	0.03595
674.514	0.03794
671.425	0.04363
668.335	0.05028
665.246	0.05236
662.157	0.05453
659.067	0.05481
655.978	0.05375
652.889	0.05314
649.799	0.05872
646.71	0.05819
643.62	0.04996
640.531	0.04548
637.442	0.04416
634.352	0.04436
631.263	0.04667
628.173	0.04948
625.084	0.05300
621.995	0.05315
618.905	0.04783
615.816	0.04195
612.727	0.05391
609.637	0.06202
606.548	0.05629
603.458	0.06057
600.369	0.06446
597.28	0.06980
594.19	0.06812
591.101	0.07580
588.012	0.09074
584.922	0.09189
581.833	0.08040
578.743	0.06974
575.654	0.06709
572.565	0.06968
569.475	0.07153
566.386	0.07483
563.297	0.07560
560.207	0.07551
557.118	0.07408
554.028	0.07439
550.939	0.08161
547.85	0.08552
544.76	0.09540
541.671	0.09506
538.582	0.10410
535.492	0.12332
532.403	0.11436
529.313	0.10940
526.224	0.11896
523.135	0.14511
520.045	0.14930
516.956	0.10997
513.867	0.09391
510.777	0.09289
507.688	0.10128
504.598	0.11625
501.509	0.13453
498.42	0.15077
495.33	0.16023
492.241	0.16227
489.151	0.15677
486.062	0.15596
482.973	0.15605
479.883	0.14577
476.794	0.13473
473.705	0.13457
470.615	0.14066
467.526	0.15158
464.436	0.15333
461.347	0.15182
458.258	0.14794
455.168	0.14948
452.079	0.15030
448.99	0.14167
445.9	0.13378
442.811	0.12484
439.721	0.12258
436.632	0.12031
433.543	0.12133
430.453	0.12646
427.364	0.14180
424.275	0.15852
421.185	0.15673
418.096	0.15082
415.006	0.14256
411.917	0.15230
408.828	0.16628
405.738	0.17440
402.649	0.18304
399.56	0.19127