File: FTIR/crystalline_CBD.txt
DATATYPE	 IR Spectrum
XYUNITS	 Wavenumber;Absorbance
DECIMALSYMBOL	 .
649.955	 0.0755706
652.284	 0.0677009
654.614	 0.0691636
656.943	 0.0726927
659.273	 0.0722383
661.602	 0.07252
663.932	 0.0703402
666.262	 0.0652608
668.591	 0.0715171
670.921	 0.05755
673.25	 0.0505364
675.58	 0.046374
677.91	 0.0457671
680.239	 0.0437179
682.569	 0.0421371
684.898	 0.0431996
687.228	 0.0418062
689.557	 0.0423186
691.887	 0.0422677
694.217	 0.0423631
696.546	 0.0427001
698.876	 0.0427446
701.205	 0.043435
703.535	 0.0443253
705.865	 0.0450808
708.194	 0.0481027
710.524	 0.0490431
712.853	 0.0492806
715.183	 0.0511596
717.513	 0.0555852
719.842	 0.0580574
722.172	 0.058476
724.501	 0.0603591
726.831	 0.0621938
729.16	 0.0706904
731.49	 0.0697841
733.82	 0.0576428
736.149	 0.0532543
738.479	 0.0525134
740.808	 0.0542747
743.138	 0.0596389
745.468	 0.0687518
747.797	 0.0784645
750.127	 0.0734975
752.456	 0.0683639
754.786	 0.0563434
757.115	 0.0530972
759.445	 0.0531606
761.775	 0.0538739
764.104	 0.0561535
766.434	 0.0610453
768.763	 0.0655095
771.093	 0.0650417
773.423	 0.0640002
775.752	 0.0661906
778.082	 0.0671027
780.411	 0.0673557
782.741	 0.0723935
785.071	 0.0763855
787.4	 0.0740457
789.73	 0.0757886
792.059	 0.0775855
794.389	 0.0790967
796.718	 0.0858385
799.048	 0.0998564
801.378	 0.121922
803.707	 0.143271
806.037	 0.11084
808.366	 0.0799147
810.696	 0.0765143
813.026	 0.0812552
815.355	 0.0871069
817.685	 0.0970553
820.014	 0.115154
822.344	 0.135462
824.673	 0.154314
827.003	 0.162481
829.333	 0.154231
831.662	 0.142426
833.992	 0.129987
836.321	 0.123033
838.651	 0.122215
840.981	 0.129534
843.31	 0.13479
845.64	 0.139162
847.969	 0.153829
850.299	 0.160826
852.629	 0.153397
854.958	 0.144571
857.288	 0.135425
859.617	 0.139437
861.947	 0.1355
864.276	 0.113264
866.606	 0.109892
868.936	 0.120296
871.265	 0.110379
873.595	 0.106149
875.924	 0.118762
878.254	 0.149583
880.584	 0.203375
882.913	 0.232719
885.243	 0.173164
887.572	 0.127457
889.902	 0.128731
892.231	 0.157177
894.561	 0.192077
896.891	 0.187592
899.22	 0.133533
901.55	 0.0980191
903.879	 0.079267
906.209	 0.0653549
908.539	 0.058196
910.868	 0.0570811
913.198	 0.0596424
915.527	 0.0590606
917.857	 0.0542787
920.187	 0.0516585
922.516	 0.0524366
924.846	 0.0536093
927.175	 0.0542853
929.505	 0.0536606
931.834	 0.0513981
934.164	 0.0503203
936.494	 0.0508814
938.823	 0.0520398
941.153	 0.0533138
943.482	 0.0551082
945.812	 0.0571326
948.142	 0.0596752
950.471	 0.0636115
952.801	 0.0697584
955.13	 0.0805118
957.46	 0.0972428
959.789	 0.111673
962.119	 0.106355
964.449	 0.0916547
966.778	 0.0829457
969.108	 0.0761644
971.437	 0.072479
973.767	 0.0739928
976.097	 0.0776311
978.426	 0.0809187
980.756	 0.0881053
983.085	 0.0986851
985.415	 0.0982484
987.745	 0.0935524
990.074	 0.0887083
992.404	 0.0912181
994.733	 0.102972
997.063	 0.124765
999.392	 0.149015
1001.72	 0.152638
1004.05	 0.140313
1006.38	 0.125818
1008.71	 0.125225
1011.04	 0.133725
1013.37	 0.157457
1015.7	 0.183689
1018.03	 0.203829
1020.36	 0.18113
1022.69	 0.141064
1025.02	 0.124933
1027.35	 0.134074
1029.68	 0.155132
1032.01	 0.157785
1034.34	 0.125872
1036.67	 0.0983395
1039	 0.0879631
1041.33	 0.0847756
1043.65	 0.0881343
1045.98	 0.106866
1048.31	 0.1347
1050.64	 0.13953
1052.97	 0.124021
1055.3	 0.08615
1057.63	 0.0610317
1059.96	 0.0521318
1062.29	 0.0487033
1064.62	 0.0477895
1066.95	 0.0487674
1069.28	 0.0511168
1071.61	 0.0546556
1073.94	 0.0599327
1076.27	 0.0681696
1078.6	 0.0738279
1080.93	 0.0668339
1083.26	 0.0560656
1085.59	 0.051394
1087.92	 0.051684
1090.25	 0.0549774
1092.58	 0.0593293
1094.91	 0.0668503
1097.24	 0.075441
1099.56	 0.0726344
1101.89	 0.0636329
1104.22	 0.0579644
1106.55	 0.053624
1108.88	 0.0506627
1111.21	 0.0493634
1113.54	 0.0489985
1115.87	 0.0482963
1118.2	 0.0479591
1120.53	 0.0485585
1122.86	 0.0501371
1125.19	 0.0525704
1127.52	 0.0563359
1129.85	 0.0615989
1132.18	 0.06702
1134.51	 0.0687818
1136.84	 0.0664964
1139.17	 0.0653788
1141.5	 0.0690279
1143.83	 0.0791306
1146.16	 0.0999424
1148.49	 0.134441
1150.82	 0.134703
1153.15	 0.0922218
1155.47	 0.0717832
1157.8	 0.0680838
1160.13	 0.0703741
1162.46	 0.0761667
1164.79	 0.0867314
1167.12	 0.103894
1169.45	 0.127788
1171.78	 0.139236
1174.11	 0.123153
1176.44	 0.12053
1178.77	 0.118089
1181.1	 0.115881
1183.43	 0.112032
1185.76	 0.10661
1188.09	 0.102939
1190.42	 0.100575
1192.75	 0.10189
1195.08	 0.109798
1197.41	 0.124843
1199.74	 0.147056
1202.07	 0.173927
1204.4	 0.199679
1206.73	 0.222815
1209.06	 0.253965
1211.38	 0.289699
1213.71	 0.306165
1216.04	 0.281826
1218.37	 0.228915
1220.7	 0.184109
1223.03	 0.155322
1225.36	 0.131825
1227.69	 0.114445
1230.02	 0.115952
1232.35	 0.128656
1234.68	 0.132478
1237.01	 0.126533
1239.34	 0.102017
1241.67	 0.0764244
1244	 0.0633775
1246.33	 0.0598164
1248.66	 0.0574232
1250.99	 0.0512175
1253.32	 0.0483056
1255.65	 0.0485965
1257.98	 0.0508652
1260.31	 0.0548594
1262.64	 0.0597119
1264.97	 0.0668181
1267.29	 0.07705
1269.62	 0.0908598
1271.95	 0.105672
1274.28	 0.11656
1276.61	 0.121941
1278.94	 0.120835
1281.27	 0.11375
1283.6	 0.103591
1285.93	 0.0950159
1288.26	 0.0939382
1290.59	 0.0987728
1292.92	 0.105252
1295.25	 0.111944
1297.58	 0.1169
1299.91	 0.118437
1302.24	 0.115942
1304.57	 0.109454
1306.9	 0.108122
1309.23	 0.114029
1311.56	 0.111579
1313.89	 0.0937624
1316.22	 0.0772998
1318.55	 0.0751213
1320.88	 0.0806285
1323.2	 0.0848683
1325.53	 0.080052
1327.86	 0.0751085
1330.19	 0.0701261
1332.52	 0.0650908
1334.85	 0.0634385
1337.18	 0.0675032
1339.51	 0.0752082
1341.84	 0.0735587
1344.17	 0.0699945
1346.5	 0.0660888
1348.83	 0.0635487
1351.16	 0.0623881
1353.49	 0.0624444
1355.82	 0.0628364
1358.15	 0.0640181
1360.48	 0.0688488
1362.81	 0.0784161
1365.14	 0.0827817
1367.47	 0.0913234
1369.8	 0.102438
1372.13	 0.114062
1374.46	 0.124401
1376.79	 0.103006
1379.11	 0.0748987
1381.44	 0.0568563
1383.77	 0.0483509
1386.1	 0.0465541
1388.43	 0.0459413
1390.76	 0.0439676
1393.09	 0.0458914
1395.42	 0.0500063
1397.75	 0.050349
1400.08	 0.0522984
1402.41	 0.0512455
1404.74	 0.0557469
1407.07	 0.0552546
1409.4	 0.058095
1411.73	 0.0615447
1414.06	 0.0632938
1416.39	 0.0696897
1418.72	 0.0877715
1421.05	 0.0936532
1423.38	 0.111909
1425.71	 0.135395
1428.04	 0.166735
1430.37	 0.201177
1432.7	 0.209611
1435.03	 0.222317
1437.35	 0.253088
1439.68	 0.244633
1442.01	 0.245268
1444.34	 0.233234
1446.67	 0.203299
1449	 0.165014
1451.33	 0.131677
1453.66	 0.108537
1455.99	 0.102478
1458.32	 0.100726
1460.65	 0.0896202
1462.98	 0.0819748
1465.31	 0.0802893
1467.64	 0.0657194
1469.97	 0.0490195
1472.3	 0.0454807
1474.63	 0.0385411
1476.96	 0.0372779
1479.29	 0.0345057
1481.62	 0.0349346
1483.95	 0.0336624
1486.28	 0.035629
1488.61	 0.0396624
1490.94	 0.0413671
1493.26	 0.0390627
1495.59	 0.04581
1497.92	 0.0483041
1500.25	 0.0479906
1502.58	 0.0464657
1504.91	 0.0537239
1507.24	 0.0732727
1509.57	 0.0678074
1511.9	 0.0693972
1514.23	 0.067877
1516.56	 0.0638548
1518.89	 0.0530531
1521.22	 0.0534221
1523.55	 0.0435097
1525.88	 0.0435741
1528.21	 0.0415128
1530.54	 0.0389799
1532.87	 0.0429259
1535.2	 0.0382304
1537.53	 0.0388708
1539.86	 0.0535962
1542.19	 0.0506984
1544.52	 0.0478259
1546.85	 0.0454058
1549.17	 0.0478453
1551.5	 0.0480285
1553.83	 0.0499421
1556.16	 0.0505604
1558.49	 0.0842732
1560.82	 0.0769383
1563.15	 0.0700008
1565.48	 0.0812199
1567.81	 0.0922372
1570.14	 0.121954
1572.47	 0.125987
1574.8	 0.152029
1577.13	 0.201344
1579.46	 0.2077
1581.79	 0.207339
1584.12	 0.183834
1586.45	 0.153092
1588.78	 0.118126
1591.11	 0.087713
1593.44	 0.0700227
1595.77	 0.0615967
1598.1	 0.0573886
1600.43	 0.0565801
1602.76	 0.0582988
1605.08	 0.0613247
1607.41	 0.0681451
1609.74	 0.0768694
1612.07	 0.0844416
1614.4	 0.0992186
1616.73	 0.139141
1619.06	 0.153428
1621.39	 0.173257
1623.72	 0.174335
1626.05	 0.14978
1628.38	 0.139066
1630.71	 0.127093
1633.04	 0.111802
1635.37	 0.0998373
1637.7	 0.0843308
1640.03	 0.0816386
1642.36	 0.0868917
1644.69	 0.0773264
1647.02	 0.0552245
1649.35	 0.0408229
1651.68	 0.0391206
1654.01	 0.0397381
1656.34	 0.0313102
1658.67	 0.0310645
1660.99	 0.0318082
1663.32	 0.0315682
1665.65	 0.0283682
1667.98	 0.0291166
1670.31	 0.0287861
1672.64	 0.0272639
1674.97	 0.0296075
1677.3	 0.0250569
1679.63	 0.0257594
1681.96	 0.0271557
1684.29	 0.0356589
1686.62	 0.0270711
1688.95	 0.027662
1691.28	 0.0258759
1693.61	 0.0259358
1695.94	 0.0323939
1698.27	 0.0285591
1700.6	 0.0358783
1702.93	 0.0273857
1705.26	 0.0287393
1707.59	 0.0269691
1709.92	 0.0257301
1712.25	 0.0248112
1714.58	 0.0289917
1716.9	 0.0308292
1719.23	 0.0284608
1721.56	 0.025999
1723.89	 0.0262487
1726.22	 0.0249269
1728.55	 0.024558
1730.88	 0.0266385
1733.21	 0.0305504
1735.54	 0.0275903
1737.87	 0.0260406
1740.2	 0.0286751
1742.53	 0.0258725
1744.86	 0.0257175
1747.19	 0.0274525
1749.52	 0.0286747
1751.85	 0.0288871
1754.18	 0.0259224
1756.51	 0.0278216
1758.84	 0.0269432
1761.17	 0.0288314
1763.5	 0.0269955
1765.83	 0.0267245
1768.16	 0.02936
1770.49	 0.0298609
1772.82	 0.0321259
1775.14	 0.0278794
1777.47	 0.0269615
1779.8	 0.0276043
1782.13	 0.0271223
1784.46	 0.0275669
1786.79	 0.0260657
1789.12	 0.0268397
1791.45	 0.0300564
1793.78	 0.0285851
1796.11	 0.0281124
1798.44	 0.0283077
1800.77	 0.029314
1803.1	 0.0278772
1805.43	 0.0267576
1807.76	 0.0267854
1810.09	 0.0269337
1812.42	 0.025885
1814.75	 0.0254042
1817.08	 0.025417
1819.41	 0.0251987
1821.74	 0.025312
1824.07	 0.025639
1826.4	 0.0260722
1828.73	 0.0268088
1831.05	 0.026671
1833.38	 0.0250659
1835.71	 0.025109
1838.04	 0.0245262
1840.37	 0.024307
1842.7	 0.0259791
1845.03	 0.0277426
1847.36	 0.0254547
1849.69	 0.0249961
1852.02	 0.0248672
1854.35	 0.0247421
1856.68	 0.0249071
1859.01	 0.0249676
1861.34	 0.0244919
1863.67	 0.0241679
1866	 0.0252941
1868.33	 0.0271636
1870.66	 0.0256373
1872.99	 0.0249675
1875.32	 0.0248591
1877.65	 0.0251599
1879.98	 0.0251477
1882.31	 0.0247481
1884.64	 0.024764
1886.96	 0.0245894
1889.29	 0.0261224
1891.62	 0.024763
1893.95	 0.0249236
1896.28	 0.0247556
1898.61	 0.0248025
1900.94	 0.024744
1903.27	 0.0241694
1905.6	 0.0243675
1907.93	 0.0249267
1910.26	 0.0248329
1912.59	 0.0240212
1914.92	 0.0240407
1917.25	 0.0253039
1919.58	 0.024182
1921.91	 0.0244248
1924.24	 0.0235759
1926.57	 0.0231196
1928.9	 0.0229063
1931.23	 0.0226968
1933.56	 0.0222448
1935.89	 0.0222139
1938.22	 0.0215608
1940.55	 0.0219923
1942.87	 0.0232371
1945.2	 0.0222122
1947.53	 0.0215507
1949.86	 0.0214312
1952.19	 0.0208664
1954.52	 0.0207664
1956.85	 0.020249
1959.18	 0.02042
1961.51	 0.0205972
1963.84	 0.0205378
1966.17	 0.0206507
1968.5	 0.0193501
1970.83	 0.0196272
1973.16	 0.0187805
1975.49	 0.0198029
1977.82	 0.0202221
1980.15	 0.0209696
1982.48	 0.0207511
1984.81	 0.0211803
1987.14	 0.0212536
1989.47	 0.0230332
1991.8	 0.0234228
1994.13	 0.0227407
1996.46	 0.022084
1998.78	 0.021874
2001.11	 0.0214313
2003.44	 0.0203659
2005.77	 0.0196933
2008.1	 0.0203245
2010.43	 0.0195217
2012.76	 0.0204803
2015.09	 0.0200669
2017.42	 0.0206084
2019.75	 0.0209044
2022.08	 0.0216539
2024.41	 0.0220739
2026.74	 0.0215458
2029.07	 0.0220115
2031.4	 0.0216425
2033.73	 0.0215748
2036.06	 0.0224828
2038.39	 0.0215425
2040.72	 0.0210076
2043.05	 0.0205504
2045.38	 0.022129
2047.71	 0.022947
2050.04	 0.0240025
2052.37	 0.0239697
2054.69	 0.0244243
2057.02	 0.0249
2059.35	 0.0247354
2061.68	 0.0249738
2064.01	 0.0249316
2066.34	 0.0244
2068.67	 0.0247176
2071	 0.0250658
2073.33	 0.0251499
2075.66	 0.0255271
2077.99	 0.0258323
2080.32	 0.0255904
2082.65	 0.0261477
2084.98	 0.0258776
2087.31	 0.0259835
2089.64	 0.0259634
2091.97	 0.02584
2094.3	 0.0262056
2096.63	 0.0264722
2098.96	 0.0262078
2101.29	 0.0258935
2103.62	 0.0253886
2105.95	 0.0256987
2108.28	 0.0253579
2110.61	 0.0256174
2112.93	 0.0256677
2115.26	 0.0256145
2117.59	 0.0249974
2119.92	 0.0247482
2122.25	 0.0246576
2124.58	 0.0239041
2126.91	 0.0234408
2129.24	 0.0227118
2131.57	 0.0224979
2133.9	 0.0221053
2136.23	 0.0225203
2138.56	 0.0227333
2140.89	 0.0219186
2143.22	 0.0211551
2145.55	 0.0211754
2147.88	 0.0208689
2150.21	 0.0209521
2152.54	 0.0186757
2154.87	 0.0188913
2157.2	 0.0194433
2159.53	 0.0212252
2161.86	 0.0214866
2164.19	 0.0227681
2166.52	 0.0221414
2168.84	 0.0225912
2171.17	 0.0226082
2173.5	 0.0219083
2175.83	 0.0227296
2178.16	 0.0220757
2180.49	 0.0232827
2182.82	 0.0237728
2185.15	 0.024271
2187.48	 0.0246815
2189.81	 0.0244462
2192.14	 0.0244281
2194.47	 0.0242278
2196.8	 0.0244712
2199.13	 0.0246866
2201.46	 0.0248446
2203.79	 0.0251383
2206.12	 0.0251507
2208.45	 0.0249576
2210.78	 0.0253842
2213.11	 0.0255163
2215.44	 0.0253759
2217.77	 0.0260626
2220.1	 0.0260742
2222.43	 0.0265487
2224.75	 0.0263492
2227.08	 0.0264926
2229.41	 0.026624
2231.74	 0.0272523
2234.07	 0.0272148
2236.4	 0.027201
2238.73	 0.0275753
2241.06	 0.0277744
2243.39	 0.0276379
2245.72	 0.0277206
2248.05	 0.0277528
2250.38	 0.0280296
2252.71	 0.0277857
2255.04	 0.0284947
2257.37	 0.0288468
2259.7	 0.028428
2262.03	 0.0287874
2264.36	 0.0290468
2266.69	 0.0293059
2269.02	 0.0293918
2271.35	 0.0296559
2273.68	 0.0299694
2276.01	 0.0303155
2278.34	 0.0306142
2280.66	 0.031195
2282.99	 0.031258
2285.32	 0.0316476
2287.65	 0.0318521
2289.98	 0.0317095
2292.31	 0.0317392
2294.64	 0.0319093
2296.97	 0.0319623
2299.3	 0.0315836
2301.63	 0.0311188
2303.96	 0.0309471
2306.29	 0.0312508
2308.62	 0.0314634
2310.95	 0.0312742
2313.28	 0.0318426
2315.61	 0.0326318
2317.94	 0.0326225
2320.27	 0.0323233
2322.6	 0.0333548
2324.93	 0.0322895
2327.26	 0.0313115
2329.59	 0.0313284
2331.92	 0.0318126
2334.25	 0.0308084
2336.57	 0.0323383
2338.9	 0.0330887
2341.23	 0.0333649
2343.56	 0.0328659
2345.89	 0.0314102
2348.22	 0.0298102
2350.55	 0.0298235
2352.88	 0.0306383
2355.21	 0.0310171
2357.54	 0.031413
2359.87	 0.0317585
2362.2	 0.0308502
2364.53	 0.0325077
2366.86	 0.0328694
2369.19	 0.0326115
2371.52	 0.0320684
2373.85	 0.0329643
2376.18	 0.0326173
2378.51	 0.0321024
2380.84	 0.0320525
2383.17	 0.0316332
2385.5	 0.0313554
2387.83	 0.0312228
2390.16	 0.0313027
2392.48	 0.0314748
2394.81	 0.0312684
2397.14	 0.0312041
2399.47	 0.0313953
2401.8	 0.0313329
2404.13	 0.0314552
2406.46	 0.0311787
2408.79	 0.031661
2411.12	 0.0316733
2413.45	 0.0315831
2415.78	 0.0316897
2418.11	 0.0318348
2420.44	 0.0319204
2422.77	 0.0318399
2425.1	 0.0318733
2427.43	 0.0317979
2429.76	 0.0318357
2432.09	 0.031732
2434.42	 0.0317165
2436.75	 0.0321547
2439.08	 0.0322926
2441.41	 0.0328147
2443.74	 0.0329096
2446.07	 0.0333572
2448.4	 0.0333807
2450.72	 0.0336302
2453.05	 0.0335842
2455.38	 0.0335647
2457.71	 0.0336413
2460.04	 0.033611
2462.37	 0.0334713
2464.7	 0.0333981
2467.03	 0.033358
2469.36	 0.0334709
2471.69	 0.0332104
2474.02	 0.0330971
2476.35	 0.0329392
2478.68	 0.0329111
2481.01	 0.0329131
2483.34	 0.0328388
2485.67	 0.0328666
2488	 0.033141
2490.33	 0.0330594
2492.66	 0.0331366
2494.99	 0.0330908
2497.32	 0.0329632
2499.65	 0.0327795
2501.98	 0.0331986
2504.31	 0.0331163
2506.63	 0.0332622
2508.96	 0.0331303
2511.29	 0.0332794
2513.62	 0.033398
2515.95	 0.033396
2518.28	 0.0331701
2520.61	 0.0333446
2522.94	 0.0335026
2525.27	 0.0334151
2527.6	 0.0334197
2529.93	 0.0332663
2532.26	 0.0333625
2534.59	 0.0337124
2536.92	 0.0335229
2539.25	 0.0337212
2541.58	 0.0336715
2543.91	 0.0337043
2546.24	 0.0335541
2548.57	 0.0337074
2550.9	 0.0335941
2553.23	 0.0336863
2555.56	 0.0338608
2557.89	 0.0336836
2560.22	 0.033738
2562.54	 0.033728
2564.87	 0.0336917
2567.2	 0.0339143
2569.53	 0.034089
2571.86	 0.0338596
2574.19	 0.0341345
2576.52	 0.0342328
2578.85	 0.0346046
2581.18	 0.0346419
2583.51	 0.0346803
2585.84	 0.0346739
2588.17	 0.0347857
2590.5	 0.0347831
2592.83	 0.0346926
2595.16	 0.034855
2597.49	 0.0351375
2599.82	 0.0350409
2602.15	 0.0353158
2604.48	 0.0353889
2606.81	 0.0354017
2609.14	 0.0356464
2611.47	 0.0355668
2613.8	 0.0359412
2616.13	 0.0360464
2618.45	 0.0361865
2620.78	 0.0360034
2623.11	 0.0360088
2625.44	 0.0362728
2627.77	 0.0363178
2630.1	 0.0363935
2632.43	 0.0364517
2634.76	 0.0368227
2637.09	 0.036939
2639.42	 0.0371793
2641.75	 0.037428
2644.08	 0.0374999
2646.41	 0.0376879
2648.74	 0.0378874
2651.07	 0.0379667
2653.4	 0.03815
2655.73	 0.0381292
2658.06	 0.0380744
2660.39	 0.0380477
2662.72	 0.0380699
2665.05	 0.0381721
2667.38	 0.0380637
2669.71	 0.0381059
2672.04	 0.0379541
2674.36	 0.0377675
2676.69	 0.037617
2679.02	 0.0374464
2681.35	 0.0374602
2683.68	 0.0372546
2686.01	 0.0370641
2688.34	 0.0369154
2690.67	 0.037063
2693	 0.0369378
2695.33	 0.0371205
2697.66	 0.0372284
2699.99	 0.0374171
2702.32	 0.0376131
2704.65	 0.0378561
2706.98	 0.0381599
2709.31	 0.0385407
2711.64	 0.038847
2713.97	 0.0391032
2716.3	 0.039635
2718.63	 0.0401872
2720.96	 0.0407592
2723.29	 0.0414757
2725.62	 0.0420818
2727.95	 0.042513
2730.27	 0.0418985
2732.6	 0.041051
2734.93	 0.0403507
2737.26	 0.039911
2739.59	 0.0396368
2741.92	 0.0394206
2744.25	 0.0392414
2746.58	 0.0393161
2748.91	 0.0393149
2751.24	 0.0393685
2753.57	 0.0395083
2755.9	 0.0396963
2758.23	 0.0398304
2760.56	 0.0402203
2762.89	 0.0405871
2765.22	 0.0410181
2767.55	 0.0415558
2769.88	 0.0419216
2772.21	 0.0422574
2774.54	 0.0426027
2776.87	 0.0431118
2779.2	 0.043591
2781.53	 0.0440955
2783.86	 0.0445129
2786.19	 0.0451355
2788.51	 0.0458165
2790.84	 0.0463292
2793.17	 0.0470674
2795.5	 0.0478712
2797.83	 0.0486089
2800.16	 0.0496779
2802.49	 0.050805
2804.82	 0.0519229
2807.15	 0.0531277
2809.48	 0.0545739
2811.81	 0.0562268
2814.14	 0.0587788
2816.47	 0.0616297
2818.8	 0.0658544
2821.13	 0.0713306
2823.46	 0.0789824
2825.79	 0.0881203
2828.12	 0.0948743
2830.45	 0.0920977
2832.78	 0.0830259
2835.11	 0.0772862
2837.44	 0.0766369
2839.77	 0.0798475
2842.1	 0.0859505
2844.42	 0.0948072
2846.75	 0.106362
2849.08	 0.120156
2851.41	 0.13391
2853.74	 0.143966
2856.07	 0.142513
2858.4	 0.128003
2860.73	 0.11183
2863.06	 0.10195
2865.39	 0.0983005
2867.72	 0.0989242
2870.05	 0.100343
2872.38	 0.0996279
2874.71	 0.0973676
2877.04	 0.0945986
2879.37	 0.0930558
2881.7	 0.0929576
2884.03	 0.0938534
2886.36	 0.0955482
2888.69	 0.0981636
2891.02	 0.101886
2893.35	 0.107026
2895.68	 0.113869
2898.01	 0.121046
2900.33	 0.126619
2902.66	 0.132024
2904.99	 0.13905
2907.32	 0.147528
2909.65	 0.157053
2911.98	 0.165412
2914.31	 0.17093
2916.64	 0.173318
2918.97	 0.173824
2921.3	 0.174355
2923.63	 0.174074
2925.96	 0.16915
2928.29	 0.158432
2930.62	 0.146106
2932.95	 0.134212
2935.28	 0.123367
2937.61	 0.114075
2939.94	 0.106467
2942.27	 0.0989589
2944.6	 0.0902519
2946.93	 0.0831003
2949.26	 0.0810415
2951.59	 0.0830898
2953.92	 0.0872034
2956.24	 0.0925554
2958.57	 0.0967808
2960.9	 0.0984381
2963.23	 0.0973919
2965.56	 0.0940958
2967.89	 0.0868351
2970.22	 0.0762843
2972.55	 0.0656144
2974.88	 0.0561938
2977.21	 0.0497929
2979.54	 0.0452575
2981.87	 0.0422441
2984.2	 0.0402184
2986.53	 0.0392629
2988.86	 0.0382549
2991.19	 0.0366093
2993.52	 0.0352549
2995.85	 0.0343015
2998.18	 0.033623
3000.51	 0.0330102
3002.84	 0.0324541
3005.17	 0.0320763
3007.5	 0.031616
3009.83	 0.0312598
3012.15	 0.0309595
3014.48	 0.0309166
3016.81	 0.0309143
3019.14	 0.0310754
3021.47	 0.0315037
3023.8	 0.0318923
3026.13	 0.0326929
3028.46	 0.0332614
3030.79	 0.0338899
3033.12	 0.0337549
3035.45	 0.0329082
3037.78	 0.0321295
3040.11	 0.0314086
3042.44	 0.0310437
3044.77	 0.0307532
3047.1	 0.0303067
3049.43	 0.0302394
3051.76	 0.0301329
3054.09	 0.0304536
3056.42	 0.0309913
3058.75	 0.0316175
3061.08	 0.0327372
3063.41	 0.033932
3065.74	 0.0361485
3068.06	 0.0389347
3070.39	 0.0421551
3072.72	 0.0451441
3075.05	 0.0449227
3077.38	 0.0396661
3079.71	 0.0345704
3082.04	 0.0317555
3084.37	 0.0302074
3086.7	 0.0294971
3089.03	 0.0289771
3091.36	 0.028889
3093.69	 0.0287665
3096.02	 0.0285742
3098.35	 0.0284711
3100.68	 0.0285457
3103.01	 0.0285481
3105.34	 0.028398
3107.67	 0.0285013
3110	 0.0284681
3112.33	 0.0284309
3114.66	 0.0285103
3116.99	 0.0286941
3119.32	 0.0289937
3121.65	 0.0289087
3123.98	 0.0287962
3126.3	 0.0289588
3128.63	 0.0288012
3130.96	 0.0289086
3133.29	 0.0288781
3135.62	 0.0287929
3137.95	 0.0288469
3140.28	 0.0290938
3142.61	 0.0288264
3144.94	 0.0288841
3147.27	 0.0289747
3149.6	 0.0286825
3151.93	 0.0289506
3154.26	 0.0294732
3156.59	 0.0291481
3158.92	 0.0289965
3161.25	 0.0289015
3163.58	 0.0288278
3165.91	 0.0287807
3168.24	 0.0287167
3170.57	 0.0287683
3172.9	 0.0289057
3175.23	 0.0287812
3177.56	 0.0292162
3179.89	 0.0292739
3182.21	 0.0294889
3184.54	 0.02981
3186.87	 0.0297515
3189.2	 0.0299602
3191.53	 0.0300441
3193.86	 0.0302725
3196.19	 0.0302512
3198.52	 0.0306047
3200.85	 0.0305944
3203.18	 0.0308303
3205.51	 0.0308426
3207.84	 0.0308617
3210.17	 0.0312548
3212.5	 0.0308692
3214.83	 0.0312733
3217.16	 0.0312659
3219.49	 0.0312192
3221.82	 0.0313052
3224.15	 0.0313634
3226.48	 0.0313128
3228.81	 0.031634
3231.14	 0.0316706
3233.47	 0.0321513
3235.8	 0.0322107
3238.12	 0.0322937
3240.45	 0.0323817
3242.78	 0.0322227
3245.11	 0.032495
3247.44	 0.0327812
3249.77	 0.0331467
3252.1	 0.0330088
3254.43	 0.033409
3256.76	 0.0334698
3259.09	 0.0337843
3261.42	 0.0339441
3263.75	 0.0340891
3266.08	 0.0343371
3268.41	 0.0347785
3270.74	 0.0349724
3273.07	 0.0356336
3275.4	 0.0359691
3277.73	 0.0363492
3280.06	 0.0367968
3282.39	 0.0371046
3284.72	 0.0374239
3287.05	 0.0378304
3289.38	 0.0381124
3291.71	 0.0387472
3294.03	 0.0395249
3296.36	 0.0399546
3298.69	 0.0404008
3301.02	 0.0412217
3303.35	 0.041756
3305.68	 0.042511
3308.01	 0.0431356
3310.34	 0.0434797
3312.67	 0.0443099
3315	 0.0449084
3317.33	 0.0456311
3319.66	 0.0461569
3321.99	 0.0469512
3324.32	 0.0477179
3326.65	 0.04871
3328.98	 0.0494016
3331.31	 0.0507389
3333.64	 0.0519146
3335.97	 0.0531831
3338.3	 0.053874
3340.63	 0.0549261
3342.96	 0.0563264
3345.29	 0.0575577
3347.62	 0.059212
3349.94	 0.0607536
3352.27	 0.0624226
3354.6	 0.0643612
3356.93	 0.0662013
3359.26	 0.0684651
3361.59	 0.0705958
3363.92	 0.0732943
3366.25	 0.0758232
3368.58	 0.0783773
3370.91	 0.0810185
3373.24	 0.0844254
3375.57	 0.087903
3377.9	 0.0921863
3380.23	 0.0962091
3382.56	 0.100623
3384.89	 0.106436
3387.22	 0.11272
3389.55	 0.119178
3391.88	 0.126386
3394.21	 0.134586
3396.54	 0.142496
3398.87	 0.150968
3401.2	 0.156124
3403.53	 0.159716
3405.85	 0.162106
3408.18	 0.161762
3410.51	 0.158025
3412.84	 0.153288
3415.17	 0.147643
3417.5	 0.143081
3419.83	 0.138158
3422.16	 0.1339
3424.49	 0.12958
3426.82	 0.126636
3429.15	 0.123263
3431.48	 0.120426
3433.81	 0.117266
3436.14	 0.113952
3438.47	 0.111361
3440.8	 0.108199
3443.13	 0.105419
3445.46	 0.102044
3447.79	 0.100132
3450.12	 0.096053
3452.45	 0.0923833
3454.78	 0.0895528
3457.11	 0.0858573
3459.44	 0.0827985
3461.77	 0.0796877
3464.09	 0.0770219
3466.42	 0.0737286
3468.75	 0.0702641
3471.08	 0.0677409
3473.41	 0.0656673
3475.74	 0.0637061
3478.07	 0.0616621
3480.4	 0.0604252
3482.73	 0.0594436
3485.06	 0.0583561
3487.39	 0.0573312
3489.72	 0.0569291
3492.05	 0.0566215
3494.38	 0.0574495
3496.71	 0.0582758
3499.04	 0.0599905
3501.37	 0.0622464
3503.7	 0.0668959
3506.03	 0.0707604
3508.36	 0.0770094
3510.69	 0.0853823
3513.02	 0.0915393
3515.35	 0.0976936
3517.68	 0.101358
3520	 0.10019
3522.33	 0.0928934
3524.66	 0.0812147
3526.99	 0.0670078
3529.32	 0.0551214
3531.65	 0.0455597
3533.98	 0.0389395
3536.31	 0.0344534
3538.64	 0.031365
3540.97	 0.0292911
3543.3	 0.0278131
3545.63	 0.02688
3547.96	 0.0258035
3550.29	 0.024121
3552.62	 0.0235299
3554.95	 0.0221145
3557.28	 0.0221841
3559.61	 0.0222201
3561.94	 0.0220927
3564.27	 0.0223531
3566.6	 0.0238565
3568.93	 0.0231325
3571.26	 0.0207359
3573.59	 0.0206663
3575.91	 0.020542
3578.24	 0.0204803
3580.57	 0.020619
3582.9	 0.0205664
3585.23	 0.0211836
3587.56	 0.0227516
3589.89	 0.0214944
3592.22	 0.0207537
3594.55	 0.0219966
3596.88	 0.0213384
3599.21	 0.0209303
3601.54	 0.0209797
3603.87	 0.0208417
3606.2	 0.0209842
3608.53	 0.0223121
3610.86	 0.0214385
3613.19	 0.0229922
3615.52	 0.0218777
3617.85	 0.0214674
3620.18	 0.0228347
3622.51	 0.0212105
3624.84	 0.02149
3627.17	 0.0226161
3629.5	 0.0263022
3631.82	 0.0214766
3634.15	 0.0218415
3636.48	 0.0199709
3638.81	 0.0203226
3641.14	 0.020565
3643.47	 0.0213155
3645.8	 0.0225433
3648.13	 0.0256348
3650.46	 0.0258377
3652.79	 0.0225124
3655.12	 0.0219836
3657.45	 0.0223246
3659.78	 0.0206221
3662.11	 0.0203287
3664.44	 0.0202814
3666.77	 0.0214108
3669.1	 0.0242581
3671.43	 0.0252572
3673.76	 0.0233156
3676.09	 0.0265345
3678.42	 0.0220823
3680.75	 0.0221915
3683.08	 0.0215327
3685.41	 0.0224352
3687.73	 0.0242568
3690.06	 0.0254282
3692.39	 0.0232581
3694.72	 0.02192
3697.05	 0.0222245
3699.38	 0.0218443
3701.71	 0.0227144
3704.04	 0.0219857
3706.37	 0.0224106
3708.7	 0.0236671
3711.03	 0.024968
3713.36	 0.0253655
3715.69	 0.0221101
3718.02	 0.0222702
3720.35	 0.0227202
3722.68	 0.023564
3725.01	 0.0226805
3727.34	 0.0235886
3729.67	 0.0218252
3732	 0.0243781
3734.33	 0.0243526
3736.66	 0.0242242
3738.99	 0.022651
3741.32	 0.0233063
3743.64	 0.0247565
3745.97	 0.0292289
3748.3	 0.0247957
3750.63	 0.0278698
3752.96	 0.0273565
3755.29	 0.0234376
3757.62	 0.0248029
3759.95	 0.0250114
3762.28	 0.0232559
3764.61	 0.0239954
3766.94	 0.025647
3769.27	 0.0246261
3771.6	 0.024291
3773.93	 0.0233823
3776.26	 0.0236878
3778.59	 0.0245036
3780.92	 0.0253579
3783.25	 0.0235041
3785.58	 0.0238406
3787.91	 0.0228887
3790.24	 0.0227929
3792.57	 0.0227484
3794.9	 0.0229341
3797.23	 0.0254652
3799.56	 0.0247997
3801.88	 0.0275126
3804.21	 0.0238575
3806.54	 0.0243406
3808.87	 0.0235827
3811.2	 0.0227021
3813.53	 0.0235391
3815.86	 0.0259986
3818.19	 0.0248719
3820.52	 0.0264671
3822.85	 0.0259582
3825.18	 0.0231429
3827.51	 0.0242749
3829.84	 0.0233737
3832.17	 0.0252254
3834.5	 0.0250334
3836.83	 0.0266692
3839.16	 0.0272005
3841.49	 0.0256098
3843.82	 0.023529
3846.15	 0.0234082
3848.48	 0.023564
3850.81	 0.0255314
3853.14	 0.0303854
3855.47	 0.0283224
3857.79	 0.0238115
3860.12	 0.023768
3862.45	 0.0260453
3864.78	 0.0257315
3867.11	 0.0256329
3869.44	 0.0263498
3871.77	 0.0260611
3874.1	 0.0254588
3876.43	 0.0241647
3878.76	 0.0245743
3881.09	 0.0276775
3883.42	 0.0248844
3885.75	 0.0259239
3888.08	 0.0245033
3890.41	 0.0244846
3892.74	 0.0260377
3895.07	 0.024472
3897.4	 0.0251201
3899.73	 0.0280029
3902.06	 0.0280514
3904.39	 0.0268933
3906.72	 0.0260093
3909.05	 0.0243057
3911.38	 0.0246863
3913.7	 0.0251273
3916.03	 0.0258176
3918.36	 0.0272687
3920.69	 0.0262424
3923.02	 0.0255868
3925.35	 0.0266524
3927.68	 0.0253016
3930.01	 0.026157
3932.34	 0.0261577
3934.67	 0.0256959
3937	 0.0248398
3939.33	 0.0252714
3941.66	 0.0256082
3943.99	 0.0261047
3946.32	 0.0252906
3948.65	 0.0263565
3950.98	 0.0258166
3953.31	 0.0251211
3955.64	 0.025244
3957.97	 0.0251803
3960.3	 0.0251985
3962.63	 0.0253205
3964.96	 0.0248807
3967.29	 0.0250038
3969.61	 0.0252405
3971.94	 0.0249516
3974.27	 0.0249155
3976.6	 0.0249614
3978.93	 0.0246417
3981.26	 0.0248443
3983.59	 0.0247681
3985.92	 0.0248208
3988.25	 0.0246234
3990.58	 0.0247301
3992.91	 0.024708
3995.24	 0.0249301
3997.57	 0.0246788
3999.9	 0.0247721