File: FTIR/crystalline_CBD_2022-10-07T14-17-41_BKG.txt
DATATYPE	 IR Spectrum
XYUNITS	 Wavenumber;Arbitrary
DECIMALSYMBOL	 .
649.955	 2.11168e+06
652.284	 2.25059e+06
654.614	 2.42054e+06
656.943	 2.59541e+06
659.273	 2.76986e+06
661.602	 3.00079e+06
663.932	 3.23836e+06
666.262	 3.12762e+06
668.591	 2.29718e+06
670.921	 3.69311e+06
673.25	 3.8887e+06
675.58	 4.01406e+06
677.91	 4.15719e+06
680.239	 4.33301e+06
682.569	 4.50908e+06
684.898	 4.68469e+06
687.228	 4.84891e+06
689.557	 5.03474e+06
691.887	 5.26408e+06
694.217	 5.43808e+06
696.546	 5.6356e+06
698.876	 5.84161e+06
701.205	 6.0324e+06
703.535	 6.20633e+06
705.865	 6.37405e+06
708.194	 6.56791e+06
710.524	 6.74726e+06
712.853	 6.91864e+06
715.183	 7.10316e+06
717.513	 7.27737e+06
719.842	 7.36943e+06
722.172	 7.62914e+06
724.501	 7.80978e+06
726.831	 7.99269e+06
729.16	 8.17308e+06
731.49	 8.35162e+06
733.82	 8.53584e+06
736.149	 8.73033e+06
738.479	 8.91942e+06
740.808	 9.07748e+06
743.138	 9.2744e+06
745.468	 9.47042e+06
747.797	 9.67324e+06
750.127	 9.87921e+06
752.456	 1.00691e+07
754.786	 1.02775e+07
757.115	 1.05174e+07
759.445	 1.07721e+07
761.775	 1.10075e+07
764.104	 1.1255e+07
766.434	 1.15309e+07
768.763	 1.17855e+07
771.093	 1.1988e+07
773.423	 1.21896e+07
775.752	 1.23863e+07
778.082	 1.25743e+07
780.411	 1.27628e+07
782.741	 1.29738e+07
785.071	 1.31809e+07
787.4	 1.3384e+07
789.73	 1.35881e+07
792.059	 1.37907e+07
794.389	 1.39708e+07
796.718	 1.41612e+07
799.048	 1.4357e+07
801.378	 1.4605e+07
803.707	 1.482e+07
806.037	 1.50636e+07
808.366	 1.53039e+07
810.696	 1.5531e+07
813.026	 1.57668e+07
815.355	 1.59885e+07
817.685	 1.6222e+07
820.014	 1.64562e+07
822.344	 1.66923e+07
824.673	 1.69314e+07
827.003	 1.71643e+07
829.333	 1.74121e+07
831.662	 1.76421e+07
833.992	 1.78372e+07
836.321	 1.8009e+07
838.651	 1.81915e+07
840.981	 1.83592e+07
843.31	 1.85263e+07
845.64	 1.87311e+07
847.969	 1.90022e+07
850.299	 1.9291e+07
852.629	 1.95772e+07
854.958	 1.98721e+07
857.288	 2.01685e+07
859.617	 2.04476e+07
861.947	 2.06961e+07
864.276	 2.09389e+07
866.606	 2.12049e+07
868.936	 2.14942e+07
871.265	 2.18119e+07
873.595	 2.21436e+07
875.924	 2.24796e+07
878.254	 2.28095e+07
880.584	 2.31329e+07
882.913	 2.34335e+07
885.243	 2.37386e+07
887.572	 2.40501e+07
889.902	 2.43564e+07
892.231	 2.4644e+07
894.561	 2.49469e+07
896.891	 2.52465e+07
899.22	 2.55429e+07
901.55	 2.58404e+07
903.879	 2.61413e+07
906.209	 2.64328e+07
908.539	 2.67276e+07
910.868	 2.70304e+07
913.198	 2.73354e+07
915.527	 2.76259e+07
917.857	 2.79072e+07
920.187	 2.8182e+07
922.516	 2.84646e+07
924.846	 2.87479e+07
927.175	 2.90194e+07
929.505	 2.9278e+07
931.834	 2.95529e+07
934.164	 2.98328e+07
936.494	 3.00898e+07
938.823	 3.03477e+07
941.153	 3.05969e+07
943.482	 3.08591e+07
945.812	 3.10935e+07
948.142	 3.1329e+07
950.471	 3.15981e+07
952.801	 3.18596e+07
955.13	 3.2109e+07
957.46	 3.23653e+07
959.789	 3.26257e+07
962.119	 3.28962e+07
964.449	 3.31623e+07
966.778	 3.3421e+07
969.108	 3.36893e+07
971.437	 3.3967e+07
973.767	 3.42554e+07
976.097	 3.45631e+07
978.426	 3.48606e+07
980.756	 3.50892e+07
983.085	 3.52924e+07
985.415	 3.55128e+07
987.745	 3.57535e+07
990.074	 3.5996e+07
992.404	 3.62219e+07
994.733	 3.64367e+07
997.063	 3.66464e+07
999.392	 3.68388e+07
1001.72	 3.70198e+07
1004.05	 3.71883e+07
1006.38	 3.7349e+07
1008.71	 3.74928e+07
1011.04	 3.76382e+07
1013.37	 3.77875e+07
1015.7	 3.79299e+07
1018.03	 3.80709e+07
1020.36	 3.82149e+07
1022.69	 3.8352e+07
1025.02	 3.84917e+07
1027.35	 3.86191e+07
1029.68	 3.87186e+07
1032.01	 3.87513e+07
1034.34	 3.88268e+07
1036.67	 3.89309e+07
1039	 3.89294e+07
1041.33	 3.88936e+07
1043.65	 3.88703e+07
1045.98	 3.88738e+07
1048.31	 3.88634e+07
1050.64	 3.88219e+07
1052.97	 3.88228e+07
1055.3	 3.88394e+07
1057.63	 3.88371e+07
1059.96	 3.88286e+07
1062.29	 3.87953e+07
1064.62	 3.87508e+07
1066.95	 3.87127e+07
1069.28	 3.8721e+07
1071.61	 3.87271e+07
1073.94	 3.87527e+07
1076.27	 3.88246e+07
1078.6	 3.89262e+07
1080.93	 3.9074e+07
1083.26	 3.92544e+07
1085.59	 3.94506e+07
1087.92	 3.96711e+07
1090.25	 3.99221e+07
1092.58	 4.01982e+07
1094.91	 4.04854e+07
1097.24	 4.07722e+07
1099.56	 4.1072e+07
1101.89	 4.13827e+07
1104.22	 4.16871e+07
1106.55	 4.19618e+07
1108.88	 4.22611e+07
1111.21	 4.25189e+07
1113.54	 4.278e+07
1115.87	 4.30332e+07
1118.2	 4.33003e+07
1120.53	 4.35422e+07
1122.86	 4.37786e+07
1125.19	 4.39827e+07
1127.52	 4.41718e+07
1129.85	 4.43681e+07
1132.18	 4.4559e+07
1134.51	 4.47303e+07
1136.84	 4.49049e+07
1139.17	 4.51033e+07
1141.5	 4.52596e+07
1143.83	 4.54e+07
1146.16	 4.55318e+07
1148.49	 4.56579e+07
1150.82	 4.57902e+07
1153.15	 4.59211e+07
1155.47	 4.6056e+07
1157.8	 4.61554e+07
1160.13	 4.62279e+07
1162.46	 4.62787e+07
1164.79	 4.63305e+07
1167.12	 4.64102e+07
1169.45	 4.64763e+07
1171.78	 4.65331e+07
1174.11	 4.65088e+07
1176.44	 4.66669e+07
1178.77	 4.67254e+07
1181.1	 4.67937e+07
1183.43	 4.68873e+07
1185.76	 4.69856e+07
1188.09	 4.7096e+07
1190.42	 4.72084e+07
1192.75	 4.72413e+07
1195.08	 4.72612e+07
1197.41	 4.7232e+07
1199.74	 4.72286e+07
1202.07	 4.7212e+07
1204.4	 4.7191e+07
1206.73	 4.71859e+07
1209.06	 4.71754e+07
1211.38	 4.71093e+07
1213.71	 4.71648e+07
1216.04	 4.71963e+07
1218.37	 4.71889e+07
1220.7	 4.72493e+07
1223.03	 4.72488e+07
1225.36	 4.71522e+07
1227.69	 4.72396e+07
1230.02	 4.71848e+07
1232.35	 4.71061e+07
1234.68	 4.70273e+07
1237.01	 4.69416e+07
1239.34	 4.68399e+07
1241.67	 4.67103e+07
1244	 4.64553e+07
1246.33	 4.63741e+07
1248.66	 4.60986e+07
1250.99	 4.57813e+07
1253.32	 4.55266e+07
1255.65	 4.53816e+07
1257.98	 4.52006e+07
1260.31	 4.47561e+07
1262.64	 4.49861e+07
1264.97	 4.49258e+07
1267.29	 4.4925e+07
1269.62	 4.48207e+07
1271.95	 4.46939e+07
1274.28	 4.50376e+07
1276.61	 4.49491e+07
1278.94	 4.48388e+07
1281.27	 4.47357e+07
1283.6	 4.46348e+07
1285.93	 4.44342e+07
1288.26	 4.40754e+07
1290.59	 4.42238e+07
1292.92	 4.42078e+07
1295.25	 4.40246e+07
1297.58	 4.38398e+07
1299.91	 4.3784e+07
1302.24	 4.36238e+07
1304.57	 4.34355e+07
1306.9	 4.3212e+07
1309.23	 4.29704e+07
1311.56	 4.25383e+07
1313.89	 4.19559e+07
1316.22	 4.19062e+07
1318.55	 4.11966e+07
1320.88	 4.18395e+07
1323.2	 4.2078e+07
1325.53	 4.2037e+07
1327.86	 4.19135e+07
1330.19	 4.17357e+07
1332.52	 4.15852e+07
1334.85	 4.10974e+07
1337.18	 3.92475e+07
1339.51	 3.77097e+07
1341.84	 4.06907e+07
1344.17	 4.12319e+07
1346.5	 4.10745e+07
1348.83	 4.06769e+07
1351.16	 4.07951e+07
1353.49	 4.0527e+07
1355.82	 4.01679e+07
1358.15	 3.9854e+07
1360.48	 3.78309e+07
1362.81	 3.55881e+07
1365.14	 3.97503e+07
1367.47	 3.93034e+07
1369.8	 3.88002e+07
1372.13	 3.81942e+07
1374.46	 3.49353e+07
1376.79	 3.87568e+07
1379.11	 3.86559e+07
1381.44	 3.9129e+07
1383.77	 3.85994e+07
1386.1	 3.63051e+07
1388.43	 3.53693e+07
1390.76	 3.79897e+07
1393.09	 3.58336e+07
1395.42	 3.16236e+07
1397.75	 3.44957e+07
1400.08	 3.4315e+07
1402.41	 3.72384e+07
1404.74	 3.42476e+07
1407.07	 3.73081e+07
1409.4	 3.69664e+07
1411.73	 3.63574e+07
1414.06	 3.61354e+07
1416.39	 3.28898e+07
1418.72	 2.72214e+07
1421.05	 3.35739e+07
1423.38	 3.3279e+07
1425.71	 3.52344e+07
1428.04	 3.46433e+07
1430.37	 3.18751e+07
1432.7	 3.39242e+07
1435.03	 3.1549e+07
1437.35	 2.60738e+07
1439.68	 3.5289e+07
1442.01	 3.5161e+07
1444.34	 3.4649e+07
1446.67	 3.28936e+07
1449	 3.20076e+07
1451.33	 3.31428e+07
1453.66	 3.12279e+07
1455.99	 2.23454e+07
1458.32	 2.38864e+07
1460.65	 3.30247e+07
1462.98	 3.27589e+07
1465.31	 2.79706e+07
1467.64	 3.39515e+07
1469.97	 3.17392e+07
1472.3	 2.29802e+07
1474.63	 2.89625e+07
1476.96	 3.00757e+07
1479.29	 3.47878e+07
1481.62	 3.34215e+07
1483.95	 3.42126e+07
1486.28	 3.07739e+07
1488.61	 2.80403e+07
1490.94	 2.68598e+07
1493.26	 3.30492e+07
1495.59	 2.73827e+07
1497.92	 2.85912e+07
1500.25	 3.10984e+07
1502.58	 3.05858e+07
1504.91	 2.28209e+07
1507.24	 1.6428e+07
1509.57	 2.61483e+07
1511.9	 2.82886e+07
1514.23	 2.92094e+07
1516.56	 2.35254e+07
1518.89	 2.58172e+07
1521.22	 1.84029e+07
1523.55	 2.51424e+07
1525.88	 2.45493e+07
1528.21	 2.72437e+07
1530.54	 2.97342e+07
1532.87	 2.44135e+07
1535.2	 2.66162e+07
1537.53	 2.44232e+07
1539.86	 1.3971e+07
1542.19	 1.90826e+07
1544.52	 2.42958e+07
1546.85	 2.88345e+07
1549.17	 2.75078e+07
1551.5	 2.76963e+07
1553.83	 2.304e+07
1556.16	 2.27363e+07
1558.49	 1.22019e+07
1560.82	 1.94098e+07
1563.15	 2.86794e+07
1565.48	 2.63943e+07
1567.81	 2.70655e+07
1570.14	 2.21804e+07
1572.47	 2.80467e+07
1574.8	 2.45906e+07
1577.13	 2.15881e+07
1579.46	 2.85361e+07
1581.79	 2.85233e+07
1584.12	 2.82869e+07
1586.45	 2.80095e+07
1588.78	 2.75682e+07
1591.11	 2.70728e+07
1593.44	 2.66321e+07
1595.77	 2.60948e+07
1598.1	 2.61086e+07
1600.43	 2.53831e+07
1602.76	 2.44225e+07
1605.08	 2.40529e+07
1607.41	 2.27118e+07
1609.74	 2.17568e+07
1612.07	 2.15558e+07
1614.4	 1.96583e+07
1616.73	 1.41507e+07
1619.06	 1.94087e+07
1621.39	 1.85622e+07
1623.72	 1.54819e+07
1626.05	 1.88701e+07
1628.38	 1.74079e+07
1630.71	 1.93039e+07
1633.04	 1.80338e+07
1635.37	 1.23139e+07
1637.7	 1.74996e+07
1640.03	 2.04815e+07
1642.36	 2.02885e+07
1644.69	 1.83404e+07
1647.02	 1.44414e+07
1649.35	 1.82492e+07
1651.68	 1.48564e+07
1654.01	 1.19413e+07
1656.34	 2.23271e+07
1658.67	 2.35082e+07
1660.99	 2.2714e+07
1663.32	 2.01414e+07
1665.65	 2.37935e+07
1667.98	 2.09652e+07
1670.31	 1.89284e+07
1672.64	 2.18486e+07
1674.97	 1.90137e+07
1677.3	 2.38603e+07
1679.63	 2.23698e+07
1681.96	 2.06531e+07
1684.29	 1.36505e+07
1686.62	 2.26753e+07
1688.95	 2.32073e+07
1691.28	 2.39446e+07
1693.61	 2.27261e+07
1695.94	 1.46052e+07
1698.27	 1.95905e+07
1700.6	 1.24092e+07
1702.93	 2.29301e+07
1705.26	 2.08639e+07
1707.59	 2.30231e+07
1709.92	 2.41698e+07
1712.25	 2.36981e+07
1714.58	 1.919e+07
1716.9	 1.78134e+07
1719.23	 1.9634e+07
1721.56	 2.48423e+07
1723.89	 2.40984e+07
1726.22	 2.47028e+07
1728.55	 2.33616e+07
1730.88	 2.06223e+07
1733.21	 1.69243e+07
1735.54	 1.85498e+07
1737.87	 2.24496e+07
1740.2	 1.9183e+07
1742.53	 2.21864e+07
1744.86	 2.17236e+07
1747.19	 2.03524e+07
1749.52	 1.92006e+07
1751.85	 1.8688e+07
1754.18	 2.30101e+07
1756.51	 2.08823e+07
1758.84	 2.2215e+07
1761.17	 2.04341e+07
1763.5	 2.1782e+07
1765.83	 2.19931e+07
1768.16	 1.88015e+07
1770.49	 1.91726e+07
1772.82	 1.6086e+07
1775.14	 2.0701e+07
1777.47	 2.11853e+07
1779.8	 2.02158e+07
1782.13	 2.04553e+07
1784.46	 1.99627e+07
1786.79	 2.05597e+07
1789.12	 1.97843e+07
1791.45	 1.6975e+07
1793.78	 1.76221e+07
1796.11	 1.90861e+07
1798.44	 1.90381e+07
1800.77	 1.79239e+07
1803.1	 1.85633e+07
1805.43	 1.91961e+07
1807.76	 1.84933e+07
1810.09	 1.76825e+07
1812.42	 1.76669e+07
1814.75	 1.76206e+07
1817.08	 1.66018e+07
1819.41	 1.62155e+07
1821.74	 1.57037e+07
1824.07	 1.47524e+07
1826.4	 1.40472e+07
1828.73	 1.38333e+07
1831.05	 1.3408e+07
1833.38	 1.46251e+07
1835.71	 1.43493e+07
1838.04	 1.38104e+07
1840.37	 1.35482e+07
1842.7	 1.23888e+07
1845.03	 1.08543e+07
1847.36	 1.26894e+07
1849.69	 1.28107e+07
1852.02	 1.26675e+07
1854.35	 1.24286e+07
1856.68	 1.21801e+07
1859.01	 1.18898e+07
1861.34	 1.16572e+07
1863.67	 1.13528e+07
1866	 1.06922e+07
1868.33	 9.68708e+06
1870.66	 1.01595e+07
1872.99	 1.07034e+07
1875.32	 1.05164e+07
1877.65	 1.0311e+07
1879.98	 1.00815e+07
1882.31	 9.87037e+06
1884.64	 9.56497e+06
1886.96	 9.34546e+06
1889.29	 8.65194e+06
1891.62	 8.96706e+06
1893.95	 8.76431e+06
1896.28	 8.51684e+06
1898.61	 8.50795e+06
1900.94	 8.3167e+06
1903.27	 8.10431e+06
1905.6	 7.89218e+06
1907.93	 7.60505e+06
1910.26	 7.35252e+06
1912.59	 7.36164e+06
1914.92	 7.11202e+06
1917.25	 6.61753e+06
1919.58	 6.57099e+06
1921.91	 6.46708e+06
1924.24	 6.2357e+06
1926.57	 6.19025e+06
1928.9	 5.95629e+06
1931.23	 5.72348e+06
1933.56	 5.48662e+06
1935.89	 5.28048e+06
1938.22	 5.04222e+06
1940.55	 4.77552e+06
1942.87	 4.33548e+06
1945.2	 4.43139e+06
1947.53	 4.27233e+06
1949.86	 4.12014e+06
1952.19	 3.94158e+06
1954.52	 3.74696e+06
1956.85	 3.54113e+06
1959.18	 3.30567e+06
1961.51	 3.11494e+06
1963.84	 2.98567e+06
1966.17	 2.82118e+06
1968.5	 2.70528e+06
1970.83	 2.65517e+06
1973.16	 2.54915e+06
1975.49	 2.47234e+06
1977.82	 2.45982e+06
1980.15	 2.6542e+06
1982.48	 2.82614e+06
1984.81	 2.92165e+06
1987.14	 2.96662e+06
1989.47	 2.98543e+06
1991.8	 2.93893e+06
1994.13	 3.03223e+06
1996.46	 3.0348e+06
1998.78	 2.98385e+06
2001.11	 2.89288e+06
2003.44	 2.76184e+06
2005.77	 2.59802e+06
2008.1	 2.49247e+06
2010.43	 2.48124e+06
2012.76	 2.45206e+06
2015.09	 2.41173e+06
2017.42	 2.34676e+06
2019.75	 2.355e+06
2022.08	 2.34175e+06
2024.41	 2.32104e+06
2026.74	 2.30394e+06
2029.07	 2.29734e+06
2031.4	 2.29812e+06
2033.73	 2.32622e+06
2036.06	 2.41999e+06
2038.39	 2.54454e+06
2040.72	 2.64457e+06
2043.05	 2.76126e+06
2045.38	 2.88568e+06
2047.71	 3.03127e+06
2050.04	 3.26692e+06
2052.37	 3.62194e+06
2054.69	 3.7277e+06
2057.02	 3.87895e+06
2059.35	 3.97366e+06
2061.68	 4.05694e+06
2064.01	 4.13202e+06
2066.34	 4.21823e+06
2068.67	 4.34559e+06
2071	 4.45635e+06
2073.33	 4.56764e+06
2075.66	 4.69473e+06
2077.99	 4.82602e+06
2080.32	 4.96184e+06
2082.65	 5.08259e+06
2084.98	 5.17192e+06
2087.31	 5.22704e+06
2089.64	 5.23197e+06
2091.97	 5.20914e+06
2094.3	 5.1157e+06
2096.63	 5.07037e+06
2098.96	 5.11187e+06
2101.29	 5.16027e+06
2103.62	 5.19798e+06
2105.95	 5.24014e+06
2108.28	 5.27997e+06
2110.61	 5.32208e+06
2112.93	 5.3615e+06
2115.26	 5.37757e+06
2117.59	 5.34932e+06
2119.92	 5.25423e+06
2122.25	 5.12146e+06
2124.58	 4.93681e+06
2126.91	 4.71129e+06
2129.24	 4.4336e+06
2131.57	 4.1124e+06
2133.9	 3.75709e+06
2136.23	 3.4963e+06
2138.56	 3.30945e+06
2140.89	 3.1279e+06
2143.22	 2.94399e+06
2145.55	 2.77246e+06
2147.88	 2.60653e+06
2150.21	 2.46044e+06
2152.54	 2.2873e+06
2154.87	 2.08608e+06
2157.2	 1.88007e+06
2159.53	 1.75737e+06
2161.86	 1.89745e+06
2164.19	 2.0406e+06
2166.52	 2.16746e+06
2168.84	 2.28706e+06
2171.17	 2.35566e+06
2173.5	 2.38249e+06
2175.83	 2.38558e+06
2178.16	 2.42051e+06
2180.49	 2.44245e+06
2182.82	 2.46952e+06
2185.15	 2.54829e+06
2187.48	 2.63124e+06
2189.81	 2.71125e+06
2192.14	 2.78426e+06
2194.47	 2.85364e+06
2196.8	 2.91615e+06
2199.13	 2.97731e+06
2201.46	 3.0369e+06
2203.79	 3.09331e+06
2206.12	 3.14433e+06
2208.45	 3.19684e+06
2210.78	 3.25274e+06
2213.11	 3.3086e+06
2215.44	 3.36241e+06
2217.77	 3.42694e+06
2220.1	 3.49053e+06
2222.43	 3.55866e+06
2224.75	 3.62864e+06
2227.08	 3.7096e+06
2229.41	 3.79042e+06
2231.74	 3.87632e+06
2234.07	 3.967e+06
2236.4	 4.05905e+06
2238.73	 4.15822e+06
2241.06	 4.25142e+06
2243.39	 4.34955e+06
2245.72	 4.44409e+06
2248.05	 4.53643e+06
2250.38	 4.62216e+06
2252.71	 4.70194e+06
2255.04	 4.78967e+06
2257.37	 4.92879e+06
2259.7	 5.06382e+06
2262.03	 5.1884e+06
2264.36	 5.30859e+06
2266.69	 5.44974e+06
2269.02	 5.61959e+06
2271.35	 5.80943e+06
2273.68	 6.01992e+06
2276.01	 6.24702e+06
2278.34	 6.50593e+06
2280.66	 6.80322e+06
2282.99	 7.14337e+06
2285.32	 7.51344e+06
2287.65	 7.8822e+06
2289.98	 8.22727e+06
2292.31	 8.5437e+06
2294.64	 8.81301e+06
2296.97	 9.0448e+06
2299.3	 9.25163e+06
2301.63	 9.4269e+06
2303.96	 9.57387e+06
2306.29	 9.67038e+06
2308.62	 9.73986e+06
2310.95	 9.76915e+06
2313.28	 9.75426e+06
2315.61	 9.76849e+06
2317.94	 9.81328e+06
2320.27	 9.85572e+06
2322.6	 1.01048e+07
2324.93	 1.04809e+07
2327.26	 1.04484e+07
2329.59	 1.01272e+07
2331.92	 9.88546e+06
2334.25	 9.80335e+06
2336.57	 9.64588e+06
2338.9	 9.5701e+06
2341.23	 9.62474e+06
2343.56	 9.95163e+06
2345.89	 1.05173e+07
2348.22	 1.14481e+07
2350.55	 1.10488e+07
2352.88	 9.46508e+06
2355.21	 8.43145e+06
2357.54	 7.89164e+06
2359.87	 7.59634e+06
2362.2	 7.50383e+06
2364.53	 7.56483e+06
2366.86	 7.85547e+06
2369.19	 8.1845e+06
2371.52	 8.77048e+06
2373.85	 9.42165e+06
2376.18	 1.00686e+07
2378.51	 1.06412e+07
2380.84	 1.10604e+07
2383.17	 1.12368e+07
2385.5	 1.12265e+07
2387.83	 1.11111e+07
2390.16	 1.09493e+07
2392.48	 1.07681e+07
2394.81	 1.05764e+07
2397.14	 1.03958e+07
2399.47	 1.02312e+07
2401.8	 1.00516e+07
2404.13	 9.88151e+06
2406.46	 9.72241e+06
2408.79	 9.62101e+06
2411.12	 9.53011e+06
2413.45	 9.4293e+06
2415.78	 9.33396e+06
2418.11	 9.24036e+06
2420.44	 9.14779e+06
2422.77	 9.05718e+06
2425.1	 8.97886e+06
2427.43	 8.90795e+06
2429.76	 8.84103e+06
2432.09	 8.77762e+06
2434.42	 8.7263e+06
2436.75	 8.68654e+06
2439.08	 8.64696e+06
2441.41	 8.61869e+06
2443.74	 8.60071e+06
2446.07	 8.59355e+06
2448.4	 8.58812e+06
2450.72	 8.59408e+06
2453.05	 8.60895e+06
2455.38	 8.62553e+06
2457.71	 8.63127e+06
2460.04	 8.61773e+06
2462.37	 8.59866e+06
2464.7	 8.57386e+06
2467.03	 8.53809e+06
2469.36	 8.5006e+06
2471.69	 8.46386e+06
2474.02	 8.431e+06
2476.35	 8.38914e+06
2478.68	 8.35138e+06
2481.01	 8.32102e+06
2483.34	 8.28879e+06
2485.67	 8.25659e+06
2488	 8.23177e+06
2490.33	 8.21048e+06
2492.66	 8.19309e+06
2494.99	 8.17417e+06
2497.32	 8.15275e+06
2499.65	 8.13312e+06
2501.98	 8.12005e+06
2504.31	 8.09792e+06
2506.63	 8.07967e+06
2508.96	 8.05991e+06
2511.29	 8.0474e+06
2513.62	 8.03156e+06
2515.95	 8.01456e+06
2518.28	 8.00083e+06
2520.61	 7.99546e+06
2522.94	 7.98765e+06
2525.27	 7.97802e+06
2527.6	 7.97712e+06
2529.93	 7.97519e+06
2532.26	 7.9762e+06
2534.59	 7.98076e+06
2536.92	 7.98194e+06
2539.25	 7.99721e+06
2541.58	 8.00673e+06
2543.91	 8.02019e+06
2546.24	 8.03963e+06
2548.57	 8.06359e+06
2550.9	 8.08628e+06
2553.23	 8.11152e+06
2555.56	 8.14329e+06
2557.89	 8.17966e+06
2560.22	 8.21744e+06
2562.54	 8.2578e+06
2564.87	 8.30645e+06
2567.2	 8.36275e+06
2569.53	 8.41912e+06
2571.86	 8.4756e+06
2574.19	 8.54598e+06
2576.52	 8.62077e+06
2578.85	 8.69802e+06
2581.18	 8.77651e+06
2583.51	 8.86851e+06
2585.84	 8.96468e+06
2588.17	 9.06302e+06
2590.5	 9.16896e+06
2592.83	 9.28338e+06
2595.16	 9.40934e+06
2597.49	 9.53868e+06
2599.82	 9.67189e+06
2602.15	 9.82057e+06
2604.48	 9.97941e+06
2606.81	 1.01405e+07
2609.14	 1.03139e+07
2611.47	 1.04936e+07
2613.8	 1.06935e+07
2616.13	 1.08951e+07
2618.45	 1.11072e+07
2620.78	 1.13302e+07
2623.11	 1.15644e+07
2625.44	 1.18136e+07
2627.77	 1.20723e+07
2630.1	 1.23418e+07
2632.43	 1.2619e+07
2634.76	 1.29132e+07
2637.09	 1.32114e+07
2639.42	 1.35248e+07
2641.75	 1.38425e+07
2644.08	 1.41576e+07
2646.41	 1.44796e+07
2648.74	 1.48058e+07
2651.07	 1.51225e+07
2653.4	 1.54259e+07
2655.73	 1.57064e+07
2658.06	 1.59565e+07
2660.39	 1.61629e+07
2662.72	 1.63003e+07
2665.05	 1.63634e+07
2667.38	 1.6368e+07
2669.71	 1.63532e+07
2672.04	 1.63257e+07
2674.36	 1.62999e+07
2676.69	 1.62677e+07
2679.02	 1.62464e+07
2681.35	 1.62218e+07
2683.68	 1.61857e+07
2686.01	 1.61448e+07
2688.34	 1.61059e+07
2690.67	 1.60721e+07
2693	 1.60309e+07
2695.33	 1.59984e+07
2697.66	 1.59628e+07
2699.99	 1.5928e+07
2702.32	 1.58903e+07
2704.65	 1.58553e+07
2706.98	 1.58207e+07
2709.31	 1.57851e+07
2711.64	 1.57501e+07
2713.97	 1.57116e+07
2716.3	 1.5674e+07
2718.63	 1.56334e+07
2720.96	 1.55922e+07
2723.29	 1.55648e+07
2725.62	 1.55319e+07
2727.95	 1.55204e+07
2730.27	 1.54663e+07
2732.6	 1.54275e+07
2734.93	 1.53909e+07
2737.26	 1.53555e+07
2739.59	 1.53214e+07
2741.92	 1.52805e+07
2744.25	 1.52426e+07
2746.58	 1.52066e+07
2748.91	 1.51884e+07
2751.24	 1.51642e+07
2753.57	 1.51209e+07
2755.9	 1.50807e+07
2758.23	 1.50422e+07
2760.56	 1.50084e+07
2762.89	 1.49714e+07
2765.22	 1.49329e+07
2767.55	 1.48957e+07
2769.88	 1.48582e+07
2772.21	 1.48189e+07
2774.54	 1.47867e+07
2776.87	 1.47809e+07
2779.2	 1.47269e+07
2781.53	 1.46832e+07
2783.86	 1.46375e+07
2786.19	 1.45941e+07
2788.51	 1.45567e+07
2790.84	 1.45447e+07
2793.17	 1.45107e+07
2795.5	 1.44534e+07
2797.83	 1.4417e+07
2800.16	 1.44081e+07
2802.49	 1.43495e+07
2804.82	 1.43015e+07
2807.15	 1.42544e+07
2809.48	 1.42164e+07
2811.81	 1.41987e+07
2814.14	 1.4145e+07
2816.47	 1.40997e+07
2818.8	 1.40604e+07
2821.13	 1.4017e+07
2823.46	 1.39711e+07
2825.79	 1.39314e+07
2828.12	 1.38795e+07
2830.45	 1.38233e+07
2832.78	 1.37767e+07
2835.11	 1.37239e+07
2837.44	 1.36683e+07
2839.77	 1.36423e+07
2842.1	 1.35514e+07
2844.42	 1.34442e+07
2846.75	 1.33377e+07
2849.08	 1.3258e+07
2851.41	 1.31658e+07
2853.74	 1.31193e+07
2856.07	 1.30995e+07
2858.4	 1.30913e+07
2860.73	 1.3097e+07
2863.06	 1.30804e+07
2865.39	 1.30555e+07
2867.72	 1.3025e+07
2870.05	 1.29779e+07
2872.38	 1.29478e+07
2874.71	 1.29667e+07
2877.04	 1.29182e+07
2879.37	 1.28712e+07
2881.7	 1.2827e+07
2884.03	 1.27847e+07
2886.36	 1.27346e+07
2888.69	 1.2681e+07
2891.02	 1.26226e+07
2893.35	 1.25649e+07
2895.68	 1.25122e+07
2898.01	 1.24702e+07
2900.33	 1.23936e+07
2902.66	 1.23231e+07
2904.99	 1.22551e+07
2907.32	 1.21675e+07
2909.65	 1.20796e+07
2911.98	 1.19934e+07
2914.31	 1.19217e+07
2916.64	 1.18294e+07
2918.97	 1.17436e+07
2921.3	 1.16576e+07
2923.63	 1.15928e+07
2925.96	 1.15498e+07
2928.29	 1.15276e+07
2930.62	 1.15573e+07
2932.95	 1.15509e+07
2935.28	 1.15373e+07
2937.61	 1.15375e+07
2939.94	 1.15324e+07
2942.27	 1.15164e+07
2944.6	 1.15198e+07
2946.93	 1.15005e+07
2949.26	 1.14783e+07
2951.59	 1.1404e+07
2953.92	 1.13669e+07
2956.24	 1.12929e+07
2958.57	 1.12373e+07
2960.9	 1.11959e+07
2963.23	 1.11726e+07
2965.56	 1.1153e+07
2967.89	 1.11344e+07
2970.22	 1.11182e+07
2972.55	 1.11012e+07
2974.88	 1.10879e+07
2977.21	 1.1089e+07
2979.54	 1.1062e+07
2981.87	 1.10635e+07
2984.2	 1.10406e+07
2986.53	 1.09952e+07
2988.86	 1.09452e+07
2991.19	 1.0914e+07
2993.52	 1.09031e+07
2995.85	 1.08573e+07
2998.18	 1.08397e+07
3000.51	 1.07937e+07
3002.84	 1.07329e+07
3005.17	 1.06733e+07
3007.5	 1.06279e+07
3009.83	 1.05582e+07
3012.15	 1.05258e+07
3014.48	 1.05212e+07
3016.81	 1.04988e+07
3019.14	 1.04721e+07
3021.47	 1.04242e+07
3023.8	 1.03518e+07
3026.13	 1.03088e+07
3028.46	 1.02392e+07
3030.79	 1.01594e+07
3033.12	 1.01118e+07
3035.45	 1.01232e+07
3037.78	 1.00922e+07
3040.11	 1.00332e+07
3042.44	 1.00141e+07
3044.77	 9.98167e+06
3047.1	 9.93254e+06
3049.43	 9.84181e+06
3051.76	 9.83922e+06
3054.09	 9.78014e+06
3056.42	 9.70872e+06
3058.75	 9.68477e+06
3061.08	 9.62467e+06
3063.41	 9.5643e+06
3065.74	 9.49123e+06
3068.06	 9.49737e+06
3070.39	 9.48588e+06
3072.72	 9.42083e+06
3075.05	 9.35725e+06
3077.38	 9.30142e+06
3079.71	 9.27172e+06
3082.04	 9.2532e+06
3084.37	 9.21897e+06
3086.7	 9.18459e+06
3089.03	 9.13413e+06
3091.36	 9.09632e+06
3093.69	 9.02596e+06
3096.02	 8.93486e+06
3098.35	 8.90082e+06
3100.68	 8.85624e+06
3103.01	 8.81546e+06
3105.34	 8.7846e+06
3107.67	 8.7312e+06
3110	 8.70571e+06
3112.33	 8.63395e+06
3114.66	 8.57163e+06
3116.99	 8.53601e+06
3119.32	 8.51931e+06
3121.65	 8.50674e+06
3123.98	 8.41738e+06
3126.3	 8.38458e+06
3128.63	 8.33916e+06
3130.96	 8.30927e+06
3133.29	 8.22727e+06
3135.62	 8.20856e+06
3137.95	 8.16911e+06
3140.28	 8.14727e+06
3142.61	 8.09542e+06
3144.94	 8.04327e+06
3147.27	 7.99022e+06
3149.6	 7.93534e+06
3151.93	 7.89943e+06
3154.26	 7.8904e+06
3156.59	 7.82928e+06
3158.92	 7.77483e+06
3161.25	 7.72432e+06
3163.58	 7.67726e+06
3165.91	 7.63001e+06
3168.24	 7.57999e+06
3170.57	 7.53197e+06
3172.9	 7.48957e+06
3175.23	 7.4396e+06
3177.56	 7.38029e+06
3179.89	 7.33639e+06
3182.21	 7.31537e+06
3184.54	 7.26591e+06
3186.87	 7.21813e+06
3189.2	 7.19064e+06
3191.53	 7.15117e+06
3193.86	 7.10601e+06
3196.19	 7.04923e+06
3198.52	 6.99337e+06
3200.85	 6.98408e+06
3203.18	 6.95315e+06
3205.51	 6.91115e+06
3207.84	 6.87185e+06
3210.17	 6.81661e+06
3212.5	 6.79612e+06
3214.83	 6.74102e+06
3217.16	 6.73683e+06
3219.49	 6.69711e+06
3221.82	 6.67664e+06
3224.15	 6.65958e+06
3226.48	 6.6251e+06
3228.81	 6.58979e+06
3231.14	 6.56643e+06
3233.47	 6.55486e+06
3235.8	 6.55216e+06
3238.12	 6.51273e+06
3240.45	 6.48952e+06
3242.78	 6.46189e+06
3245.11	 6.4208e+06
3247.44	 6.43593e+06
3249.77	 6.427e+06
3252.1	 6.39223e+06
3254.43	 6.35034e+06
3256.76	 6.35383e+06
3259.09	 6.33218e+06
3261.42	 6.30816e+06
3263.75	 6.29008e+06
3266.08	 6.26245e+06
3268.41	 6.24599e+06
3270.74	 6.22425e+06
3273.07	 6.20567e+06
3275.4	 6.16575e+06
3277.73	 6.15055e+06
3280.06	 6.13779e+06
3282.39	 6.11317e+06
3284.72	 6.07888e+06
3287.05	 6.05649e+06
3289.38	 6.00877e+06
3291.71	 5.98278e+06
3294.03	 5.97585e+06
3296.36	 5.95643e+06
3298.69	 5.91566e+06
3301.02	 5.88223e+06
3303.35	 5.84665e+06
3305.68	 5.82973e+06
3308.01	 5.80512e+06
3310.34	 5.75878e+06
3312.67	 5.72911e+06
3315	 5.69185e+06
3317.33	 5.65933e+06
3319.66	 5.62101e+06
3321.99	 5.58197e+06
3324.32	 5.54127e+06
3326.65	 5.51643e+06
3328.98	 5.48031e+06
3331.31	 5.44636e+06
3333.64	 5.40184e+06
3335.97	 5.34958e+06
3338.3	 5.32359e+06
3340.63	 5.32225e+06
3342.96	 5.27825e+06
3345.29	 5.2421e+06
3347.62	 5.19631e+06
3349.94	 5.16001e+06
3352.27	 5.14422e+06
3354.6	 5.0842e+06
3356.93	 5.02702e+06
3359.26	 4.99473e+06
3361.59	 4.95268e+06
3363.92	 4.91075e+06
3366.25	 4.86359e+06
3368.58	 4.86659e+06
3370.91	 4.86077e+06
3373.24	 4.81517e+06
3375.57	 4.77107e+06
3377.9	 4.7437e+06
3380.23	 4.70061e+06
3382.56	 4.66289e+06
3384.89	 4.60884e+06
3387.22	 4.58245e+06
3389.55	 4.5508e+06
3391.88	 4.5185e+06
3394.21	 4.4808e+06
3396.54	 4.46175e+06
3398.87	 4.41694e+06
3401.2	 4.42837e+06
3403.53	 4.40291e+06
3405.85	 4.36047e+06
3408.18	 4.32512e+06
3410.51	 4.30195e+06
3412.84	 4.26568e+06
3415.17	 4.24125e+06
3417.5	 4.19678e+06
3419.83	 4.13809e+06
3422.16	 4.09801e+06
3424.49	 4.10717e+06
3426.82	 4.0889e+06
3429.15	 4.06151e+06
3431.48	 4.04556e+06
3433.81	 4.01779e+06
3436.14	 4.01513e+06
3438.47	 3.98929e+06
3440.8	 3.94351e+06
3443.13	 3.88131e+06
3445.46	 3.86621e+06
3447.79	 3.7821e+06
3450.12	 3.85627e+06
3452.45	 3.84389e+06
3454.78	 3.81957e+06
3457.11	 3.78834e+06
3459.44	 3.76423e+06
3461.77	 3.74271e+06
3464.09	 3.7144e+06
3466.42	 3.71262e+06
3468.75	 3.71103e+06
3471.08	 3.71736e+06
3473.41	 3.67921e+06
3475.74	 3.63544e+06
3478.07	 3.63221e+06
3480.4	 3.60363e+06
3482.73	 3.54818e+06
3485.06	 3.58333e+06
3487.39	 3.56896e+06
3489.72	 3.54863e+06
3492.05	 3.56106e+06
3494.38	 3.5395e+06
3496.71	 3.49974e+06
3499.04	 3.51276e+06
3501.37	 3.46677e+06
3503.7	 3.39482e+06
3506.03	 3.46085e+06
3508.36	 3.47661e+06
3510.69	 3.41153e+06
3513.02	 3.48326e+06
3515.35	 3.50422e+06
3517.68	 3.48231e+06
3520	 3.45041e+06
3522.33	 3.4119e+06
3524.66	 3.35013e+06
3526.99	 3.37898e+06
3529.32	 3.38302e+06
3531.65	 3.46235e+06
3533.98	 3.50469e+06
3536.31	 3.47112e+06
3538.64	 3.50168e+06
3540.97	 3.50619e+06
3543.3	 3.45698e+06
3545.63	 3.35451e+06
3547.96	 3.38952e+06
3550.29	 3.53622e+06
3552.62	 3.4727e+06
3554.95	 3.55551e+06
3557.28	 3.60055e+06
3559.61	 3.56215e+06
3561.94	 3.49234e+06
3564.27	 3.41803e+06
3566.6	 3.18989e+06
3568.93	 3.21979e+06
3571.26	 3.70511e+06
3573.59	 3.77757e+06
3575.91	 3.75964e+06
3578.24	 3.76828e+06
3580.57	 3.76748e+06
3582.9	 3.78221e+06
3585.23	 3.66586e+06
3587.56	 3.3302e+06
3589.89	 3.5183e+06
3592.22	 3.92054e+06
3594.55	 3.78817e+06
3596.88	 3.81862e+06
3599.21	 3.97099e+06
3601.54	 3.98059e+06
3603.87	 4.11747e+06
3606.2	 4.05817e+06
3608.53	 3.73897e+06
3610.86	 3.76493e+06
3613.19	 3.83451e+06
3615.52	 3.99915e+06
3617.85	 4.02267e+06
3620.18	 3.83144e+06
3622.51	 4.35681e+06
3624.84	 4.47229e+06
3627.17	 4.15135e+06
3629.5	 3.47878e+06
3631.82	 4.38127e+06
3634.15	 4.69546e+06
3636.48	 4.93031e+06
3638.81	 4.92475e+06
3641.14	 4.94523e+06
3643.47	 4.76986e+06
3645.8	 4.54439e+06
3648.13	 3.6983e+06
3650.46	 3.67942e+06
3652.79	 4.43396e+06
3655.12	 4.98592e+06
3657.45	 4.56036e+06
3659.78	 5.29935e+06
3662.11	 5.28269e+06
3664.44	 5.20415e+06
3666.77	 4.97455e+06
3669.1	 4.31108e+06
3671.43	 3.87211e+06
3673.76	 4.51536e+06
3676.09	 3.59382e+06
3678.42	 4.65021e+06
3680.75	 4.94247e+06
3683.08	 5.24926e+06
3685.41	 5.06247e+06
3687.73	 4.63738e+06
3690.06	 4.10047e+06
3692.39	 4.64217e+06
3694.72	 5.35857e+06
3697.05	 5.36582e+06
3699.38	 5.33892e+06
3701.71	 5.03791e+06
3704.04	 5.13258e+06
3706.37	 5.26186e+06
3708.7	 4.9707e+06
3711.03	 4.43617e+06
3713.36	 4.41054e+06
3715.69	 5.36047e+06
3718.02	 5.40711e+06
3720.35	 5.11782e+06
3722.68	 4.93802e+06
3725.01	 5.02002e+06
3727.34	 4.81902e+06
3729.67	 5.09682e+06
3732	 4.53214e+06
3734.33	 4.18236e+06
3736.66	 3.92023e+06
3738.99	 4.6352e+06
3741.32	 4.81618e+06
3743.64	 4.31189e+06
3745.97	 3.40544e+06
3748.3	 4.58269e+06
3750.63	 3.8081e+06
3752.96	 4.2421e+06
3755.29	 5.37323e+06
3757.62	 5.28708e+06
3759.95	 5.31108e+06
3762.28	 5.69687e+06
3764.61	 5.76409e+06
3766.94	 5.41453e+06
3769.27	 5.68603e+06
3771.6	 5.48302e+06
3773.93	 6.14061e+06
3776.26	 6.10837e+06
3778.59	 5.90664e+06
3780.92	 5.62249e+06
3783.25	 6.14552e+06
3785.58	 5.97522e+06
3787.91	 6.19036e+06
3790.24	 6.19105e+06
3792.57	 6.10474e+06
3794.9	 5.87742e+06
3797.23	 5.28739e+06
3799.56	 5.46414e+06
3801.88	 4.65707e+06
3804.21	 5.34804e+06
3806.54	 5.50435e+06
3808.87	 5.33617e+06
3811.2	 6.041e+06
3813.53	 5.82085e+06
3815.86	 5.12677e+06
3818.19	 4.98165e+06
3820.52	 5.08233e+06
3822.85	 4.75534e+06
3825.18	 5.84098e+06
3827.51	 5.59463e+06
3829.84	 5.79389e+06
3832.17	 5.30455e+06
3834.5	 5.36936e+06
3836.83	 4.90604e+06
3839.16	 4.52027e+06
3841.49	 5.1878e+06
3843.82	 5.56347e+06
3846.15	 5.74667e+06
3848.48	 5.754e+06
3850.81	 5.16537e+06
3853.14	 4.04722e+06
3855.47	 4.05495e+06
3857.79	 5.60514e+06
3860.12	 5.82453e+06
3862.45	 5.36455e+06
3864.78	 5.25091e+06
3867.11	 5.23348e+06
3869.44	 5.18922e+06
3871.77	 4.93355e+06
3874.1	 5.57363e+06
3876.43	 5.63573e+06
3878.76	 5.8246e+06
3881.09	 5.15316e+06
3883.42	 5.62658e+06
3885.75	 5.31321e+06
3888.08	 5.53441e+06
3890.41	 5.75638e+06
3892.74	 5.23777e+06
3895.07	 5.85492e+06
3897.4	 5.75918e+06
3899.73	 5.12253e+06
3902.06	 5.12513e+06
3904.39	 5.16284e+06
3906.72	 5.61306e+06
3909.05	 6.15658e+06
3911.38	 6.15379e+06
3913.7	 6.07877e+06
3916.03	 5.8974e+06
3918.36	 5.56154e+06
3920.69	 5.79883e+06
3923.02	 5.95332e+06
3925.35	 5.7547e+06
3927.68	 5.95915e+06
3930.01	 5.88087e+06
3932.34	 5.75966e+06
3934.67	 5.878e+06
3937	 6.06896e+06
3939.33	 6.013e+06
3941.66	 5.93271e+06
3943.99	 5.70343e+06
3946.32	 5.95252e+06
3948.65	 5.8096e+06
3950.98	 5.85223e+06
3953.31	 5.99861e+06
3955.64	 6.00833e+06
3957.97	 5.97674e+06
3960.3	 5.97581e+06
3962.63	 5.92284e+06
3964.96	 5.98603e+06
3967.29	 5.98062e+06
3969.61	 5.93728e+06
3971.94	 5.92895e+06
3974.27	 5.89662e+06
3976.6	 5.89572e+06
3978.93	 5.92303e+06
3981.26	 5.90604e+06
3983.59	 5.88886e+06
3985.92	 5.89283e+06
3988.25	 5.87343e+06
3990.58	 5.83962e+06
3992.91	 5.83481e+06
3995.24	 5.82355e+06
3997.57	 5.82379e+06
3999.9	 5.82033e+06