File: FTIR/db-LASE IR data/AgNPr-LASE lasered at 45C/Silk AgNPr film 45C 2 9.22.22.dpt
3997.65	0.00317
3993.54	0.00255
3989.42	0.00300
3985.3	0.00171
3981.18	0.00078
3977.06	0.00140
3972.94	0.00181
3968.82	0.00331
3964.7	0.00236
3960.58	0.00279
3956.46	0.00232
3952.34	0.00145
3948.22	0.00030
3944.11	0.00081
3939.99	0.00149
3935.87	0.00126
3931.75	0.00186
3927.63	0.00247
3923.51	0.00214
3919.39	0.00196
3915.27	0.00203
3911.15	0.00088
3907.03	0.00039
3902.91	0.00108
3898.79	0.00058
3894.68	0.00052
3890.56	0.00114
3886.44	0.00064
3882.32	0.00143
3878.2	-0.00047
3874.08	-0.00062
3869.96	-0.00010
3865.84	0.00009
3861.72	0.00038
3857.6	0.00056
3853.48	0.00036
3849.36	0.00046
3845.25	0.00205
3841.13	0.00171
3837.01	0.00176
3832.89	0.00190
3828.77	0.00096
3824.65	0.00086
3820.53	0.00218
3816.41	0.00099
3812.29	0.00184
3808.17	0.00131
3804.05	0.00025
3799.93	0.00021
3795.82	0.00144
3791.7	0.00241
3787.58	0.00258
3783.46	0.00237
3779.34	0.00233
3775.22	0.00231
3771.1	0.00089
3766.98	-0.00048
3762.86	0.00069
3758.74	0.00215
3754.62	0.00237
3750.5	0.00216
3746.39	0.00236
3742.27	0.00118
3738.15	0.00064
3734.03	0.00095
3729.91	0.00234
3725.79	0.00203
3721.67	0.00248
3717.55	0.00370
3713.43	0.00367
3709.31	0.00338
3705.19	0.00406
3701.07	0.00390
3696.96	0.00486
3692.84	0.00546
3688.72	0.00560
3684.6	0.00576
3680.48	0.00795
3676.36	0.00984
3672.24	0.01055
3668.12	0.01187
3664	0.01531
3659.88	0.01706
3655.76	0.02016
3651.64	0.02364
3647.53	0.02758
3643.41	0.02962
3639.29	0.03173
3635.17	0.03434
3631.05	0.03637
3626.93	0.04006
3622.81	0.04474
3618.69	0.04878
3614.57	0.05166
3610.45	0.05514
3606.33	0.06073
3602.21	0.06434
3598.1	0.06878
3593.98	0.07233
3589.86	0.07585
3585.74	0.08292
3581.62	0.08560
3577.5	0.08964
3573.38	0.09526
3569.26	0.09928
3565.14	0.10528
3561.02	0.11011
3556.9	0.11416
3552.78	0.11739
3548.67	0.12341
3544.55	0.12931
3540.43	0.13403
3536.31	0.13885
3532.19	0.14329
3528.07	0.14746
3523.95	0.15227
3519.83	0.15551
3515.71	0.15919
3511.59	0.16299
3507.47	0.16785
3503.35	0.17056
3499.24	0.17480
3495.12	0.17661
3491	0.17953
3486.88	0.18240
3482.76	0.18607
3478.64	0.18768
3474.52	0.19062
3470.4	0.19384
3466.28	0.19614
3462.16	0.19811
3458.04	0.19973
3453.92	0.20265
3449.81	0.20513
3445.69	0.20713
3441.57	0.20977
3437.45	0.21174
3433.33	0.21392
3429.21	0.21704
3425.09	0.22001
3420.97	0.22364
3416.85	0.22796
3412.73	0.23105
3408.61	0.23408
3404.49	0.23903
3400.38	0.24212
3396.26	0.24662
3392.14	0.25092
3388.02	0.25415
3383.9	0.25903
3379.78	0.26389
3375.66	0.26823
3371.54	0.27279
3367.42	0.27817
3363.3	0.28332
3359.18	0.28866
3355.06	0.29347
3350.95	0.29943
3346.83	0.30515
3342.71	0.31102
3338.59	0.31843
3334.47	0.32569
3330.35	0.33267
3326.23	0.33885
3322.11	0.34575
3317.99	0.35167
3313.87	0.35822
3309.75	0.36570
3305.63	0.37303
3301.52	0.37779
3297.4	0.38328
3293.28	0.38842
3289.16	0.39190
3285.04	0.39485
3280.92	0.39585
3276.8	0.39689
3272.68	0.39726
3268.56	0.39642
3264.44	0.39326
3260.32	0.38952
3256.2	0.38514
3252.09	0.37831
3247.97	0.37171
3243.85	0.36617
3239.73	0.36119
3235.61	0.35599
3231.49	0.34966
3227.37	0.34351
3223.25	0.33717
3219.13	0.33122
3215.01	0.32460
3210.89	0.31696
3206.77	0.30946
3202.65	0.30197
3198.54	0.29508
3194.42	0.28466
3190.3	0.27544
3186.18	0.26730
3182.06	0.25841
3177.94	0.24940
3173.82	0.23983
3169.7	0.23086
3165.58	0.22199
3161.46	0.21365
3157.34	0.20586
3153.22	0.19873
3149.11	0.19176
3144.99	0.18562
3140.87	0.17974
3136.75	0.17473
3132.63	0.17076
3128.51	0.16788
3124.39	0.16585
3120.27	0.16542
3116.15	0.16503
3112.03	0.16471
3107.91	0.16560
3103.79	0.16650
3099.68	0.16844
3095.56	0.17070
3091.44	0.17394
3087.32	0.17687
3083.2	0.17931
3079.08	0.18193
3074.96	0.18311
3070.84	0.18370
3066.72	0.18359
3062.6	0.18027
3058.48	0.17694
3054.36	0.17342
3050.25	0.16863
3046.13	0.16187
3042.01	0.15520
3037.89	0.14814
3033.77	0.14163
3029.65	0.13547
3025.53	0.12943
3021.41	0.12376
3017.29	0.11966
3013.17	0.11646
3009.05	0.11190
3004.93	0.11032
3000.82	0.10988
2996.7	0.11147
2992.58	0.11385
2988.46	0.11569
2984.34	0.11801
2980.22	0.11857
2976.1	0.11674
2971.98	0.11503
2967.86	0.11325
2963.74	0.11142
2959.62	0.11007
2955.5	0.10904
2951.39	0.11187
2947.27	0.11708
2943.15	0.12331
2939.03	0.12658
2934.91	0.12560
2930.79	0.12043
2926.67	0.11022
2922.55	0.09474
2918.43	0.07366
2914.31	0.06187
2910.19	0.06943
2906.07	0.07248
2901.96	0.07138
2897.84	0.06983
2893.72	0.06879
2889.6	0.06850
2885.48	0.06947
2881.36	0.07092
2877.24	0.07038
2873.12	0.06849
2869	0.06483
2864.88	0.06145
2860.76	0.05835
2856.64	0.05434
2852.53	0.04483
2848.41	0.03174
2844.29	0.03955
2840.17	0.04756
2836.05	0.05020
2831.93	0.05048
2827.81	0.05041
2823.69	0.05073
2819.57	0.05001
2815.45	0.04926
2811.33	0.04887
2807.21	0.04784
2803.1	0.04657
2798.98	0.04460
2794.86	0.04381
2790.74	0.04232
2786.62	0.04067
2782.5	0.03923
2778.38	0.03772
2774.26	0.03662
2770.14	0.03556
2766.02	0.03362
2761.9	0.03249
2757.78	0.03182
2753.67	0.03099
2749.55	0.03031
2745.43	0.02960
2741.31	0.02814
2737.19	0.02656
2733.07	0.02598
2728.95	0.02593
2724.83	0.02540
2720.71	0.02423
2716.59	0.02413
2712.47	0.02394
2708.35	0.02323
2704.24	0.02297
2700.12	0.02198
2696	0.02167
2691.88	0.02174
2687.76	0.02166
2683.64	0.02111
2679.52	0.02076
2675.4	0.02065
2671.28	0.02050
2667.16	0.01989
2663.04	0.01959
2658.92	0.01957
2654.81	0.01944
2650.69	0.01930
2646.57	0.01940
2642.45	0.01871
2638.33	0.01907
2634.21	0.01863
2630.09	0.01879
2625.97	0.01870
2621.85	0.01805
2617.73	0.01755
2613.61	0.01692
2609.49	0.01699
2605.38	0.01687
2601.26	0.01591
2597.14	0.01521
2593.02	0.01454
2588.9	0.01473
2584.78	0.01398
2580.66	0.01423
2576.54	0.01358
2572.42	0.01278
2568.3	0.01194
2564.18	0.01236
2560.06	0.01229
2555.95	0.01209
2551.83	0.01151
2547.71	0.01139
2543.59	0.01058
2539.47	0.01128
2535.35	0.01083
2531.23	0.01088
2527.11	0.01092
2522.99	0.01102
2518.87	0.01111
2514.75	0.01134
2510.63	0.01068
2506.52	0.01059
2502.4	0.01094
2498.28	0.01061
2494.16	0.00984
2490.04	0.01058
2485.92	0.00991
2481.8	0.01049
2477.68	0.01049
2473.56	0.00976
2469.44	0.00995
2465.32	0.01033
2461.2	0.00996
2457.09	0.00928
2452.97	0.00941
2448.85	0.00930
2444.73	0.00948
2440.61	0.00861
2436.49	0.00873
2432.37	0.00897
2428.25	0.00900
2424.13	0.00876
2420.01	0.00850
2415.89	0.00832
2411.77	0.00861
2407.66	0.00831
2403.54	0.00794
2399.42	0.00802
2395.3	0.00843
2391.18	0.00821
2387.06	0.00802
2382.94	0.00767
2378.82	0.00759
2374.7	0.00757
2370.58	0.00787
2366.46	0.00722
2362.34	0.00761
2358.23	0.00818
2354.11	0.00825
2349.99	0.00909
2345.87	0.00828
2341.75	0.00787
2337.63	0.00870
2333.51	0.00934
2329.39	0.00863
2325.27	0.01023
2321.15	0.01047
2317.03	0.00946
2312.91	0.00969
2308.8	0.00947
2304.68	0.00968
2300.56	0.00973
2296.44	0.00956
2292.32	0.00953
2288.2	0.00982
2284.08	0.00977
2279.96	0.00925
2275.84	0.00931
2271.72	0.00964
2267.6	0.00987
2263.48	0.00908
2259.36	0.00928
2255.25	0.00801
2251.13	0.00834
2247.01	0.00863
2242.89	0.00881
2238.77	0.00961
2234.65	0.00975
2230.53	0.00919
2226.41	0.00858
2222.29	0.00831
2218.17	0.00828
2214.05	0.00776
2209.93	0.00923
2205.82	0.01029
2201.7	0.00831
2197.58	0.00947
2193.46	0.01084
2189.34	0.01090
2185.22	0.01061
2181.1	0.01035
2176.98	0.00963
2172.86	0.00803
2168.74	0.00995
2164.62	0.00913
2160.5	0.00805
2156.39	0.00443
2152.27	0.00535
2148.15	0.00526
2144.03	0.00564
2139.91	0.00807
2135.79	0.00810
2131.67	0.00678
2127.55	0.00867
2123.43	0.00968
2119.31	0.00987
2115.19	0.00989
2111.07	0.01020
2106.96	0.01053
2102.84	0.01064
2098.72	0.01035
2094.6	0.00995
2090.48	0.00976
2086.36	0.01016
2082.24	0.00951
2078.12	0.01038
2074	0.00977
2069.88	0.00913
2065.76	0.00984
2061.64	0.00905
2057.53	0.00951
2053.41	0.00833
2049.29	0.00799
2045.17	0.00576
2041.05	0.00643
2036.93	0.00697
2032.81	0.00559
2028.69	0.00454
2024.57	0.00479
2020.45	0.00567
2016.33	0.00700
2012.21	0.00853
2008.1	0.00652
2003.98	0.00596
1999.86	0.00646
1995.74	0.00587
1991.62	0.00565
1987.5	0.00610
1983.38	0.00599
1979.26	0.00640
1975.14	0.00497
1971.02	0.00571
1966.9	0.00443
1962.78	0.00548
1958.67	0.00677
1954.55	0.00671
1950.43	0.00608
1946.31	0.00503
1942.19	0.00584
1938.07	0.00596
1933.95	0.00540
1929.83	0.00545
1925.71	0.00597
1921.59	0.00599
1917.47	0.00588
1913.35	0.00687
1909.24	0.00692
1905.12	0.00696
1901	0.00641
1896.88	0.00604
1892.76	0.00677
1888.64	0.00650
1884.52	0.00680
1880.4	0.00663
1876.28	0.00678
1872.16	0.00690
1868.04	0.00717
1863.92	0.00697
1859.81	0.00678
1855.69	0.00666
1851.57	0.00678
1847.45	0.00662
1843.33	0.00703
1839.21	0.00728
1835.09	0.00764
1830.97	0.00811
1826.85	0.00853
1822.73	0.00849
1818.61	0.00825
1814.49	0.00830
1810.38	0.00888
1806.26	0.00941
1802.14	0.00961
1798.02	0.01006
1793.9	0.01076
1789.78	0.01086
1785.66	0.01138
1781.54	0.01180
1777.42	0.01196
1773.3	0.01209
1769.18	0.01239
1765.06	0.01289
1760.95	0.01371
1756.83	0.01438
1752.71	0.01533
1748.59	0.01626
1744.47	0.01691
1740.35	0.01785
1736.23	0.01866
1732.11	0.02009
1727.99	0.02181
1723.87	0.02421
1719.75	0.02739
1715.63	0.03470
1711.52	0.04417
1707.4	0.05757
1703.28	0.07630
1699.16	0.10222
1695.04	0.13208
1690.92	0.15586
1686.8	0.17951
1682.68	0.21426
1678.56	0.24096
1674.44	0.27070
1670.32	0.30317
1666.2	0.33770
1662.09	0.37051
1657.97	0.40082
1653.85	0.43077
1649.73	0.46523
1645.61	0.48691
1641.49	0.50017
1637.37	0.50342
1633.25	0.49854
1629.13	0.47873
1625.01	0.44470
1620.89	0.40108
1616.77	0.35700
1612.66	0.31325
1608.54	0.27018
1604.42	0.23240
1600.3	0.20849
1596.18	0.19416
1592.06	0.18333
1587.94	0.17740
1583.82	0.17904
1579.7	0.18621
1575.58	0.20291
1571.46	0.22306
1567.34	0.25062
1563.23	0.27435
1559.11	0.30452
1554.99	0.34123
1550.87	0.36584
1546.75	0.38785
1542.63	0.40659
1538.51	0.43092
1534.39	0.44268
1530.27	0.45324
1526.15	0.45710
1522.03	0.46126
1517.91	0.47329
1513.8	0.47855
1509.68	0.46161
1505.56	0.42076
1501.44	0.38394
1497.32	0.33959
1493.2	0.29728
1489.08	0.25819
1484.96	0.22576
1480.84	0.20424
1476.72	0.18930
1472.6	0.18031
1468.48	0.17862
1464.37	0.18270
1460.25	0.19105
1456.13	0.20557
1452.01	0.21153
1447.89	0.20633
1443.77	0.19292
1439.65	0.17752
1435.53	0.16360
1431.41	0.15663
1427.29	0.15720
1423.17	0.16433
1419.05	0.17602
1414.94	0.18796
1410.82	0.19314
1406.7	0.19132
1402.58	0.18384
1398.46	0.17734
1394.34	0.17674
1390.22	0.18023
1386.1	0.18492
1381.98	0.18714
1377.86	0.18559
1373.74	0.17925
1369.62	0.16795
1365.5	0.15430
1361.39	0.14180
1357.27	0.13454
1353.15	0.13268
1349.03	0.13598
1344.91	0.14312
1340.79	0.15189
1336.67	0.15912
1332.55	0.15970
1328.43	0.15413
1324.31	0.14559
1320.19	0.13883
1316.07	0.13674
1311.96	0.13802
1307.84	0.14066
1303.72	0.14403
1299.6	0.14766
1295.48	0.15107
1291.36	0.15405
1287.24	0.15676
1283.12	0.16005
1279	0.16464
1274.88	0.17171
1270.76	0.18003
1266.64	0.18862
1262.53	0.19709
1258.41	0.20623
1254.29	0.21710
1250.17	0.22874
1246.05	0.24003
1241.93	0.25028
1237.81	0.25680
1233.69	0.25777
1229.57	0.25115
1225.45	0.23670
1221.33	0.21604
1217.21	0.19279
1213.1	0.17090
1208.98	0.15271
1204.86	0.13756
1200.74	0.12491
1196.62	0.11558
1192.5	0.11018
1188.38	0.10769
1184.26	0.10815
1180.14	0.11245
1176.02	0.11977
1171.9	0.12529
1167.78	0.12658
1163.67	0.12507
1159.55	0.12142
1155.43	0.11640
1151.31	0.11089
1147.19	0.10508
1143.07	0.10053
1138.95	0.09713
1134.83	0.09529
1130.71	0.09461
1126.59	0.09506
1122.47	0.09556
1118.35	0.09623
1114.24	0.09647
1110.12	0.09730
1106	0.09882
1101.88	0.09840
1097.76	0.09549
1093.64	0.09465
1089.52	0.09730
1085.4	0.10309
1081.28	0.11026
1077.16	0.11661
1073.04	0.12062
1068.92	0.12196
1064.81	0.12169
1060.69	0.12253
1056.57	0.12341
1052.45	0.12072
1048.33	0.11424
1044.21	0.10659
1040.09	0.09989
1035.97	0.09558
1031.85	0.09391
1027.73	0.09303
1023.61	0.09313
1019.49	0.09944
1015.38	0.10639
1011.26	0.10421
1007.14	0.09361
1003.02	0.08198
998.899	0.07322
994.78	0.06715
990.66	0.06267
986.541	0.05949
982.422	0.05740
978.303	0.05637
974.184	0.05564
970.065	0.05548
965.945	0.05626
961.826	0.05796
957.707	0.05957
953.588	0.06133
949.469	0.06291
945.35	0.06370
941.23	0.06270
937.111	0.06061
932.992	0.05819
928.873	0.05601
924.754	0.05394
920.635	0.05193
916.515	0.05028
912.396	0.04880
908.277	0.04781
904.158	0.04721
900.039	0.04660
895.92	0.04634
891.8	0.04635
887.681	0.04666
883.562	0.04722
879.443	0.04797
875.324	0.04886
871.205	0.05027
867.085	0.05224
862.966	0.05516
858.847	0.05819
854.728	0.06085
850.609	0.06263
846.49	0.06267
842.37	0.06354
838.251	0.06586
834.132	0.06838
830.013	0.06942
825.894	0.06961
821.774	0.06934
817.655	0.06956
813.536	0.07106
809.417	0.07302
805.298	0.07481
801.179	0.07585
797.059	0.07655
792.94	0.07800
788.821	0.07967
784.702	0.08145
780.583	0.08342
776.464	0.08560
772.344	0.08745
768.225	0.08947
764.106	0.09204
759.987	0.09489
755.868	0.09764
751.749	0.10046
747.629	0.10380
743.51	0.10634
739.391	0.10900
735.272	0.11160
731.153	0.11378
727.034	0.11631
722.914	0.11903
718.795	0.12144
714.676	0.12412
710.557	0.12689
706.438	0.13003
702.319	0.13322
698.199	0.13560
694.08	0.13817
689.961	0.14048
685.842	0.14288
681.723	0.14554
677.604	0.14766
673.484	0.14951
669.365	0.15198
665.246	0.15363
661.127	0.15452
657.008	0.15536
652.889	0.15615
648.769	0.15660
644.65	0.15709
640.531	0.15717
636.412	0.15749
632.293	0.15729
628.173	0.15681
624.054	0.15638
619.935	0.15637
615.816	0.15683
611.697	0.15713
607.578	0.15776
603.458	0.15779
599.339	0.15823
595.22	0.15916
591.101	0.16001
586.982	0.16165
582.863	0.16323
578.743	0.16534
574.624	0.16745
570.505	0.16995
566.386	0.17295
562.267	0.17570
558.148	0.17836
554.028	0.18155
549.909	0.18444
545.79	0.18574
541.671	0.18688
537.552	0.18737
533.433	0.18691
529.313	0.18624
525.194	0.18561
521.075	0.18480
516.956	0.18359
512.837	0.18405
508.718	0.18386
504.598	0.18258
500.479	0.18136
496.36	0.18028
492.241	0.17963
488.122	0.17885
484.003	0.17739
479.883	0.17585
475.764	0.17395
471.645	0.17023
467.526	0.16833
463.407	0.16682
459.288	0.16531
455.168	0.16231
451.049	0.15980
446.93	0.15731
442.811	0.15606
438.692	0.15424
434.572	0.15321
430.453	0.15119
426.334	0.14940
422.215	0.14886
418.096	0.14879
413.977	0.14734
409.857	0.14660
405.738	0.14406
401.619	0.14191
399.56	0.14126