File: FTIR/db-LASE IR data/AgNPr-LASE lasered at 45C/Silk AgNPr film 45C 2 8.26.22.dpt
3997.65	-0.00239
3993.54	-0.00265
3989.42	-0.00229
3985.3	-0.00237
3981.18	-0.00161
3977.06	-0.00164
3972.94	-0.00174
3968.82	-0.00169
3964.7	-0.00138
3960.58	-0.00223
3956.46	-0.00185
3952.34	-0.00214
3948.22	-0.00348
3944.11	-0.00424
3939.99	-0.00272
3935.87	-0.00287
3931.75	-0.00234
3927.63	-0.00257
3923.51	-0.00281
3919.39	-0.00201
3915.27	-0.00157
3911.15	-0.00164
3907.03	-0.00263
3902.91	-0.00285
3898.79	-0.00201
3894.68	-0.00215
3890.56	-0.00132
3886.44	-0.00190
3882.32	-0.00249
3878.2	-0.00200
3874.08	-0.00174
3869.96	-0.00366
3865.84	-0.00183
3861.72	-0.00144
3857.6	-0.00245
3853.48	-0.00124
3849.36	-0.00117
3845.25	-0.00157
3841.13	-0.00290
3837.01	-0.00370
3832.89	-0.00263
3828.77	-0.00196
3824.65	-0.00229
3820.53	-0.00219
3816.41	-0.00260
3812.29	-0.00295
3808.17	-0.00242
3804.05	-0.00200
3799.93	-0.00258
3795.82	-0.00162
3791.7	-0.00148
3787.58	-0.00163
3783.46	-0.00156
3779.34	-0.00177
3775.22	-0.00108
3771.1	-0.00069
3766.98	-0.00134
3762.86	-0.00173
3758.74	-0.00141
3754.62	-0.00185
3750.5	-0.00077
3746.39	0.00022
3742.27	0.00019
3738.15	0.00130
3734.03	0.00174
3729.91	-0.00103
3725.79	-0.00076
3721.67	-0.00058
3717.55	-0.00188
3713.43	0.00013
3709.31	0.00008
3705.19	-0.00045
3701.07	-0.00111
3696.96	-0.00071
3692.84	0.00040
3688.72	0.00147
3684.6	0.00104
3680.48	0.00131
3676.36	0.00078
3672.24	0.00082
3668.12	0.00279
3664	0.00392
3659.88	0.00423
3655.76	0.00703
3651.64	0.00878
3647.53	0.00990
3643.41	0.01088
3639.29	0.01112
3635.17	0.01444
3631.05	0.01615
3626.93	0.01860
3622.81	0.02018
3618.69	0.02181
3614.57	0.02281
3610.45	0.02459
3606.33	0.02715
3602.21	0.02906
3598.1	0.03093
3593.98	0.03253
3589.86	0.03450
3585.74	0.03747
3581.62	0.03808
3577.5	0.03999
3573.38	0.04372
3569.26	0.04556
3565.14	0.04787
3561.02	0.05081
3556.9	0.05360
3552.78	0.05561
3548.67	0.05779
3544.55	0.05972
3540.43	0.06177
3536.31	0.06423
3532.19	0.06643
3528.07	0.06756
3523.95	0.07072
3519.83	0.07267
3515.71	0.07373
3511.59	0.07606
3507.47	0.07876
3503.35	0.07930
3499.24	0.08067
3495.12	0.08254
3491	0.08370
3486.88	0.08508
3482.76	0.08613
3478.64	0.08811
3474.52	0.08972
3470.4	0.09134
3466.28	0.09212
3462.16	0.09349
3458.04	0.09387
3453.92	0.09483
3449.81	0.09576
3445.69	0.09606
3441.57	0.09734
3437.45	0.09900
3433.33	0.10053
3429.21	0.10142
3425.09	0.10362
3420.97	0.10544
3416.85	0.10668
3412.73	0.10897
3408.61	0.11132
3404.49	0.11240
3400.38	0.11417
3396.26	0.11669
3392.14	0.11966
3388.02	0.12177
3383.9	0.12383
3379.78	0.12596
3375.66	0.12815
3371.54	0.13025
3367.42	0.13202
3363.3	0.13545
3359.18	0.13966
3355.06	0.14307
3350.95	0.14494
3346.83	0.14760
3342.71	0.15105
3338.59	0.15410
3334.47	0.15821
3330.35	0.16082
3326.23	0.16458
3322.11	0.16839
3317.99	0.17178
3313.87	0.17535
3309.75	0.17914
3305.63	0.18299
3301.52	0.18557
3297.4	0.18768
3293.28	0.19129
3289.16	0.19284
3285.04	0.19398
3280.92	0.19348
3276.8	0.19383
3272.68	0.19438
3268.56	0.19261
3264.44	0.19078
3260.32	0.18882
3256.2	0.18531
3252.09	0.18268
3247.97	0.18036
3243.85	0.17706
3239.73	0.17336
3235.61	0.17125
3231.49	0.16723
3227.37	0.16330
3223.25	0.15980
3219.13	0.15680
3215.01	0.15358
3210.89	0.14994
3206.77	0.14658
3202.65	0.14296
3198.54	0.13892
3194.42	0.13489
3190.3	0.13095
3186.18	0.12680
3182.06	0.12292
3177.94	0.11821
3173.82	0.11391
3169.7	0.10958
3165.58	0.10502
3161.46	0.10131
3157.34	0.09755
3153.22	0.09411
3149.11	0.09184
3144.99	0.08813
3140.87	0.08574
3136.75	0.08409
3132.63	0.08256
3128.51	0.08084
3124.39	0.07935
3120.27	0.07994
3116.15	0.08022
3112.03	0.08015
3107.91	0.08054
3103.79	0.08043
3099.68	0.08128
3095.56	0.08344
3091.44	0.08550
3087.32	0.08769
3083.2	0.08830
3079.08	0.08890
3074.96	0.08890
3070.84	0.08895
3066.72	0.08918
3062.6	0.08784
3058.48	0.08573
3054.36	0.08360
3050.25	0.08119
3046.13	0.07766
3042.01	0.07519
3037.89	0.07165
3033.77	0.06898
3029.65	0.06544
3025.53	0.06337
3021.41	0.06056
3017.29	0.05855
3013.17	0.05652
3009.05	0.05463
3004.93	0.05373
3000.82	0.05390
2996.7	0.05457
2992.58	0.05603
2988.46	0.05774
2984.34	0.05988
2980.22	0.06034
2976.1	0.05923
2971.98	0.05815
2967.86	0.05738
2963.74	0.05681
2959.62	0.05638
2955.5	0.05569
2951.39	0.05681
2947.27	0.06006
2943.15	0.06281
2939.03	0.06488
2934.91	0.06542
2930.79	0.06297
2926.67	0.05750
2922.55	0.04983
2918.43	0.04054
2914.31	0.03393
2910.19	0.03724
2906.07	0.03885
2901.96	0.03818
2897.84	0.03748
2893.72	0.03636
2889.6	0.03567
2885.48	0.03612
2881.36	0.03690
2877.24	0.03724
2873.12	0.03571
2869	0.03414
2864.88	0.03259
2860.76	0.03090
2856.64	0.02916
2852.53	0.02508
2848.41	0.01815
2844.29	0.02135
2840.17	0.02521
2836.05	0.02603
2831.93	0.02639
2827.81	0.02667
2823.69	0.02568
2819.57	0.02574
2815.45	0.02540
2811.33	0.02451
2807.21	0.02391
2803.1	0.02359
2798.98	0.02295
2794.86	0.02201
2790.74	0.02191
2786.62	0.02074
2782.5	0.01979
2778.38	0.01956
2774.26	0.01845
2770.14	0.01821
2766.02	0.01738
2761.9	0.01653
2757.78	0.01613
2753.67	0.01497
2749.55	0.01491
2745.43	0.01487
2741.31	0.01420
2737.19	0.01378
2733.07	0.01311
2728.95	0.01307
2724.83	0.01328
2720.71	0.01253
2716.59	0.01190
2712.47	0.01129
2708.35	0.01169
2704.24	0.01184
2700.12	0.01118
2696	0.01104
2691.88	0.01090
2687.76	0.01094
2683.64	0.01095
2679.52	0.01056
2675.4	0.01080
2671.28	0.01058
2667.16	0.01039
2663.04	0.01044
2658.92	0.01062
2654.81	0.01047
2650.69	0.01054
2646.57	0.01006
2642.45	0.00987
2638.33	0.00973
2634.21	0.00942
2630.09	0.00922
2625.97	0.00954
2621.85	0.00875
2617.73	0.00911
2613.61	0.00890
2609.49	0.00924
2605.38	0.00848
2601.26	0.00751
2597.14	0.00750
2593.02	0.00793
2588.9	0.00788
2584.78	0.00666
2580.66	0.00667
2576.54	0.00695
2572.42	0.00745
2568.3	0.00604
2564.18	0.00568
2560.06	0.00599
2555.95	0.00568
2551.83	0.00606
2547.71	0.00549
2543.59	0.00539
2539.47	0.00559
2535.35	0.00577
2531.23	0.00587
2527.11	0.00560
2522.99	0.00501
2518.87	0.00506
2514.75	0.00539
2510.63	0.00566
2506.52	0.00461
2502.4	0.00414
2498.28	0.00472
2494.16	0.00472
2490.04	0.00477
2485.92	0.00420
2481.8	0.00476
2477.68	0.00416
2473.56	0.00347
2469.44	0.00419
2465.32	0.00460
2461.2	0.00499
2457.09	0.00515
2452.97	0.00438
2448.85	0.00459
2444.73	0.00415
2440.61	0.00415
2436.49	0.00431
2432.37	0.00465
2428.25	0.00433
2424.13	0.00416
2420.01	0.00408
2415.89	0.00337
2411.77	0.00321
2407.66	0.00338
2403.54	0.00362
2399.42	0.00406
2395.3	0.00380
2391.18	0.00373
2387.06	0.00356
2382.94	0.00362
2378.82	0.00430
2374.7	0.00631
2370.58	0.00775
2366.46	0.00819
2362.34	0.00878
2358.23	0.00918
2354.11	0.00784
2349.99	0.00590
2345.87	0.00675
2341.75	0.00706
2337.63	0.00638
2333.51	0.00667
2329.39	0.00696
2325.27	0.00845
2321.15	0.00869
2317.03	0.00720
2312.91	0.00729
2308.8	0.00656
2304.68	0.00620
2300.56	0.00574
2296.44	0.00517
2292.32	0.00483
2288.2	0.00538
2284.08	0.00534
2279.96	0.00491
2275.84	0.00478
2271.72	0.00547
2267.6	0.00526
2263.48	0.00475
2259.36	0.00436
2255.25	0.00387
2251.13	0.00468
2247.01	0.00528
2242.89	0.00472
2238.77	0.00472
2234.65	0.00383
2230.53	0.00384
2226.41	0.00397
2222.29	0.00395
2218.17	0.00486
2214.05	0.00466
2209.93	0.00294
2205.82	0.00425
2201.7	0.00396
2197.58	0.00409
2193.46	0.00365
2189.34	0.00469
2185.22	0.00547
2181.1	0.00632
2176.98	0.00423
2172.86	0.00309
2168.74	0.00478
2164.62	0.00558
2160.5	0.00649
2156.39	0.00353
2152.27	0.00139
2148.15	0.00228
2144.03	0.00321
2139.91	0.00349
2135.79	0.00312
2131.67	0.00353
2127.55	0.00351
2123.43	0.00459
2119.31	0.00552
2115.19	0.00544
2111.07	0.00588
2106.96	0.00541
2102.84	0.00532
2098.72	0.00566
2094.6	0.00488
2090.48	0.00446
2086.36	0.00425
2082.24	0.00500
2078.12	0.00465
2074	0.00407
2069.88	0.00484
2065.76	0.00450
2061.64	0.00430
2057.53	0.00450
2053.41	0.00500
2049.29	0.00502
2045.17	0.00472
2041.05	0.00524
2036.93	0.00511
2032.81	0.00372
2028.69	0.00243
2024.57	0.00409
2020.45	0.00449
2016.33	0.00357
2012.21	0.00466
2008.1	0.00243
2003.98	0.00135
1999.86	0.00179
1995.74	0.00363
1991.62	0.00287
1987.5	0.00344
1983.38	0.00362
1979.26	0.00422
1975.14	0.00327
1971.02	0.00312
1966.9	0.00270
1962.78	0.00126
1958.67	0.00263
1954.55	0.00282
1950.43	0.00291
1946.31	0.00276
1942.19	0.00314
1938.07	0.00326
1933.95	0.00353
1929.83	0.00312
1925.71	0.00270
1921.59	0.00278
1917.47	0.00338
1913.35	0.00293
1909.24	0.00341
1905.12	0.00378
1901	0.00338
1896.88	0.00284
1892.76	0.00384
1888.64	0.00448
1884.52	0.00337
1880.4	0.00328
1876.28	0.00346
1872.16	0.00353
1868.04	0.00382
1863.92	0.00397
1859.81	0.00385
1855.69	0.00365
1851.57	0.00356
1847.45	0.00355
1843.33	0.00417
1839.21	0.00444
1835.09	0.00398
1830.97	0.00368
1826.85	0.00401
1822.73	0.00486
1818.61	0.00455
1814.49	0.00454
1810.38	0.00460
1806.26	0.00518
1802.14	0.00562
1798.02	0.00554
1793.9	0.00570
1789.78	0.00612
1785.66	0.00630
1781.54	0.00646
1777.42	0.00674
1773.3	0.00703
1769.18	0.00726
1765.06	0.00780
1760.95	0.00812
1756.83	0.00821
1752.71	0.00875
1748.59	0.00962
1744.47	0.01012
1740.35	0.01083
1736.23	0.01111
1732.11	0.01238
1727.99	0.01353
1723.87	0.01481
1719.75	0.01615
1715.63	0.02062
1711.52	0.02614
1707.4	0.03357
1703.28	0.04457
1699.16	0.05981
1695.04	0.07681
1690.92	0.09069
1686.8	0.10473
1682.68	0.12514
1678.56	0.13955
1674.44	0.15669
1670.32	0.17530
1666.2	0.19450
1662.09	0.21229
1657.97	0.22806
1653.85	0.24353
1649.73	0.26155
1645.61	0.27200
1641.49	0.27731
1637.37	0.27794
1633.25	0.27575
1629.13	0.26511
1625.01	0.24807
1620.89	0.22650
1616.77	0.20373
1612.66	0.18062
1608.54	0.15698
1604.42	0.13597
1600.3	0.12208
1596.18	0.11385
1592.06	0.10778
1587.94	0.10451
1583.82	0.10539
1579.7	0.10953
1575.58	0.11916
1571.46	0.12961
1567.34	0.14471
1563.23	0.15756
1559.11	0.17439
1554.99	0.19512
1550.87	0.20774
1546.75	0.21933
1542.63	0.22878
1538.51	0.24203
1534.39	0.24759
1530.27	0.25343
1526.15	0.25524
1522.03	0.25781
1517.91	0.26483
1513.8	0.26813
1509.68	0.25976
1505.56	0.24144
1501.44	0.22325
1497.32	0.20073
1493.2	0.17833
1489.08	0.15638
1484.96	0.13753
1480.84	0.12454
1476.72	0.11540
1472.6	0.11052
1468.48	0.10929
1464.37	0.11097
1460.25	0.11529
1456.13	0.12367
1452.01	0.12717
1447.89	0.12436
1443.77	0.11715
1439.65	0.10833
1435.53	0.10035
1431.41	0.09604
1427.29	0.09582
1423.17	0.09944
1419.05	0.10598
1414.94	0.11339
1410.82	0.11643
1406.7	0.11528
1402.58	0.11109
1398.46	0.10724
1394.34	0.10692
1390.22	0.10906
1386.1	0.11162
1381.98	0.11277
1377.86	0.11206
1373.74	0.10845
1369.62	0.10224
1365.5	0.09457
1361.39	0.08755
1357.27	0.08308
1353.15	0.08160
1349.03	0.08331
1344.91	0.08759
1340.79	0.09280
1336.67	0.09729
1332.55	0.09804
1328.43	0.09496
1324.31	0.08993
1320.19	0.08611
1316.07	0.08454
1311.96	0.08502
1307.84	0.08656
1303.72	0.08837
1299.6	0.09041
1295.48	0.09265
1291.36	0.09449
1287.24	0.09589
1283.12	0.09771
1279	0.10048
1274.88	0.10449
1270.76	0.10940
1266.64	0.11419
1262.53	0.11897
1258.41	0.12451
1254.29	0.13053
1250.17	0.13704
1246.05	0.14383
1241.93	0.14969
1237.81	0.15362
1233.69	0.15451
1229.57	0.15166
1225.45	0.14445
1221.33	0.13385
1217.21	0.12108
1213.1	0.10839
1208.98	0.09754
1204.86	0.08834
1200.74	0.08059
1196.62	0.07477
1192.5	0.07098
1188.38	0.06934
1184.26	0.06945
1180.14	0.07169
1176.02	0.07604
1171.9	0.07958
1167.78	0.08046
1163.67	0.07949
1159.55	0.07726
1155.43	0.07432
1151.31	0.07079
1147.19	0.06736
1143.07	0.06428
1138.95	0.06203
1134.83	0.06071
1130.71	0.05998
1126.59	0.05964
1122.47	0.05983
1118.35	0.05980
1114.24	0.05981
1110.12	0.05988
1106	0.06065
1101.88	0.06017
1097.76	0.05833
1093.64	0.05756
1089.52	0.05894
1085.4	0.06264
1081.28	0.06725
1077.16	0.07143
1073.04	0.07420
1068.92	0.07519
1064.81	0.07547
1060.69	0.07629
1056.57	0.07742
1052.45	0.07629
1048.33	0.07289
1044.21	0.06816
1040.09	0.06428
1035.97	0.06174
1031.85	0.06086
1027.73	0.06012
1023.61	0.05991
1019.49	0.06334
1015.38	0.06747
1011.26	0.06601
1007.14	0.05959
1003.02	0.05233
998.899	0.04661
994.78	0.04239
990.66	0.03928
986.541	0.03709
982.422	0.03617
978.303	0.03553
974.184	0.03519
970.065	0.03532
965.945	0.03612
961.826	0.03722
957.707	0.03827
953.588	0.03960
949.469	0.04040
945.35	0.04088
941.23	0.04055
937.111	0.03936
932.992	0.03804
928.873	0.03680
924.754	0.03548
920.635	0.03443
916.515	0.03308
912.396	0.03224
908.277	0.03157
904.158	0.03105
900.039	0.03088
895.92	0.03026
891.8	0.03020
887.681	0.03047
883.562	0.03100
879.443	0.03136
875.324	0.03176
871.205	0.03242
867.085	0.03364
862.966	0.03554
858.847	0.03781
854.728	0.03956
850.609	0.04057
846.49	0.04084
842.37	0.04173
838.251	0.04364
834.132	0.04505
830.013	0.04616
825.894	0.04607
821.774	0.04587
817.655	0.04639
813.536	0.04723
809.417	0.04846
805.298	0.04963
801.179	0.05031
797.059	0.05086
792.94	0.05162
788.821	0.05272
784.702	0.05429
780.583	0.05561
776.464	0.05694
772.344	0.05843
768.225	0.05985
764.106	0.06144
759.987	0.06315
755.868	0.06516
751.749	0.06726
747.629	0.06932
743.51	0.07124
739.391	0.07303
735.272	0.07484
731.153	0.07650
727.034	0.07813
722.914	0.07986
718.795	0.08176
714.676	0.08338
710.557	0.08522
706.438	0.08751
702.319	0.08993
698.199	0.09145
694.08	0.09319
689.961	0.09475
685.842	0.09653
681.723	0.09816
677.604	0.09982
673.484	0.10133
669.365	0.10356
665.246	0.10448
661.127	0.10472
657.008	0.10550
652.889	0.10594
648.769	0.10614
644.65	0.10655
640.531	0.10692
636.412	0.10688
632.293	0.10707
628.173	0.10668
624.054	0.10685
619.935	0.10715
615.816	0.10773
611.697	0.10802
607.578	0.10796
603.458	0.10832
599.339	0.10909
595.22	0.10995
591.101	0.11067
586.982	0.11123
582.863	0.11198
578.743	0.11388
574.624	0.11536
570.505	0.11706
566.386	0.11848
562.267	0.12060
558.148	0.12296
554.028	0.12508
549.909	0.12663
545.79	0.12822
541.671	0.12877
537.552	0.12818
533.433	0.12745
529.313	0.12771
525.194	0.12766
521.075	0.12722
516.956	0.12758
512.837	0.12814
508.718	0.12776
504.598	0.12716
500.479	0.12685
496.36	0.12602
492.241	0.12593
488.122	0.12543
484.003	0.12439
479.883	0.12219
475.764	0.12126
471.645	0.12048
467.526	0.11898
463.407	0.11784
459.288	0.11698
455.168	0.11573
451.049	0.11359
446.93	0.11211
442.811	0.11117
438.692	0.10995
434.572	0.10878
430.453	0.10797
426.334	0.10751
422.215	0.10707
418.096	0.10685
413.977	0.10549
409.857	0.10527
405.738	0.10505
401.619	0.10384
399.56	0.10257