File: FTIR/db-LASE IR data/AgNPr-LASE lasered at 45C/Silk AgNPr film 45C 8.26.22.dpt
3997.65	0.00915
3993.54	0.00978
3989.42	0.00952
3985.3	0.01016
3981.18	0.01040
3977.06	0.01016
3972.94	0.01089
3968.82	0.01092
3964.7	0.00942
3960.58	0.00972
3956.46	0.00937
3952.34	0.00876
3948.22	0.00884
3944.11	0.00758
3939.99	0.00771
3935.87	0.00847
3931.75	0.00901
3927.63	0.00872
3923.51	0.00826
3919.39	0.00874
3915.27	0.00793
3911.15	0.00873
3907.03	0.00860
3902.91	0.00795
3898.79	0.00906
3894.68	0.00894
3890.56	0.00932
3886.44	0.00930
3882.32	0.00845
3878.2	0.00739
3874.08	0.00834
3869.96	0.00838
3865.84	0.00891
3861.72	0.00915
3857.6	0.00818
3853.48	0.00908
3849.36	0.00919
3845.25	0.00851
3841.13	0.00741
3837.01	0.00688
3832.89	0.00731
3828.77	0.00799
3824.65	0.00772
3820.53	0.00744
3816.41	0.00725
3812.29	0.00676
3808.17	0.00683
3804.05	0.00683
3799.93	0.00693
3795.82	0.00767
3791.7	0.00818
3787.58	0.00828
3783.46	0.00714
3779.34	0.00792
3775.22	0.00814
3771.1	0.00792
3766.98	0.00785
3762.86	0.00775
3758.74	0.00767
3754.62	0.00823
3750.5	0.00837
3746.39	0.00968
3742.27	0.00969
3738.15	0.00961
3734.03	0.01142
3729.91	0.01078
3725.79	0.01042
3721.67	0.01041
3717.55	0.00947
3713.43	0.00884
3709.31	0.00953
3705.19	0.01040
3701.07	0.01025
3696.96	0.01182
3692.84	0.01150
3688.72	0.01181
3684.6	0.01378
3680.48	0.01526
3676.36	0.01496
3672.24	0.01702
3668.12	0.02037
3664	0.02302
3659.88	0.02520
3655.76	0.02899
3651.64	0.03261
3647.53	0.03613
3643.41	0.03961
3639.29	0.04236
3635.17	0.04747
3631.05	0.05017
3626.93	0.05587
3622.81	0.06043
3618.69	0.06528
3614.57	0.06983
3610.45	0.07387
3606.33	0.07904
3602.21	0.08313
3598.1	0.08782
3593.98	0.09326
3589.86	0.09984
3585.74	0.10596
3581.62	0.10934
3577.5	0.11521
3573.38	0.12272
3569.26	0.12836
3565.14	0.13529
3561.02	0.14090
3556.9	0.14748
3552.78	0.15242
3548.67	0.15818
3544.55	0.16445
3540.43	0.17035
3536.31	0.17703
3532.19	0.18157
3528.07	0.18611
3523.95	0.19371
3519.83	0.19867
3515.71	0.20230
3511.59	0.20718
3507.47	0.21208
3503.35	0.21607
3499.24	0.22081
3495.12	0.22471
3491	0.22835
3486.88	0.23220
3482.76	0.23471
3478.64	0.23841
3474.52	0.24179
3470.4	0.24476
3466.28	0.24623
3462.16	0.25064
3458.04	0.25209
3453.92	0.25487
3449.81	0.25728
3445.69	0.25985
3441.57	0.26300
3437.45	0.26702
3433.33	0.26984
3429.21	0.27371
3425.09	0.27818
3420.97	0.28231
3416.85	0.28733
3412.73	0.29289
3408.61	0.29832
3404.49	0.30346
3400.38	0.30823
3396.26	0.31407
3392.14	0.31997
3388.02	0.32570
3383.9	0.33167
3379.78	0.33823
3375.66	0.34453
3371.54	0.35074
3367.42	0.35846
3363.3	0.36687
3359.18	0.37557
3355.06	0.38318
3350.95	0.39080
3346.83	0.40013
3342.71	0.40892
3338.59	0.41916
3334.47	0.42838
3330.35	0.43803
3326.23	0.44800
3322.11	0.45904
3317.99	0.46965
3313.87	0.47957
3309.75	0.48962
3305.63	0.49922
3301.52	0.50722
3297.4	0.51458
3293.28	0.52247
3289.16	0.52701
3285.04	0.53066
3280.92	0.53122
3276.8	0.53295
3272.68	0.53326
3268.56	0.52854
3264.44	0.52165
3260.32	0.51414
3256.2	0.50655
3252.09	0.49729
3247.97	0.48793
3243.85	0.47835
3239.73	0.46842
3235.61	0.45933
3231.49	0.44874
3227.37	0.43832
3223.25	0.42923
3219.13	0.41980
3215.01	0.40998
3210.89	0.39901
3206.77	0.38911
3202.65	0.37797
3198.54	0.36645
3194.42	0.35540
3190.3	0.34379
3186.18	0.33153
3182.06	0.32085
3177.94	0.30901
3173.82	0.29702
3169.7	0.28540
3165.58	0.27436
3161.46	0.26341
3157.34	0.25378
3153.22	0.24466
3149.11	0.23704
3144.99	0.22927
3140.87	0.22285
3136.75	0.21740
3132.63	0.21341
3128.51	0.21074
3124.39	0.20741
3120.27	0.20693
3116.15	0.20625
3112.03	0.20658
3107.91	0.20753
3103.79	0.20930
3099.68	0.21240
3095.56	0.21640
3091.44	0.22149
3087.32	0.22568
3083.2	0.22849
3079.08	0.23112
3074.96	0.23125
3070.84	0.23131
3066.72	0.23071
3062.6	0.22694
3058.48	0.22231
3054.36	0.21622
3050.25	0.20901
3046.13	0.20055
3042.01	0.19271
3037.89	0.18364
3033.77	0.17576
3029.65	0.16783
3025.53	0.16093
3021.41	0.15408
3017.29	0.14891
3013.17	0.14475
3009.05	0.14030
3004.93	0.13791
3000.82	0.13854
2996.7	0.14095
2992.58	0.14443
2988.46	0.14850
2984.34	0.15256
2980.22	0.15381
2976.1	0.15145
2971.98	0.14910
2967.86	0.14894
2963.74	0.15011
2959.62	0.14941
2955.5	0.14893
2951.39	0.15117
2947.27	0.15704
2943.15	0.16477
2939.03	0.17206
2934.91	0.17479
2930.79	0.17208
2926.67	0.16603
2922.55	0.15918
2918.43	0.15061
2914.31	0.13590
2910.19	0.12482
2906.07	0.11750
2901.96	0.11118
2897.84	0.10678
2893.72	0.10335
2889.6	0.10116
2885.48	0.10098
2881.36	0.10152
2877.24	0.10122
2873.12	0.09826
2869	0.09284
2864.88	0.08816
2860.76	0.08643
2856.64	0.08640
2852.53	0.08724
2848.41	0.08355
2844.29	0.07721
2840.17	0.07427
2836.05	0.07300
2831.93	0.07212
2827.81	0.07103
2823.69	0.06953
2819.57	0.06869
2815.45	0.06771
2811.33	0.06640
2807.21	0.06477
2803.1	0.06261
2798.98	0.06098
2794.86	0.05920
2790.74	0.05768
2786.62	0.05548
2782.5	0.05312
2778.38	0.05172
2774.26	0.05003
2770.14	0.04813
2766.02	0.04625
2761.9	0.04476
2757.78	0.04383
2753.67	0.04234
2749.55	0.04142
2745.43	0.04032
2741.31	0.03921
2737.19	0.03806
2733.07	0.03693
2728.95	0.03624
2724.83	0.03564
2720.71	0.03459
2716.59	0.03396
2712.47	0.03288
2708.35	0.03258
2704.24	0.03222
2700.12	0.03200
2696	0.03184
2691.88	0.03091
2687.76	0.03058
2683.64	0.03057
2679.52	0.02997
2675.4	0.02989
2671.28	0.02922
2667.16	0.02861
2663.04	0.02882
2658.92	0.02880
2654.81	0.02821
2650.69	0.02775
2646.57	0.02710
2642.45	0.02667
2638.33	0.02659
2634.21	0.02591
2630.09	0.02607
2625.97	0.02575
2621.85	0.02488
2617.73	0.02513
2613.61	0.02475
2609.49	0.02459
2605.38	0.02384
2601.26	0.02315
2597.14	0.02244
2593.02	0.02249
2588.9	0.02209
2584.78	0.02114
2580.66	0.01993
2576.54	0.01954
2572.42	0.01989
2568.3	0.01844
2564.18	0.01805
2560.06	0.01790
2555.95	0.01719
2551.83	0.01683
2547.71	0.01677
2543.59	0.01705
2539.47	0.01687
2535.35	0.01680
2531.23	0.01645
2527.11	0.01635
2522.99	0.01612
2518.87	0.01636
2514.75	0.01668
2510.63	0.01625
2506.52	0.01527
2502.4	0.01505
2498.28	0.01489
2494.16	0.01560
2490.04	0.01563
2485.92	0.01499
2481.8	0.01497
2477.68	0.01449
2473.56	0.01371
2469.44	0.01455
2465.32	0.01410
2461.2	0.01410
2457.09	0.01401
2452.97	0.01309
2448.85	0.01323
2444.73	0.01378
2440.61	0.01396
2436.49	0.01385
2432.37	0.01332
2428.25	0.01351
2424.13	0.01335
2420.01	0.01318
2415.89	0.01225
2411.77	0.01178
2407.66	0.01188
2403.54	0.01183
2399.42	0.01269
2395.3	0.01259
2391.18	0.01268
2387.06	0.01211
2382.94	0.01289
2378.82	0.01367
2374.7	0.01449
2370.58	0.01698
2366.46	0.01667
2362.34	0.01445
2358.23	0.01583
2354.11	0.01484
2349.99	0.01648
2345.87	0.01418
2341.75	0.01327
2337.63	0.01263
2333.51	0.01853
2329.39	0.01955
2325.27	0.01282
2321.15	0.01022
2317.03	0.01012
2312.91	0.01205
2308.8	0.01245
2304.68	0.01290
2300.56	0.01243
2296.44	0.01341
2292.32	0.01390
2288.2	0.01346
2284.08	0.01369
2279.96	0.01312
2275.84	0.01286
2271.72	0.01345
2267.6	0.01399
2263.48	0.01262
2259.36	0.01203
2255.25	0.01093
2251.13	0.01361
2247.01	0.01361
2242.89	0.01256
2238.77	0.01315
2234.65	0.01283
2230.53	0.01208
2226.41	0.01170
2222.29	0.01161
2218.17	0.01134
2214.05	0.01162
2209.93	0.01156
2205.82	0.01319
2201.7	0.01158
2197.58	0.01112
2193.46	0.01171
2189.34	0.01224
2185.22	0.01253
2181.1	0.01200
2176.98	0.00998
2172.86	0.01065
2168.74	0.01135
2164.62	0.01148
2160.5	0.01290
2156.39	0.01061
2152.27	0.00939
2148.15	0.00907
2144.03	0.01018
2139.91	0.01065
2135.79	0.01135
2131.67	0.01218
2127.55	0.01269
2123.43	0.01297
2119.31	0.01351
2115.19	0.01457
2111.07	0.01531
2106.96	0.01523
2102.84	0.01433
2098.72	0.01398
2094.6	0.01351
2090.48	0.01271
2086.36	0.01261
2082.24	0.01360
2078.12	0.01288
2074	0.01248
2069.88	0.01194
2065.76	0.01201
2061.64	0.01125
2057.53	0.01035
2053.41	0.01152
2049.29	0.01163
2045.17	0.01046
2041.05	0.00924
2036.93	0.00724
2032.81	0.00719
2028.69	0.00808
2024.57	0.00866
2020.45	0.00915
2016.33	0.00784
2012.21	0.00917
2008.1	0.00865
2003.98	0.00745
1999.86	0.00871
1995.74	0.00974
1991.62	0.00865
1987.5	0.00849
1983.38	0.00919
1979.26	0.00984
1975.14	0.00696
1971.02	0.00667
1966.9	0.00704
1962.78	0.00708
1958.67	0.00746
1954.55	0.00744
1950.43	0.00769
1946.31	0.00794
1942.19	0.00748
1938.07	0.00832
1933.95	0.00899
1929.83	0.00840
1925.71	0.00827
1921.59	0.00795
1917.47	0.00917
1913.35	0.00880
1909.24	0.00907
1905.12	0.01022
1901	0.00916
1896.88	0.00929
1892.76	0.00988
1888.64	0.01008
1884.52	0.00973
1880.4	0.00967
1876.28	0.00960
1872.16	0.00952
1868.04	0.00923
1863.92	0.00963
1859.81	0.00995
1855.69	0.00959
1851.57	0.00978
1847.45	0.00942
1843.33	0.00995
1839.21	0.01057
1835.09	0.01081
1830.97	0.01070
1826.85	0.01095
1822.73	0.01172
1818.61	0.01147
1814.49	0.01193
1810.38	0.01255
1806.26	0.01312
1802.14	0.01336
1798.02	0.01342
1793.9	0.01382
1789.78	0.01419
1785.66	0.01504
1781.54	0.01584
1777.42	0.01611
1773.3	0.01665
1769.18	0.01761
1765.06	0.01819
1760.95	0.01863
1756.83	0.01920
1752.71	0.02004
1748.59	0.02101
1744.47	0.02208
1740.35	0.02357
1736.23	0.02487
1732.11	0.02710
1727.99	0.02909
1723.87	0.03173
1719.75	0.03512
1715.63	0.04336
1711.52	0.05460
1707.4	0.07050
1703.28	0.09368
1699.16	0.12653
1695.04	0.16436
1690.92	0.19492
1686.8	0.22617
1682.68	0.27180
1678.56	0.30715
1674.44	0.34848
1670.32	0.39458
1666.2	0.44508
1662.09	0.49475
1657.97	0.54234
1653.85	0.59147
1649.73	0.64893
1645.61	0.68752
1641.49	0.71233
1637.37	0.72129
1633.25	0.71641
1629.13	0.68661
1625.01	0.63450
1620.89	0.56783
1616.77	0.50150
1612.66	0.43623
1608.54	0.37318
1604.42	0.31818
1600.3	0.28341
1596.18	0.26292
1592.06	0.24758
1587.94	0.23952
1583.82	0.24184
1579.7	0.25247
1575.58	0.27517
1571.46	0.30071
1567.34	0.33548
1563.23	0.36683
1559.11	0.40865
1554.99	0.46148
1550.87	0.49795
1546.75	0.53350
1542.63	0.56581
1538.51	0.60827
1534.39	0.62518
1530.27	0.63855
1526.15	0.64360
1522.03	0.64974
1517.91	0.66769
1513.8	0.67781
1509.68	0.65413
1505.56	0.59395
1501.44	0.54045
1497.32	0.47628
1493.2	0.41467
1489.08	0.35828
1484.96	0.31170
1480.84	0.28181
1476.72	0.26190
1472.6	0.25111
1468.48	0.24830
1464.37	0.25367
1460.25	0.26389
1456.13	0.28228
1452.01	0.28999
1447.89	0.28210
1443.77	0.26355
1439.65	0.24251
1435.53	0.22303
1431.41	0.21298
1427.29	0.21279
1423.17	0.22170
1419.05	0.23772
1414.94	0.25395
1410.82	0.26040
1406.7	0.25696
1402.58	0.24552
1398.46	0.23602
1394.34	0.23479
1390.22	0.23938
1386.1	0.24576
1381.98	0.24915
1377.86	0.24767
1373.74	0.23931
1369.62	0.22422
1365.5	0.20557
1361.39	0.18879
1357.27	0.17875
1353.15	0.17563
1349.03	0.17982
1344.91	0.18984
1340.79	0.20231
1336.67	0.21297
1332.55	0.21470
1328.43	0.20728
1324.31	0.19528
1320.19	0.18559
1316.07	0.18168
1311.96	0.18251
1307.84	0.18554
1303.72	0.18968
1299.6	0.19442
1295.48	0.19923
1291.36	0.20325
1287.24	0.20667
1283.12	0.21077
1279	0.21713
1274.88	0.22646
1270.76	0.23746
1266.64	0.24878
1262.53	0.25978
1258.41	0.27198
1254.29	0.28594
1250.17	0.30115
1246.05	0.31676
1241.93	0.33075
1237.81	0.34018
1233.69	0.34237
1229.57	0.33462
1225.45	0.31627
1221.33	0.28955
1217.21	0.25909
1213.1	0.22971
1208.98	0.20516
1204.86	0.18474
1200.74	0.16751
1196.62	0.15442
1192.5	0.14643
1188.38	0.14251
1184.26	0.14300
1180.14	0.14828
1176.02	0.15766
1171.9	0.16475
1167.78	0.16610
1163.67	0.16404
1159.55	0.15907
1155.43	0.15237
1151.31	0.14453
1147.19	0.13653
1143.07	0.12978
1138.95	0.12528
1134.83	0.12222
1130.71	0.12063
1126.59	0.11985
1122.47	0.11983
1118.35	0.11973
1114.24	0.11930
1110.12	0.11941
1106	0.12012
1101.88	0.11875
1097.76	0.11461
1093.64	0.11252
1089.52	0.11553
1085.4	0.12304
1081.28	0.13256
1077.16	0.14110
1073.04	0.14634
1068.92	0.14802
1064.81	0.14816
1060.69	0.14977
1056.57	0.15188
1052.45	0.14974
1048.33	0.14185
1044.21	0.13202
1040.09	0.12373
1035.97	0.11862
1031.85	0.11680
1027.73	0.11553
1023.61	0.11552
1019.49	0.12307
1015.38	0.13208
1011.26	0.12896
1007.14	0.11471
1003.02	0.09917
998.899	0.08751
994.78	0.07930
990.66	0.07292
986.541	0.06830
982.422	0.06618
978.303	0.06538
974.184	0.06519
970.065	0.06536
965.945	0.06704
961.826	0.06909
957.707	0.07155
953.588	0.07417
949.469	0.07574
945.35	0.07639
941.23	0.07549
937.111	0.07321
932.992	0.07044
928.873	0.06811
924.754	0.06554
920.635	0.06329
916.515	0.06113
912.396	0.05923
908.277	0.05789
904.158	0.05676
900.039	0.05620
895.92	0.05550
891.8	0.05543
887.681	0.05583
883.562	0.05659
879.443	0.05737
875.324	0.05829
871.205	0.05982
867.085	0.06222
862.966	0.06582
858.847	0.06956
854.728	0.07317
850.609	0.07546
846.49	0.07578
842.37	0.07705
838.251	0.08031
834.132	0.08352
830.013	0.08545
825.894	0.08587
821.774	0.08542
817.655	0.08585
813.536	0.08771
809.417	0.09001
805.298	0.09215
801.179	0.09353
797.059	0.09448
792.94	0.09596
788.821	0.09761
784.702	0.10010
780.583	0.10251
776.464	0.10487
772.344	0.10759
768.225	0.11021
764.106	0.11270
759.987	0.11565
755.868	0.11918
751.749	0.12311
747.629	0.12683
743.51	0.13045
739.391	0.13362
735.272	0.13685
731.153	0.13992
727.034	0.14274
722.914	0.14566
718.795	0.14891
714.676	0.15180
710.557	0.15512
706.438	0.15863
702.319	0.16256
698.199	0.16576
694.08	0.16875
689.961	0.17160
685.842	0.17462
681.723	0.17757
677.604	0.18030
673.484	0.18249
669.365	0.19004
665.246	0.18781
661.127	0.18814
657.008	0.18918
652.889	0.19012
648.769	0.19028
644.65	0.19009
640.531	0.18997
636.412	0.18996
632.293	0.19001
628.173	0.18932
624.054	0.18942
619.935	0.18933
615.816	0.18956
611.697	0.18890
607.578	0.18908
603.458	0.18957
599.339	0.18994
595.22	0.19046
591.101	0.19156
586.982	0.19293
582.863	0.19438
578.743	0.19743
574.624	0.19950
570.505	0.20167
566.386	0.20478
562.267	0.20848
558.148	0.21155
554.028	0.21468
549.909	0.21778
545.79	0.22010
541.671	0.22055
537.552	0.21992
533.433	0.21869
529.313	0.21717
525.194	0.21591
521.075	0.21567
516.956	0.21566
512.837	0.21502
508.718	0.21392
504.598	0.21312
500.479	0.21119
496.36	0.20963
492.241	0.20812
488.122	0.20761
484.003	0.20666
479.883	0.20262
475.764	0.19977
471.645	0.19775
467.526	0.19470
463.407	0.19180
459.288	0.18925
455.168	0.18621
451.049	0.18320
446.93	0.17978
442.811	0.17712
438.692	0.17551
434.572	0.17356
430.453	0.17085
426.334	0.16888
422.215	0.16773
418.096	0.16675
413.977	0.16374
409.857	0.16231
405.738	0.16099
401.619	0.15916
399.56	0.15901