File: FTIR/db-LASE IR data/AgNPr-LASE lasered at 45C/Silk AgNPr film 45C 9.22.22.dpt
3997.65	-0.00307
3993.54	-0.00277
3989.42	-0.00256
3985.3	-0.00293
3981.18	-0.00391
3977.06	-0.00379
3972.94	-0.00290
3968.82	-0.00158
3964.7	-0.00262
3960.58	-0.00233
3956.46	-0.00355
3952.34	-0.00286
3948.22	-0.00254
3944.11	-0.00191
3939.99	-0.00250
3935.87	-0.00257
3931.75	-0.00261
3927.63	-0.00221
3923.51	-0.00086
3919.39	-0.00248
3915.27	-0.00190
3911.15	-0.00229
3907.03	-0.00303
3902.91	-0.00172
3898.79	-0.00316
3894.68	-0.00294
3890.56	-0.00258
3886.44	-0.00339
3882.32	-0.00295
3878.2	-0.00338
3874.08	-0.00347
3869.96	-0.00336
3865.84	-0.00276
3861.72	-0.00305
3857.6	-0.00261
3853.48	-0.00207
3849.36	-0.00242
3845.25	-0.00137
3841.13	-0.00079
3837.01	-0.00054
3832.89	-0.00260
3828.77	-0.00239
3824.65	-0.00164
3820.53	-0.00130
3816.41	-0.00332
3812.29	-0.00270
3808.17	-0.00270
3804.05	-0.00137
3799.93	-0.00071
3795.82	-0.00144
3791.7	-0.00113
3787.58	-0.00143
3783.46	-0.00153
3779.34	-0.00183
3775.22	-0.00240
3771.1	-0.00144
3766.98	-0.00229
3762.86	-0.00212
3758.74	-0.00134
3754.62	-0.00025
3750.5	-0.00004
3746.39	0.00007
3742.27	-0.00092
3738.15	-0.00206
3734.03	-0.00179
3729.91	-0.00237
3725.79	-0.00096
3721.67	0.00041
3717.55	-0.00043
3713.43	-0.00018
3709.31	0.00005
3705.19	-0.00071
3701.07	-0.00058
3696.96	0.00033
3692.84	0.00068
3688.72	0.00057
3684.6	0.00012
3680.48	0.00209
3676.36	0.00386
3672.24	0.00402
3668.12	0.00532
3664	0.00688
3659.88	0.00713
3655.76	0.00829
3651.64	0.01188
3647.53	0.01344
3643.41	0.01322
3639.29	0.01388
3635.17	0.01625
3631.05	0.01863
3626.93	0.02044
3622.81	0.02276
3618.69	0.02374
3614.57	0.02558
3610.45	0.02865
3606.33	0.03153
3602.21	0.03370
3598.1	0.03616
3593.98	0.03870
3589.86	0.04089
3585.74	0.04367
3581.62	0.04507
3577.5	0.04809
3573.38	0.05038
3569.26	0.05357
3565.14	0.05692
3561.02	0.05866
3556.9	0.06161
3552.78	0.06262
3548.67	0.06566
3544.55	0.06940
3540.43	0.07195
3536.31	0.07460
3532.19	0.07687
3528.07	0.07861
3523.95	0.08171
3519.83	0.08289
3515.71	0.08484
3511.59	0.08760
3507.47	0.09005
3503.35	0.09040
3499.24	0.09295
3495.12	0.09368
3491	0.09516
3486.88	0.09682
3482.76	0.09904
3478.64	0.09968
3474.52	0.10152
3470.4	0.10366
3466.28	0.10461
3462.16	0.10606
3458.04	0.10576
3453.92	0.10845
3449.81	0.10871
3445.69	0.10993
3441.57	0.11123
3437.45	0.11289
3433.33	0.11476
3429.21	0.11499
3425.09	0.11638
3420.97	0.11873
3416.85	0.12034
3412.73	0.12207
3408.61	0.12424
3404.49	0.12648
3400.38	0.12871
3396.26	0.13034
3392.14	0.13299
3388.02	0.13386
3383.9	0.13786
3379.78	0.14065
3375.66	0.14192
3371.54	0.14371
3367.42	0.14715
3363.3	0.15079
3359.18	0.15382
3355.06	0.15643
3350.95	0.15807
3346.83	0.16165
3342.71	0.16455
3338.59	0.16854
3334.47	0.17314
3330.35	0.17679
3326.23	0.17952
3322.11	0.18399
3317.99	0.18741
3313.87	0.19121
3309.75	0.19448
3305.63	0.19841
3301.52	0.20117
3297.4	0.20470
3293.28	0.20707
3289.16	0.20858
3285.04	0.21083
3280.92	0.21168
3276.8	0.21202
3272.68	0.21220
3268.56	0.21169
3264.44	0.21029
3260.32	0.20809
3256.2	0.20479
3252.09	0.20050
3247.97	0.19608
3243.85	0.19380
3239.73	0.19158
3235.61	0.18838
3231.49	0.18474
3227.37	0.18111
3223.25	0.17800
3219.13	0.17525
3215.01	0.17198
3210.89	0.16812
3206.77	0.16396
3202.65	0.16018
3198.54	0.15583
3194.42	0.15043
3190.3	0.14588
3186.18	0.14246
3182.06	0.13824
3177.94	0.13370
3173.82	0.12846
3169.7	0.12378
3165.58	0.11936
3161.46	0.11439
3157.34	0.11150
3153.22	0.10872
3149.11	0.10531
3144.99	0.10149
3140.87	0.09811
3136.75	0.09579
3132.63	0.09364
3128.51	0.09253
3124.39	0.09159
3120.27	0.09105
3116.15	0.09122
3112.03	0.09200
3107.91	0.09272
3103.79	0.09283
3099.68	0.09336
3095.56	0.09494
3091.44	0.09713
3087.32	0.09867
3083.2	0.09989
3079.08	0.10031
3074.96	0.10132
3070.84	0.10127
3066.72	0.10070
3062.6	0.09873
3058.48	0.09683
3054.36	0.09489
3050.25	0.09214
3046.13	0.08842
3042.01	0.08516
3037.89	0.08179
3033.77	0.07814
3029.65	0.07450
3025.53	0.07123
3021.41	0.06878
3017.29	0.06719
3013.17	0.06516
3009.05	0.06271
3004.93	0.06213
3000.82	0.06194
2996.7	0.06272
2992.58	0.06408
2988.46	0.06581
2984.34	0.06715
2980.22	0.06736
2976.1	0.06581
2971.98	0.06502
2967.86	0.06398
2963.74	0.06300
2959.62	0.06195
2955.5	0.06113
2951.39	0.06287
2947.27	0.06582
2943.15	0.06927
2939.03	0.07117
2934.91	0.07048
2930.79	0.06742
2926.67	0.06188
2922.55	0.05279
2918.43	0.03805
2914.31	0.02855
2910.19	0.03543
2906.07	0.03929
2901.96	0.03919
2897.84	0.03798
2893.72	0.03791
2889.6	0.03810
2885.48	0.03889
2881.36	0.04017
2877.24	0.03972
2873.12	0.03853
2869	0.03657
2864.88	0.03461
2860.76	0.03280
2856.64	0.03064
2852.53	0.02443
2848.41	0.01425
2844.29	0.01986
2840.17	0.02553
2836.05	0.02772
2831.93	0.02831
2827.81	0.02789
2823.69	0.02840
2819.57	0.02818
2815.45	0.02711
2811.33	0.02695
2807.21	0.02667
2803.1	0.02584
2798.98	0.02495
2794.86	0.02421
2790.74	0.02346
2786.62	0.02216
2782.5	0.02154
2778.38	0.02118
2774.26	0.02018
2770.14	0.01908
2766.02	0.01840
2761.9	0.01794
2757.78	0.01763
2753.67	0.01724
2749.55	0.01654
2745.43	0.01599
2741.31	0.01512
2737.19	0.01436
2733.07	0.01437
2728.95	0.01408
2724.83	0.01390
2720.71	0.01288
2716.59	0.01331
2712.47	0.01296
2708.35	0.01267
2704.24	0.01238
2700.12	0.01174
2696	0.01169
2691.88	0.01202
2687.76	0.01156
2683.64	0.01107
2679.52	0.01112
2675.4	0.01112
2671.28	0.01098
2667.16	0.01066
2663.04	0.01066
2658.92	0.01078
2654.81	0.01100
2650.69	0.01077
2646.57	0.01069
2642.45	0.01046
2638.33	0.01074
2634.21	0.01030
2630.09	0.01070
2625.97	0.01055
2621.85	0.01042
2617.73	0.00977
2613.61	0.00937
2609.49	0.00963
2605.38	0.00927
2601.26	0.00902
2597.14	0.00878
2593.02	0.00781
2588.9	0.00820
2584.78	0.00777
2580.66	0.00780
2576.54	0.00753
2572.42	0.00606
2568.3	0.00571
2564.18	0.00689
2560.06	0.00699
2555.95	0.00665
2551.83	0.00583
2547.71	0.00651
2543.59	0.00542
2539.47	0.00569
2535.35	0.00552
2531.23	0.00605
2527.11	0.00623
2522.99	0.00628
2518.87	0.00574
2514.75	0.00610
2510.63	0.00522
2506.52	0.00544
2502.4	0.00633
2498.28	0.00541
2494.16	0.00426
2490.04	0.00466
2485.92	0.00487
2481.8	0.00598
2477.68	0.00595
2473.56	0.00495
2469.44	0.00510
2465.32	0.00512
2461.2	0.00475
2457.09	0.00482
2452.97	0.00499
2448.85	0.00498
2444.73	0.00488
2440.61	0.00464
2436.49	0.00392
2432.37	0.00410
2428.25	0.00429
2424.13	0.00458
2420.01	0.00442
2415.89	0.00423
2411.77	0.00433
2407.66	0.00361
2403.54	0.00367
2399.42	0.00338
2395.3	0.00302
2391.18	0.00346
2387.06	0.00375
2382.94	0.00390
2378.82	0.00433
2374.7	0.00372
2370.58	0.00442
2366.46	0.00464
2362.34	0.00084
2358.23	0.00311
2354.11	0.00430
2349.99	0.00670
2345.87	0.00311
2341.75	0.00277
2337.63	-0.00251
2333.51	0.01335
2329.39	0.01229
2325.27	-0.00244
2321.15	-0.00572
2317.03	-0.00248
2312.91	0.00042
2308.8	0.00129
2304.68	0.00224
2300.56	0.00370
2296.44	0.00481
2292.32	0.00528
2288.2	0.00608
2284.08	0.00580
2279.96	0.00516
2275.84	0.00546
2271.72	0.00516
2267.6	0.00586
2263.48	0.00537
2259.36	0.00528
2255.25	0.00430
2251.13	0.00525
2247.01	0.00543
2242.89	0.00503
2238.77	0.00519
2234.65	0.00574
2230.53	0.00554
2226.41	0.00526
2222.29	0.00485
2218.17	0.00528
2214.05	0.00474
2209.93	0.00505
2205.82	0.00681
2201.7	0.00615
2197.58	0.00662
2193.46	0.00649
2189.34	0.00861
2185.22	0.00769
2181.1	0.00707
2176.98	0.00510
2172.86	0.00420
2168.74	0.00715
2164.62	0.00796
2160.5	0.00513
2156.39	0.00072
2152.27	0.00347
2148.15	0.00349
2144.03	0.00358
2139.91	0.00490
2135.79	0.00167
2131.67	0.00183
2127.55	0.00400
2123.43	0.00487
2119.31	0.00534
2115.19	0.00515
2111.07	0.00574
2106.96	0.00613
2102.84	0.00556
2098.72	0.00574
2094.6	0.00471
2090.48	0.00472
2086.36	0.00528
2082.24	0.00515
2078.12	0.00584
2074	0.00552
2069.88	0.00427
2065.76	0.00559
2061.64	0.00655
2057.53	0.00464
2053.41	0.00443
2049.29	0.00551
2045.17	0.00290
2041.05	0.00402
2036.93	0.00400
2032.81	0.00283
2028.69	0.00311
2024.57	0.00420
2020.45	0.00359
2016.33	0.00318
2012.21	0.00424
2008.1	0.00407
2003.98	0.00206
1999.86	0.00239
1995.74	0.00316
1991.62	0.00421
1987.5	0.00486
1983.38	0.00479
1979.26	0.00515
1975.14	0.00328
1971.02	0.00288
1966.9	0.00247
1962.78	0.00194
1958.67	0.00283
1954.55	0.00321
1950.43	0.00242
1946.31	0.00264
1942.19	0.00352
1938.07	0.00308
1933.95	0.00299
1929.83	0.00365
1925.71	0.00264
1921.59	0.00307
1917.47	0.00283
1913.35	0.00369
1909.24	0.00353
1905.12	0.00348
1901	0.00338
1896.88	0.00330
1892.76	0.00375
1888.64	0.00415
1884.52	0.00399
1880.4	0.00394
1876.28	0.00328
1872.16	0.00388
1868.04	0.00423
1863.92	0.00432
1859.81	0.00397
1855.69	0.00332
1851.57	0.00364
1847.45	0.00404
1843.33	0.00411
1839.21	0.00393
1835.09	0.00441
1830.97	0.00452
1826.85	0.00433
1822.73	0.00439
1818.61	0.00474
1814.49	0.00453
1810.38	0.00497
1806.26	0.00507
1802.14	0.00529
1798.02	0.00558
1793.9	0.00616
1789.78	0.00618
1785.66	0.00599
1781.54	0.00630
1777.42	0.00673
1773.3	0.00694
1769.18	0.00709
1765.06	0.00715
1760.95	0.00783
1756.83	0.00821
1752.71	0.00866
1748.59	0.00941
1744.47	0.00954
1740.35	0.01021
1736.23	0.01072
1732.11	0.01156
1727.99	0.01238
1723.87	0.01357
1719.75	0.01568
1715.63	0.01968
1711.52	0.02433
1707.4	0.03175
1703.28	0.04216
1699.16	0.05689
1695.04	0.07299
1690.92	0.08547
1686.8	0.09809
1682.68	0.11672
1678.56	0.12991
1674.44	0.14515
1670.32	0.16160
1666.2	0.17911
1662.09	0.19505
1657.97	0.20966
1653.85	0.22412
1649.73	0.24016
1645.61	0.24972
1641.49	0.25459
1637.37	0.25616
1633.25	0.25585
1629.13	0.24825
1625.01	0.23539
1620.89	0.21823
1616.77	0.19909
1612.66	0.17795
1608.54	0.15585
1604.42	0.13582
1600.3	0.12263
1596.18	0.11428
1592.06	0.10799
1587.94	0.10414
1583.82	0.10453
1579.7	0.10787
1575.58	0.11663
1571.46	0.12663
1567.34	0.14062
1563.23	0.15209
1559.11	0.16734
1554.99	0.18541
1550.87	0.19627
1546.75	0.20565
1542.63	0.21356
1538.51	0.22503
1534.39	0.23043
1530.27	0.23586
1526.15	0.23786
1522.03	0.24051
1517.91	0.24583
1513.8	0.24847
1509.68	0.24181
1505.56	0.22582
1501.44	0.20902
1497.32	0.18865
1493.2	0.16863
1489.08	0.14913
1484.96	0.13243
1480.84	0.12094
1476.72	0.11291
1472.6	0.10803
1468.48	0.10635
1464.37	0.10813
1460.25	0.11246
1456.13	0.12040
1452.01	0.12317
1447.89	0.12054
1443.77	0.11344
1439.65	0.10511
1435.53	0.09770
1431.41	0.09354
1427.29	0.09353
1423.17	0.09743
1419.05	0.10409
1414.94	0.11049
1410.82	0.11315
1406.7	0.11208
1402.58	0.10785
1398.46	0.10427
1394.34	0.10431
1390.22	0.10641
1386.1	0.10912
1381.98	0.10994
1377.86	0.10884
1373.74	0.10574
1369.62	0.09948
1365.5	0.09191
1361.39	0.08505
1357.27	0.08102
1353.15	0.07961
1349.03	0.08123
1344.91	0.08553
1340.79	0.09109
1336.67	0.09594
1332.55	0.09653
1328.43	0.09304
1324.31	0.08790
1320.19	0.08409
1316.07	0.08278
1311.96	0.08309
1307.84	0.08419
1303.72	0.08571
1299.6	0.08737
1295.48	0.08916
1291.36	0.09076
1287.24	0.09224
1283.12	0.09420
1279	0.09676
1274.88	0.10047
1270.76	0.10491
1266.64	0.10962
1262.53	0.11411
1258.41	0.11854
1254.29	0.12413
1250.17	0.13012
1246.05	0.13629
1241.93	0.14178
1237.81	0.14531
1233.69	0.14575
1229.57	0.14243
1225.45	0.13528
1221.33	0.12538
1217.21	0.11366
1213.1	0.10227
1208.98	0.09247
1204.86	0.08410
1200.74	0.07686
1196.62	0.07138
1192.5	0.06812
1188.38	0.06643
1184.26	0.06651
1180.14	0.06895
1176.02	0.07319
1171.9	0.07630
1167.78	0.07678
1163.67	0.07583
1159.55	0.07377
1155.43	0.07089
1151.31	0.06754
1147.19	0.06424
1143.07	0.06147
1138.95	0.05932
1134.83	0.05784
1130.71	0.05706
1126.59	0.05677
1122.47	0.05678
1118.35	0.05682
1114.24	0.05679
1110.12	0.05697
1106	0.05771
1101.88	0.05726
1097.76	0.05530
1093.64	0.05463
1089.52	0.05625
1085.4	0.05996
1081.28	0.06429
1077.16	0.06785
1073.04	0.07028
1068.92	0.07130
1064.81	0.07178
1060.69	0.07291
1056.57	0.07389
1052.45	0.07231
1048.33	0.06866
1044.21	0.06437
1040.09	0.06043
1035.97	0.05832
1031.85	0.05729
1027.73	0.05691
1023.61	0.05699
1019.49	0.06045
1015.38	0.06427
1011.26	0.06255
1007.14	0.05630
1003.02	0.04937
998.899	0.04412
994.78	0.04026
990.66	0.03751
986.541	0.03578
982.422	0.03455
978.303	0.03384
974.184	0.03372
970.065	0.03383
965.945	0.03447
961.826	0.03563
957.707	0.03659
953.588	0.03770
949.469	0.03871
945.35	0.03906
941.23	0.03852
937.111	0.03748
932.992	0.03627
928.873	0.03514
924.754	0.03415
920.635	0.03268
916.515	0.03168
912.396	0.03082
908.277	0.03025
904.158	0.02982
900.039	0.02944
895.92	0.02915
891.8	0.02913
887.681	0.02933
883.562	0.02978
879.443	0.03027
875.324	0.03056
871.205	0.03145
867.085	0.03283
862.966	0.03470
858.847	0.03677
854.728	0.03830
850.609	0.03930
846.49	0.03928
842.37	0.03998
838.251	0.04180
834.132	0.04352
830.013	0.04411
825.894	0.04444
821.774	0.04450
817.655	0.04466
813.536	0.04550
809.417	0.04684
805.298	0.04804
801.179	0.04875
797.059	0.04911
792.94	0.05002
788.821	0.05077
784.702	0.05194
780.583	0.05340
776.464	0.05473
772.344	0.05588
768.225	0.05723
764.106	0.05872
759.987	0.06013
755.868	0.06204
751.749	0.06377
747.629	0.06571
743.51	0.06746
739.391	0.06910
735.272	0.07047
731.153	0.07178
727.034	0.07308
722.914	0.07514
718.795	0.07676
714.676	0.07796
710.557	0.07985
706.438	0.08192
702.319	0.08380
698.199	0.08540
694.08	0.08675
689.961	0.08853
685.842	0.08982
681.723	0.09137
677.604	0.09274
673.484	0.09388
669.365	0.10176
665.246	0.09600
661.127	0.09637
657.008	0.09714
652.889	0.09735
648.769	0.09771
644.65	0.09817
640.531	0.09815
636.412	0.09783
632.293	0.09824
628.173	0.09808
624.054	0.09792
619.935	0.09788
615.816	0.09794
611.697	0.09794
607.578	0.09812
603.458	0.09823
599.339	0.09840
595.22	0.09905
591.101	0.09938
586.982	0.10009
582.863	0.10108
578.743	0.10251
574.624	0.10372
570.505	0.10506
566.386	0.10647
562.267	0.10811
558.148	0.10943
554.028	0.11134
549.909	0.11276
545.79	0.11393
541.671	0.11428
537.552	0.11409
533.433	0.11365
529.313	0.11246
525.194	0.11211
521.075	0.11226
516.956	0.11209
512.837	0.11234
508.718	0.11157
504.598	0.11073
500.479	0.11014
496.36	0.10985
492.241	0.10980
488.122	0.10915
484.003	0.10815
479.883	0.10731
475.764	0.10697
471.645	0.10527
467.526	0.10374
463.407	0.10296
459.288	0.10205
455.168	0.10115
451.049	0.09967
446.93	0.09822
442.811	0.09760
438.692	0.09660
434.572	0.09518
430.453	0.09480
426.334	0.09477
422.215	0.09359
418.096	0.09319
413.977	0.09290
409.857	0.09183
405.738	0.09062
401.619	0.09030
399.56	0.08991