File: FTIR/db-LASE IR data/AgNPr-LASE lasered at 85C/Silk AgNPr film 85C 8.26.22.dpt
3997.65	-0.00145
3993.54	-0.00180
3989.42	-0.00147
3985.3	0.00019
3981.18	-0.00011
3977.06	0.00031
3972.94	0.00023
3968.82	-0.00048
3964.7	0.00010
3960.58	-0.00080
3956.46	-0.00100
3952.34	-0.00145
3948.22	-0.00259
3944.11	-0.00288
3939.99	-0.00134
3935.87	-0.00115
3931.75	-0.00226
3927.63	-0.00051
3923.51	-0.00176
3919.39	-0.00095
3915.27	-0.00122
3911.15	-0.00056
3907.03	-0.00066
3902.91	-0.00227
3898.79	0.00001
3894.68	0.00157
3890.56	-0.00114
3886.44	-0.00201
3882.32	-0.00036
3878.2	0.00170
3874.08	-0.00076
3869.96	-0.00313
3865.84	0.00029
3861.72	0.00081
3857.6	0.00289
3853.48	-0.00872
3849.36	0.00320
3845.25	0.00050
3841.13	-0.00084
3837.01	-0.00404
3832.89	-0.00117
3828.77	-0.00043
3824.65	0.00073
3820.53	-0.00283
3816.41	-0.00377
3812.29	-0.00015
3808.17	-0.00319
3804.05	0.00064
3799.93	-0.00243
3795.82	-0.00088
3791.7	-0.00068
3787.58	-0.00139
3783.46	-0.00102
3779.34	-0.00323
3775.22	0.00040
3771.1	-0.00253
3766.98	0.00007
3762.86	0.00124
3758.74	-0.00152
3754.62	0.00399
3750.5	-0.00220
3746.39	0.00372
3742.27	0.00463
3738.15	0.00544
3734.03	0.00102
3729.91	0.00520
3725.79	0.00188
3721.67	0.00264
3717.55	0.00233
3713.43	-0.00153
3709.31	0.00001
3705.19	0.00431
3701.07	-0.00034
3696.96	0.00340
3692.84	0.00258
3688.72	-0.00075
3684.6	0.00654
3680.48	0.00772
3676.36	0.00290
3672.24	0.01064
3668.12	0.00977
3664	0.01373
3659.88	0.01548
3655.76	0.01819
3651.64	0.02034
3647.53	0.02117
3643.41	0.02824
3639.29	0.02713
3635.17	0.03198
3631.05	0.03416
3626.93	0.03859
3622.81	0.04522
3618.69	0.04588
3614.57	0.05109
3610.45	0.05259
3606.33	0.05698
3602.21	0.06006
3598.1	0.06451
3593.98	0.06846
3589.86	0.07261
3585.74	0.07679
3581.62	0.08024
3577.5	0.08327
3573.38	0.08970
3569.26	0.09362
3565.14	0.09868
3561.02	0.10394
3556.9	0.10852
3552.78	0.11085
3548.67	0.11738
3544.55	0.12162
3540.43	0.12603
3536.31	0.12985
3532.19	0.13508
3528.07	0.13767
3523.95	0.14286
3519.83	0.14643
3515.71	0.14980
3511.59	0.15436
3507.47	0.15842
3503.35	0.15955
3499.24	0.16370
3495.12	0.16526
3491	0.16925
3486.88	0.17258
3482.76	0.17301
3478.64	0.17628
3474.52	0.17919
3470.4	0.18139
3466.28	0.18380
3462.16	0.18684
3458.04	0.18882
3453.92	0.19143
3449.81	0.19252
3445.69	0.19398
3441.57	0.19770
3437.45	0.20072
3433.33	0.20253
3429.21	0.20476
3425.09	0.20786
3420.97	0.21158
3416.85	0.21554
3412.73	0.21949
3408.61	0.22436
3404.49	0.22782
3400.38	0.23027
3396.26	0.23540
3392.14	0.23959
3388.02	0.24312
3383.9	0.24796
3379.78	0.25304
3375.66	0.25793
3371.54	0.26268
3367.42	0.26812
3363.3	0.27471
3359.18	0.28162
3355.06	0.28851
3350.95	0.29538
3346.83	0.30363
3342.71	0.31303
3338.59	0.32435
3334.47	0.33548
3330.35	0.34783
3326.23	0.36187
3322.11	0.37712
3317.99	0.39287
3313.87	0.41004
3309.75	0.42911
3305.63	0.45002
3301.52	0.47070
3297.4	0.49340
3293.28	0.51736
3289.16	0.53822
3285.04	0.55494
3280.92	0.56557
3276.8	0.56801
3272.68	0.56299
3268.56	0.54903
3264.44	0.53095
3260.32	0.51087
3256.2	0.49035
3252.09	0.47092
3247.97	0.45335
3243.85	0.43679
3239.73	0.42168
3235.61	0.40904
3231.49	0.39531
3227.37	0.38178
3223.25	0.37208
3219.13	0.36088
3215.01	0.34931
3210.89	0.33833
3206.77	0.32792
3202.65	0.31674
3198.54	0.30551
3194.42	0.29500
3190.3	0.28316
3186.18	0.27252
3182.06	0.26307
3177.94	0.25200
3173.82	0.24186
3169.7	0.23223
3165.58	0.22307
3161.46	0.21324
3157.34	0.20469
3153.22	0.19736
3149.11	0.19102
3144.99	0.18440
3140.87	0.17896
3136.75	0.17466
3132.63	0.17166
3128.51	0.16999
3124.39	0.16683
3120.27	0.16714
3116.15	0.16701
3112.03	0.16804
3107.91	0.16979
3103.79	0.17136
3099.68	0.17390
3095.56	0.17707
3091.44	0.18132
3087.32	0.18523
3083.2	0.18715
3079.08	0.18907
3074.96	0.18891
3070.84	0.18886
3066.72	0.18725
3062.6	0.18358
3058.48	0.17867
3054.36	0.17206
3050.25	0.16598
3046.13	0.15817
3042.01	0.15130
3037.89	0.14371
3033.77	0.13738
3029.65	0.13043
3025.53	0.12489
3021.41	0.12011
3017.29	0.11629
3013.17	0.11313
3009.05	0.10970
3004.93	0.10815
3000.82	0.10958
2996.7	0.11283
2992.58	0.11705
2988.46	0.12113
2984.34	0.12535
2980.22	0.12792
2976.1	0.12699
2971.98	0.12525
2967.86	0.12304
2963.74	0.11956
2959.62	0.11489
2955.5	0.11118
2951.39	0.11296
2947.27	0.11829
2943.15	0.12424
2939.03	0.12880
2934.91	0.13027
2930.79	0.12521
2926.67	0.11336
2922.55	0.09421
2918.43	0.06939
2914.31	0.05956
2910.19	0.07195
2906.07	0.07686
2901.96	0.07597
2897.84	0.07494
2893.72	0.07395
2889.6	0.07375
2885.48	0.07546
2881.36	0.07754
2877.24	0.07885
2873.12	0.07727
2869	0.07353
2864.88	0.06806
2860.76	0.06317
2856.64	0.05729
2852.53	0.04394
2848.41	0.02801
2844.29	0.03849
2840.17	0.04802
2836.05	0.05092
2831.93	0.05137
2827.81	0.05182
2823.69	0.05128
2819.57	0.05152
2815.45	0.05108
2811.33	0.05019
2807.21	0.04937
2803.1	0.04865
2798.98	0.04748
2794.86	0.04630
2790.74	0.04559
2786.62	0.04418
2782.5	0.04241
2778.38	0.04144
2774.26	0.04018
2770.14	0.03894
2766.02	0.03741
2761.9	0.03581
2757.78	0.03521
2753.67	0.03368
2749.55	0.03281
2745.43	0.03202
2741.31	0.03076
2737.19	0.02958
2733.07	0.02843
2728.95	0.02790
2724.83	0.02760
2720.71	0.02666
2716.59	0.02588
2712.47	0.02490
2708.35	0.02450
2704.24	0.02434
2700.12	0.02378
2696	0.02340
2691.88	0.02274
2687.76	0.02275
2683.64	0.02242
2679.52	0.02187
2675.4	0.02188
2671.28	0.02115
2667.16	0.02067
2663.04	0.02072
2658.92	0.02093
2654.81	0.02073
2650.69	0.02016
2646.57	0.01983
2642.45	0.01952
2638.33	0.01973
2634.21	0.01868
2630.09	0.01865
2625.97	0.01974
2621.85	0.01859
2617.73	0.01867
2613.61	0.01812
2609.49	0.01820
2605.38	0.01732
2601.26	0.01660
2597.14	0.01596
2593.02	0.01573
2588.9	0.01586
2584.78	0.01482
2580.66	0.01374
2576.54	0.01402
2572.42	0.01407
2568.3	0.01281
2564.18	0.01294
2560.06	0.01223
2555.95	0.01200
2551.83	0.01213
2547.71	0.01171
2543.59	0.01118
2539.47	0.01152
2535.35	0.01150
2531.23	0.01133
2527.11	0.01079
2522.99	0.01058
2518.87	0.01041
2514.75	0.01099
2510.63	0.01062
2506.52	0.01027
2502.4	0.00987
2498.28	0.00998
2494.16	0.00998
2490.04	0.01011
2485.92	0.01001
2481.8	0.00957
2477.68	0.00917
2473.56	0.00874
2469.44	0.00925
2465.32	0.00933
2461.2	0.00874
2457.09	0.00904
2452.97	0.00895
2448.85	0.00951
2444.73	0.00936
2440.61	0.00927
2436.49	0.00860
2432.37	0.00852
2428.25	0.00888
2424.13	0.00909
2420.01	0.00839
2415.89	0.00781
2411.77	0.00774
2407.66	0.00742
2403.54	0.00734
2399.42	0.00754
2395.3	0.00725
2391.18	0.00723
2387.06	0.00735
2382.94	0.00750
2378.82	0.00748
2374.7	0.00788
2370.58	0.00776
2366.46	0.00670
2362.34	0.00763
2358.23	0.00756
2354.11	0.00754
2349.99	0.00807
2345.87	0.00836
2341.75	0.00770
2337.63	0.00748
2333.51	0.00822
2329.39	0.00848
2325.27	0.00997
2321.15	0.01012
2317.03	0.00940
2312.91	0.00947
2308.8	0.00947
2304.68	0.00947
2300.56	0.00867
2296.44	0.00825
2292.32	0.00777
2288.2	0.00866
2284.08	0.00905
2279.96	0.00857
2275.84	0.00823
2271.72	0.00775
2267.6	0.00826
2263.48	0.00769
2259.36	0.00736
2255.25	0.00689
2251.13	0.00811
2247.01	0.00855
2242.89	0.00734
2238.77	0.00841
2234.65	0.00749
2230.53	0.00733
2226.41	0.00707
2222.29	0.00647
2218.17	0.00758
2214.05	0.00794
2209.93	0.00642
2205.82	0.00826
2201.7	0.00778
2197.58	0.00818
2193.46	0.00679
2189.34	0.00801
2185.22	0.00840
2181.1	0.00632
2176.98	0.00609
2172.86	0.00628
2168.74	0.00713
2164.62	0.00664
2160.5	0.00744
2156.39	0.00693
2152.27	0.00616
2148.15	0.00569
2144.03	0.00770
2139.91	0.00803
2135.79	0.00649
2131.67	0.00685
2127.55	0.00755
2123.43	0.00766
2119.31	0.00873
2115.19	0.00910
2111.07	0.00931
2106.96	0.00898
2102.84	0.01017
2098.72	0.01038
2094.6	0.00901
2090.48	0.00827
2086.36	0.00812
2082.24	0.00855
2078.12	0.00870
2074	0.00819
2069.88	0.00808
2065.76	0.00815
2061.64	0.00806
2057.53	0.00752
2053.41	0.00726
2049.29	0.00823
2045.17	0.00773
2041.05	0.00770
2036.93	0.00694
2032.81	0.00595
2028.69	0.00486
2024.57	0.00555
2020.45	0.00676
2016.33	0.00481
2012.21	0.00648
2008.1	0.00544
2003.98	0.00539
1999.86	0.00549
1995.74	0.00740
1991.62	0.00495
1987.5	0.00654
1983.38	0.00677
1979.26	0.00806
1975.14	0.00568
1971.02	0.00564
1966.9	0.00450
1962.78	0.00236
1958.67	0.00481
1954.55	0.00571
1950.43	0.00600
1946.31	0.00613
1942.19	0.00475
1938.07	0.00593
1933.95	0.00675
1929.83	0.00592
1925.71	0.00570
1921.59	0.00633
1917.47	0.00644
1913.35	0.00690
1909.24	0.00621
1905.12	0.00705
1901	0.00699
1896.88	0.00702
1892.76	0.00752
1888.64	0.00708
1884.52	0.00744
1880.4	0.00671
1876.28	0.00696
1872.16	0.00760
1868.04	0.00604
1863.92	0.00780
1859.81	0.00755
1855.69	0.00762
1851.57	0.00773
1847.45	0.00775
1843.33	0.00716
1839.21	0.00895
1835.09	0.00860
1830.97	0.00835
1826.85	0.00938
1822.73	0.00990
1818.61	0.00935
1814.49	0.00991
1810.38	0.00964
1806.26	0.01094
1802.14	0.01087
1798.02	0.01186
1793.9	0.01156
1789.78	0.01280
1785.66	0.01319
1781.54	0.01320
1777.42	0.01459
1773.3	0.01314
1769.18	0.01474
1765.06	0.01623
1760.95	0.01567
1756.83	0.01655
1752.71	0.01771
1748.59	0.01834
1744.47	0.02054
1740.35	0.02077
1736.23	0.02263
1732.11	0.02337
1727.99	0.02649
1723.87	0.02890
1719.75	0.03219
1715.63	0.04002
1711.52	0.05400
1707.4	0.07333
1703.28	0.11335
1699.16	0.14875
1695.04	0.16735
1690.92	0.18192
1686.8	0.19910
1682.68	0.22842
1678.56	0.25574
1674.44	0.28251
1670.32	0.31347
1666.2	0.34892
1662.09	0.37943
1657.97	0.41357
1653.85	0.43818
1649.73	0.47790
1645.61	0.49358
1641.49	0.51069
1637.37	0.52209
1633.25	0.55508
1629.13	0.58724
1625.01	0.63444
1620.89	0.67482
1616.77	0.65280
1612.66	0.59009
1608.54	0.50084
1604.42	0.40832
1600.3	0.33619
1596.18	0.28916
1592.06	0.25509
1587.94	0.23206
1583.82	0.22203
1579.7	0.22304
1575.58	0.23377
1571.46	0.25495
1567.34	0.28367
1563.23	0.31286
1559.11	0.34025
1554.99	0.38688
1550.87	0.41312
1546.75	0.44197
1542.63	0.46785
1538.51	0.51025
1534.39	0.53818
1530.27	0.57024
1526.15	0.59066
1522.03	0.60859
1517.91	0.63283
1513.8	0.64707
1509.68	0.63238
1505.56	0.58418
1501.44	0.54373
1497.32	0.48444
1493.2	0.43022
1489.08	0.37280
1484.96	0.32658
1480.84	0.29233
1476.72	0.26778
1472.6	0.24935
1468.48	0.24525
1464.37	0.24289
1460.25	0.25120
1456.13	0.27130
1452.01	0.29491
1447.89	0.30521
1443.77	0.30573
1439.65	0.29491
1435.53	0.27068
1431.41	0.24814
1427.29	0.23309
1423.17	0.23044
1419.05	0.23498
1414.94	0.24652
1410.82	0.25229
1406.7	0.25339
1402.58	0.24826
1398.46	0.23938
1394.34	0.23519
1390.22	0.23549
1386.1	0.23452
1381.98	0.23344
1377.86	0.22997
1373.74	0.22482
1369.62	0.21909
1365.5	0.20795
1361.39	0.19196
1357.27	0.18118
1353.15	0.17542
1349.03	0.17504
1344.91	0.17953
1340.79	0.18578
1336.67	0.19189
1332.55	0.19178
1328.43	0.18523
1324.31	0.17635
1320.19	0.16944
1316.07	0.16663
1311.96	0.16597
1307.84	0.16655
1303.72	0.16725
1299.6	0.16791
1295.48	0.16914
1291.36	0.17110
1287.24	0.17395
1283.12	0.17847
1279	0.18554
1274.88	0.19722
1270.76	0.21236
1266.64	0.22694
1262.53	0.23583
1258.41	0.24124
1254.29	0.24708
1250.17	0.25524
1246.05	0.26594
1241.93	0.27822
1237.81	0.29051
1233.69	0.30074
1229.57	0.30271
1225.45	0.29339
1221.33	0.27601
1217.21	0.25394
1213.1	0.22891
1208.98	0.20363
1204.86	0.18101
1200.74	0.16170
1196.62	0.14721
1192.5	0.13765
1188.38	0.13202
1184.26	0.13000
1180.14	0.13294
1176.02	0.14200
1171.9	0.15239
1167.78	0.15781
1163.67	0.15847
1159.55	0.15478
1155.43	0.14706
1151.31	0.13674
1147.19	0.12629
1143.07	0.11737
1138.95	0.11082
1134.83	0.10650
1130.71	0.10375
1126.59	0.10203
1122.47	0.10115
1118.35	0.10010
1114.24	0.09944
1110.12	0.09992
1106	0.10181
1101.88	0.10247
1097.76	0.10054
1093.64	0.10030
1089.52	0.10467
1085.4	0.11312
1081.28	0.12360
1077.16	0.13363
1073.04	0.14124
1068.92	0.14510
1064.81	0.14581
1060.69	0.14534
1056.57	0.14348
1052.45	0.13887
1048.33	0.13317
1044.21	0.12688
1040.09	0.12046
1035.97	0.11437
1031.85	0.10927
1027.73	0.10416
1023.61	0.10077
1019.49	0.10352
1015.38	0.10835
1011.26	0.10698
1007.14	0.10235
1003.02	0.09967
998.899	0.09712
994.78	0.09193
990.66	0.08337
986.541	0.07605
982.422	0.07568
978.303	0.07877
974.184	0.07920
970.065	0.07568
965.945	0.07182
961.826	0.06971
957.707	0.06858
953.588	0.06829
949.469	0.06792
945.35	0.06738
941.23	0.06626
937.111	0.06508
932.992	0.06392
928.873	0.06337
924.754	0.06122
920.635	0.05816
916.515	0.05500
912.396	0.05274
908.277	0.05126
904.158	0.05033
900.039	0.05017
895.92	0.04962
891.8	0.04942
887.681	0.04946
883.562	0.05005
879.443	0.05032
875.324	0.05045
871.205	0.05083
867.085	0.05188
862.966	0.05427
858.847	0.05770
854.728	0.06145
850.609	0.06341
846.49	0.06283
842.37	0.06350
838.251	0.06617
834.132	0.06912
830.013	0.07122
825.894	0.07180
821.774	0.07099
817.655	0.07088
813.536	0.07219
809.417	0.07342
805.298	0.07439
801.179	0.07485
797.059	0.07550
792.94	0.07702
788.821	0.07951
784.702	0.08240
780.583	0.08520
776.464	0.08840
772.344	0.09198
768.225	0.09515
764.106	0.09762
759.987	0.09997
755.868	0.10262
751.749	0.10631
747.629	0.11031
743.51	0.11491
739.391	0.11975
735.272	0.12479
731.153	0.13017
727.034	0.13513
722.914	0.13969
718.795	0.14383
714.676	0.14790
710.557	0.15219
706.438	0.15692
702.319	0.16155
698.199	0.16530
694.08	0.16848
689.961	0.17092
685.842	0.17264
681.723	0.17361
677.604	0.17427
673.484	0.17531
669.365	0.17472
665.246	0.17682
661.127	0.17850
657.008	0.17981
652.889	0.18124
648.769	0.18235
644.65	0.18287
640.531	0.18306
636.412	0.18341
632.293	0.18375
628.173	0.18324
624.054	0.18282
619.935	0.18267
615.816	0.18420
611.697	0.18516
607.578	0.18448
603.458	0.18232
599.339	0.17995
595.22	0.17848
591.101	0.17718
586.982	0.17623
582.863	0.17537
578.743	0.17592
574.624	0.17658
570.505	0.17756
566.386	0.17922
562.267	0.18311
558.148	0.18955
554.028	0.19675
549.909	0.20147
545.79	0.20302
541.671	0.20264
537.552	0.19960
533.433	0.19645
529.313	0.19312
525.194	0.19088
521.075	0.18888
516.956	0.18728
512.837	0.18611
508.718	0.18473
504.598	0.18212
500.479	0.17984
496.36	0.17807
492.241	0.17719
488.122	0.17661
484.003	0.17473
479.883	0.17173
475.764	0.16914
471.645	0.16697
467.526	0.16274
463.407	0.15957
459.288	0.15745
455.168	0.15599
451.049	0.15365
446.93	0.15195
442.811	0.15055
438.692	0.14981
434.572	0.14791
430.453	0.14961
426.334	0.15119
422.215	0.15077
418.096	0.14842
413.977	0.14468
409.857	0.14199
405.738	0.14134
401.619	0.13835
399.56	0.13631