File: FTIR/db-LASE IR data/AgNPr-LASE lasered at 85C/Silk AgNPr film 85C 2 9.22.22.dpt
3997.65	0.00917
3993.54	0.01036
3989.42	0.01014
3985.3	0.00921
3981.18	0.01060
3977.06	0.01070
3972.94	0.00992
3968.82	0.00935
3964.7	0.00942
3960.58	0.00882
3956.46	0.00885
3952.34	0.00896
3948.22	0.00997
3944.11	0.00950
3939.99	0.00885
3935.87	0.00974
3931.75	0.00871
3927.63	0.00954
3923.51	0.00911
3919.39	0.00824
3915.27	0.00931
3911.15	0.00939
3907.03	0.00958
3902.91	0.00899
3898.79	0.00966
3894.68	0.00819
3890.56	0.00892
3886.44	0.00891
3882.32	0.00933
3878.2	0.00938
3874.08	0.00835
3869.96	0.00750
3865.84	0.00904
3861.72	0.00910
3857.6	0.00884
3853.48	0.00909
3849.36	0.00836
3845.25	0.00865
3841.13	0.00836
3837.01	0.00635
3832.89	0.00744
3828.77	0.00883
3824.65	0.00899
3820.53	0.00895
3816.41	0.00758
3812.29	0.00819
3808.17	0.00872
3804.05	0.00768
3799.93	0.00748
3795.82	0.00894
3791.7	0.00829
3787.58	0.00832
3783.46	0.00834
3779.34	0.00896
3775.22	0.00883
3771.1	0.00837
3766.98	0.00896
3762.86	0.00862
3758.74	0.00937
3754.62	0.00869
3750.5	0.00714
3746.39	0.00826
3742.27	0.00948
3738.15	0.00988
3734.03	0.01074
3729.91	0.00990
3725.79	0.00970
3721.67	0.00916
3717.55	0.00900
3713.43	0.00976
3709.31	0.00852
3705.19	0.00917
3701.07	0.01030
3696.96	0.00905
3692.84	0.00882
3688.72	0.01145
3684.6	0.01204
3680.48	0.01198
3676.36	0.01279
3672.24	0.01251
3668.12	0.01471
3664	0.01408
3659.88	0.01396
3655.76	0.01587
3651.64	0.01855
3647.53	0.02060
3643.41	0.02050
3639.29	0.02156
3635.17	0.02259
3631.05	0.02460
3626.93	0.02585
3622.81	0.02823
3618.69	0.03072
3614.57	0.03191
3610.45	0.03287
3606.33	0.03379
3602.21	0.03502
3598.1	0.03787
3593.98	0.04128
3589.86	0.04386
3585.74	0.04560
3581.62	0.04613
3577.5	0.04834
3573.38	0.05018
3569.26	0.05232
3565.14	0.05589
3561.02	0.05768
3556.9	0.05988
3552.78	0.06191
3548.67	0.06373
3544.55	0.06572
3540.43	0.06708
3536.31	0.06876
3532.19	0.07017
3528.07	0.07245
3523.95	0.07440
3519.83	0.07492
3515.71	0.07725
3511.59	0.08015
3507.47	0.08127
3503.35	0.08209
3499.24	0.08414
3495.12	0.08530
3491	0.08660
3486.88	0.08790
3482.76	0.08881
3478.64	0.09023
3474.52	0.09080
3470.4	0.09186
3466.28	0.09315
3462.16	0.09409
3458.04	0.09578
3453.92	0.09580
3449.81	0.09718
3445.69	0.09846
3441.57	0.09944
3437.45	0.10009
3433.33	0.10171
3429.21	0.10212
3425.09	0.10315
3420.97	0.10502
3416.85	0.10612
3412.73	0.10818
3408.61	0.10999
3404.49	0.11187
3400.38	0.11375
3396.26	0.11521
3392.14	0.11652
3388.02	0.11800
3383.9	0.11999
3379.78	0.12141
3375.66	0.12191
3371.54	0.12463
3367.42	0.12702
3363.3	0.12922
3359.18	0.13114
3355.06	0.13345
3350.95	0.13647
3346.83	0.13919
3342.71	0.14260
3338.59	0.14696
3334.47	0.15048
3330.35	0.15493
3326.23	0.16014
3322.11	0.16564
3317.99	0.16900
3313.87	0.17458
3309.75	0.18160
3305.63	0.18772
3301.52	0.19405
3297.4	0.20075
3293.28	0.20761
3289.16	0.21370
3285.04	0.21801
3280.92	0.22153
3276.8	0.22284
3272.68	0.22141
3268.56	0.21715
3264.44	0.21277
3260.32	0.20784
3256.2	0.20179
3252.09	0.19595
3247.97	0.18997
3243.85	0.18495
3239.73	0.18014
3235.61	0.17672
3231.49	0.17284
3227.37	0.16812
3223.25	0.16381
3219.13	0.15965
3215.01	0.15584
3210.89	0.15245
3206.77	0.14885
3202.65	0.14504
3198.54	0.14123
3194.42	0.13721
3190.3	0.13331
3186.18	0.12888
3182.06	0.12460
3177.94	0.12168
3173.82	0.11782
3169.7	0.11274
3165.58	0.10850
3161.46	0.10513
3157.34	0.10178
3153.22	0.09852
3149.11	0.09557
3144.99	0.09257
3140.87	0.09009
3136.75	0.08853
3132.63	0.08720
3128.51	0.08536
3124.39	0.08405
3120.27	0.08443
3116.15	0.08413
3112.03	0.08525
3107.91	0.08567
3103.79	0.08634
3099.68	0.08783
3095.56	0.08900
3091.44	0.09005
3087.32	0.09108
3083.2	0.09232
3079.08	0.09212
3074.96	0.09273
3070.84	0.09296
3066.72	0.09198
3062.6	0.09041
3058.48	0.08921
3054.36	0.08618
3050.25	0.08330
3046.13	0.08017
3042.01	0.07771
3037.89	0.07475
3033.77	0.07176
3029.65	0.06868
3025.53	0.06619
3021.41	0.06406
3017.29	0.06253
3013.17	0.06018
3009.05	0.06003
3004.93	0.05969
3000.82	0.05960
2996.7	0.06045
2992.58	0.06189
2988.46	0.06337
2984.34	0.06426
2980.22	0.06471
2976.1	0.06431
2971.98	0.06333
2967.86	0.06304
2963.74	0.06221
2959.62	0.06148
2955.5	0.06026
2951.39	0.06136
2947.27	0.06233
2943.15	0.06470
2939.03	0.06635
2934.91	0.06691
2930.79	0.06609
2926.67	0.06356
2922.55	0.06102
2918.43	0.05811
2914.31	0.05477
2910.19	0.05151
2906.07	0.04980
2901.96	0.04840
2897.84	0.04713
2893.72	0.04647
2889.6	0.04563
2885.48	0.04522
2881.36	0.04567
2877.24	0.04550
2873.12	0.04469
2869	0.04266
2864.88	0.04050
2860.76	0.03948
2856.64	0.03854
2852.53	0.03751
2848.41	0.03671
2844.29	0.03546
2840.17	0.03465
2836.05	0.03366
2831.93	0.03367
2827.81	0.03323
2823.69	0.03311
2819.57	0.03237
2815.45	0.03217
2811.33	0.03172
2807.21	0.03188
2803.1	0.03100
2798.98	0.03045
2794.86	0.02967
2790.74	0.02895
2786.62	0.02859
2782.5	0.02788
2778.38	0.02722
2774.26	0.02660
2770.14	0.02594
2766.02	0.02557
2761.9	0.02527
2757.78	0.02466
2753.67	0.02366
2749.55	0.02312
2745.43	0.02300
2741.31	0.02254
2737.19	0.02199
2733.07	0.02163
2728.95	0.02144
2724.83	0.02097
2720.71	0.02060
2716.59	0.02058
2712.47	0.02031
2708.35	0.01979
2704.24	0.01945
2700.12	0.01943
2696	0.01928
2691.88	0.01894
2687.76	0.01835
2683.64	0.01834
2679.52	0.01793
2675.4	0.01772
2671.28	0.01773
2667.16	0.01770
2663.04	0.01815
2658.92	0.01791
2654.81	0.01771
2650.69	0.01777
2646.57	0.01767
2642.45	0.01742
2638.33	0.01731
2634.21	0.01723
2630.09	0.01739
2625.97	0.01698
2621.85	0.01683
2617.73	0.01675
2613.61	0.01633
2609.49	0.01627
2605.38	0.01588
2601.26	0.01535
2597.14	0.01500
2593.02	0.01431
2588.9	0.01428
2584.78	0.01429
2580.66	0.01427
2576.54	0.01414
2572.42	0.01335
2568.3	0.01316
2564.18	0.01250
2560.06	0.01266
2555.95	0.01247
2551.83	0.01249
2547.71	0.01236
2543.59	0.01178
2539.47	0.01215
2535.35	0.01198
2531.23	0.01182
2527.11	0.01187
2522.99	0.01165
2518.87	0.01088
2514.75	0.01110
2510.63	0.01088
2506.52	0.01153
2502.4	0.01130
2498.28	0.01185
2494.16	0.01164
2490.04	0.01155
2485.92	0.01151
2481.8	0.01150
2477.68	0.01087
2473.56	0.01131
2469.44	0.01089
2465.32	0.01126
2461.2	0.01099
2457.09	0.01081
2452.97	0.01069
2448.85	0.01113
2444.73	0.01081
2440.61	0.01089
2436.49	0.01081
2432.37	0.01049
2428.25	0.01013
2424.13	0.01054
2420.01	0.01033
2415.89	0.01016
2411.77	0.01014
2407.66	0.01000
2403.54	0.00997
2399.42	0.01022
2395.3	0.00988
2391.18	0.00979
2387.06	0.00946
2382.94	0.00930
2378.82	0.00968
2374.7	0.01075
2370.58	0.00952
2366.46	0.00936
2362.34	0.01033
2358.23	0.01057
2354.11	0.01075
2349.99	0.01056
2345.87	0.01074
2341.75	0.01056
2337.63	0.01061
2333.51	0.01098
2329.39	0.01126
2325.27	0.01294
2321.15	0.01228
2317.03	0.01125
2312.91	0.01092
2308.8	0.01054
2304.68	0.01021
2300.56	0.01038
2296.44	0.01047
2292.32	0.01049
2288.2	0.01091
2284.08	0.01061
2279.96	0.01004
2275.84	0.01031
2271.72	0.00919
2267.6	0.00826
2263.48	0.00859
2259.36	0.00970
2255.25	0.00923
2251.13	0.00894
2247.01	0.00963
2242.89	0.00803
2238.77	0.00862
2234.65	0.00861
2230.53	0.00764
2226.41	0.00721
2222.29	0.00770
2218.17	0.00843
2214.05	0.00750
2209.93	0.00735
2205.82	0.00749
2201.7	0.00732
2197.58	0.00944
2193.46	0.00880
2189.34	0.00661
2185.22	0.00592
2181.1	0.00601
2176.98	0.00875
2172.86	0.00925
2168.74	0.00961
2164.62	0.00824
2160.5	0.00520
2156.39	0.00353
2152.27	0.00479
2148.15	0.00457
2144.03	0.00410
2139.91	0.00484
2135.79	0.00528
2131.67	0.00524
2127.55	0.00628
2123.43	0.00737
2119.31	0.00775
2115.19	0.00718
2111.07	0.00774
2106.96	0.00832
2102.84	0.00803
2098.72	0.00811
2094.6	0.00751
2090.48	0.00792
2086.36	0.00928
2082.24	0.00832
2078.12	0.00812
2074	0.00741
2069.88	0.00750
2065.76	0.00778
2061.64	0.00738
2057.53	0.00775
2053.41	0.00753
2049.29	0.00788
2045.17	0.00682
2041.05	0.00548
2036.93	0.00572
2032.81	0.00734
2028.69	0.00621
2024.57	0.00495
2020.45	0.00283
2016.33	0.00497
2012.21	0.00520
2008.1	0.00446
2003.98	0.00349
1999.86	0.00503
1995.74	0.00525
1991.62	0.00414
1987.5	0.00463
1983.38	0.00787
1979.26	0.00510
1975.14	0.00299
1971.02	0.00372
1966.9	0.00430
1962.78	0.00425
1958.67	0.00473
1954.55	0.00507
1950.43	0.00494
1946.31	0.00588
1942.19	0.00543
1938.07	0.00588
1933.95	0.00544
1929.83	0.00439
1925.71	0.00538
1921.59	0.00638
1917.47	0.00651
1913.35	0.00562
1909.24	0.00524
1905.12	0.00601
1901	0.00548
1896.88	0.00601
1892.76	0.00656
1888.64	0.00690
1884.52	0.00662
1880.4	0.00653
1876.28	0.00589
1872.16	0.00618
1868.04	0.00683
1863.92	0.00649
1859.81	0.00640
1855.69	0.00653
1851.57	0.00644
1847.45	0.00646
1843.33	0.00688
1839.21	0.00708
1835.09	0.00677
1830.97	0.00694
1826.85	0.00697
1822.73	0.00692
1818.61	0.00689
1814.49	0.00698
1810.38	0.00746
1806.26	0.00743
1802.14	0.00776
1798.02	0.00825
1793.9	0.00821
1789.78	0.00809
1785.66	0.00802
1781.54	0.00860
1777.42	0.00879
1773.3	0.00898
1769.18	0.00896
1765.06	0.00885
1760.95	0.00913
1756.83	0.00930
1752.71	0.00952
1748.59	0.01031
1744.47	0.01055
1740.35	0.01094
1736.23	0.01145
1732.11	0.01200
1727.99	0.01253
1723.87	0.01367
1719.75	0.01539
1715.63	0.01892
1711.52	0.02345
1707.4	0.03230
1703.28	0.04698
1699.16	0.06066
1695.04	0.06671
1690.92	0.07096
1686.8	0.07712
1682.68	0.08724
1678.56	0.09440
1674.44	0.10275
1670.32	0.11201
1666.2	0.12097
1662.09	0.12934
1657.97	0.13677
1653.85	0.14388
1649.73	0.15281
1645.61	0.15843
1641.49	0.16186
1637.37	0.16570
1633.25	0.17348
1629.13	0.18072
1625.01	0.19064
1620.89	0.19789
1616.77	0.19394
1612.66	0.18056
1608.54	0.16159
1604.42	0.13964
1600.3	0.12062
1596.18	0.10706
1592.06	0.09692
1587.94	0.08999
1583.82	0.08693
1579.7	0.08717
1575.58	0.09121
1571.46	0.09671
1567.34	0.10515
1563.23	0.11208
1559.11	0.12103
1554.99	0.13149
1550.87	0.13810
1546.75	0.14518
1542.63	0.15277
1538.51	0.16261
1534.39	0.16800
1530.27	0.17397
1526.15	0.17885
1522.03	0.18282
1517.91	0.18670
1513.8	0.18926
1509.68	0.18670
1505.56	0.17774
1501.44	0.16803
1497.32	0.15560
1493.2	0.14209
1489.08	0.12833
1484.96	0.11522
1480.84	0.10586
1476.72	0.09906
1472.6	0.09453
1468.48	0.09236
1464.37	0.09233
1460.25	0.09412
1456.13	0.10070
1452.01	0.10596
1447.89	0.10883
1443.77	0.10853
1439.65	0.10554
1435.53	0.09941
1431.41	0.09280
1427.29	0.08826
1423.17	0.08750
1419.05	0.08911
1414.94	0.09120
1410.82	0.09254
1406.7	0.09278
1402.58	0.09106
1398.46	0.08895
1394.34	0.08758
1390.22	0.08713
1386.1	0.08709
1381.98	0.08655
1377.86	0.08564
1373.74	0.08435
1369.62	0.08249
1365.5	0.07919
1361.39	0.07451
1357.27	0.07077
1353.15	0.06917
1349.03	0.06904
1344.91	0.07015
1340.79	0.07180
1336.67	0.07284
1332.55	0.07243
1328.43	0.07050
1324.31	0.06821
1320.19	0.06622
1316.07	0.06546
1311.96	0.06526
1307.84	0.06519
1303.72	0.06544
1299.6	0.06550
1295.48	0.06596
1291.36	0.06651
1287.24	0.06745
1283.12	0.06859
1279	0.07079
1274.88	0.07429
1270.76	0.07871
1266.64	0.08281
1262.53	0.08569
1258.41	0.08759
1254.29	0.08923
1250.17	0.09145
1246.05	0.09413
1241.93	0.09745
1237.81	0.10065
1233.69	0.10297
1229.57	0.10337
1225.45	0.10062
1221.33	0.09588
1217.21	0.08980
1213.1	0.08300
1208.98	0.07587
1204.86	0.06895
1200.74	0.06311
1196.62	0.05851
1192.5	0.05545
1188.38	0.05362
1184.26	0.05310
1180.14	0.05422
1176.02	0.05712
1171.9	0.06003
1167.78	0.06135
1163.67	0.06150
1159.55	0.06035
1155.43	0.05814
1151.31	0.05514
1147.19	0.05198
1143.07	0.04917
1138.95	0.04726
1134.83	0.04563
1130.71	0.04511
1126.59	0.04462
1122.47	0.04440
1118.35	0.04378
1114.24	0.04347
1110.12	0.04399
1106	0.04461
1101.88	0.04465
1097.76	0.04418
1093.64	0.04424
1089.52	0.04543
1085.4	0.04803
1081.28	0.05140
1077.16	0.05423
1073.04	0.05654
1068.92	0.05764
1064.81	0.05755
1060.69	0.05729
1056.57	0.05656
1052.45	0.05527
1048.33	0.05338
1044.21	0.05141
1040.09	0.04919
1035.97	0.04751
1031.85	0.04607
1027.73	0.04443
1023.61	0.04328
1019.49	0.04426
1015.38	0.04604
1011.26	0.04583
1007.14	0.04463
1003.02	0.04359
998.899	0.04250
994.78	0.04092
990.66	0.03830
986.541	0.03603
982.422	0.03587
978.303	0.03655
974.184	0.03650
970.065	0.03503
965.945	0.03374
961.826	0.03287
957.707	0.03233
953.588	0.03207
949.469	0.03192
945.35	0.03152
941.23	0.03107
937.111	0.03074
932.992	0.03022
928.873	0.02961
924.754	0.02879
920.635	0.02779
916.515	0.02676
912.396	0.02610
908.277	0.02545
904.158	0.02520
900.039	0.02493
895.92	0.02482
891.8	0.02461
887.681	0.02440
883.562	0.02455
879.443	0.02449
875.324	0.02484
871.205	0.02510
867.085	0.02548
862.966	0.02616
858.847	0.02727
854.728	0.02840
850.609	0.02894
846.49	0.02884
842.37	0.02888
838.251	0.02958
834.132	0.03036
830.013	0.03116
825.894	0.03129
821.774	0.03114
817.655	0.03091
813.536	0.03110
809.417	0.03155
805.298	0.03197
801.179	0.03227
797.059	0.03241
792.94	0.03276
788.821	0.03356
784.702	0.03450
780.583	0.03531
776.464	0.03613
772.344	0.03717
768.225	0.03852
764.106	0.03953
759.987	0.03994
755.868	0.04075
751.749	0.04201
747.629	0.04316
743.51	0.04485
739.391	0.04622
735.272	0.04744
731.153	0.04911
727.034	0.05068
722.914	0.05188
718.795	0.05319
714.676	0.05418
710.557	0.05529
706.438	0.05634
702.319	0.05792
698.199	0.05891
694.08	0.05964
689.961	0.06021
685.842	0.06087
681.723	0.06107
677.604	0.06124
673.484	0.06156
669.365	0.06169
665.246	0.06210
661.127	0.06241
657.008	0.06269
652.889	0.06278
648.769	0.06310
644.65	0.06389
640.531	0.06387
636.412	0.06404
632.293	0.06397
628.173	0.06407
624.054	0.06400
619.935	0.06376
615.816	0.06393
611.697	0.06431
607.578	0.06443
603.458	0.06408
599.339	0.06299
595.22	0.06269
591.101	0.06262
586.982	0.06232
582.863	0.06221
578.743	0.06195
574.624	0.06200
570.505	0.06251
566.386	0.06343
562.267	0.06419
558.148	0.06545
554.028	0.06748
549.909	0.06887
545.79	0.06864
541.671	0.06877
537.552	0.06847
533.433	0.06780
529.313	0.06748
525.194	0.06753
521.075	0.06666
516.956	0.06581
512.837	0.06545
508.718	0.06514
504.598	0.06485
500.479	0.06445
496.36	0.06367
492.241	0.06345
488.122	0.06292
484.003	0.06251
479.883	0.06199
475.764	0.06118
471.645	0.06050
467.526	0.06025
463.407	0.05932
459.288	0.05873
455.168	0.05808
451.049	0.05786
446.93	0.05723
442.811	0.05699
438.692	0.05650
434.572	0.05527
430.453	0.05578
426.334	0.05620
422.215	0.05609
418.096	0.05505
413.977	0.05578
409.857	0.05459
405.738	0.05278
401.619	0.05209
399.56	0.05216