File: FTIR/db-LASE IR data/AgNPr-LASE lasered at 85C/Silk AgNPr film 85C 9.22.22.dpt
3997.65	0.00878
3993.54	0.00885
3989.42	0.00901
3985.3	0.00807
3981.18	0.00851
3977.06	0.00908
3972.94	0.00805
3968.82	0.00784
3964.7	0.00913
3960.58	0.00829
3956.46	0.00837
3952.34	0.00817
3948.22	0.00849
3944.11	0.00878
3939.99	0.00762
3935.87	0.00834
3931.75	0.00808
3927.63	0.00847
3923.51	0.00757
3919.39	0.00758
3915.27	0.00817
3911.15	0.00825
3907.03	0.00860
3902.91	0.00867
3898.79	0.00760
3894.68	0.00650
3890.56	0.00732
3886.44	0.00737
3882.32	0.00668
3878.2	0.00673
3874.08	0.00683
3869.96	0.00573
3865.84	0.00635
3861.72	0.00756
3857.6	0.00745
3853.48	0.00689
3849.36	0.00624
3845.25	0.00685
3841.13	0.00574
3837.01	0.00495
3832.89	0.00622
3828.77	0.00677
3824.65	0.00746
3820.53	0.00671
3816.41	0.00541
3812.29	0.00656
3808.17	0.00578
3804.05	0.00507
3799.93	0.00601
3795.82	0.00736
3791.7	0.00782
3787.58	0.00724
3783.46	0.00618
3779.34	0.00720
3775.22	0.00780
3771.1	0.00745
3766.98	0.00708
3762.86	0.00718
3758.74	0.00723
3754.62	0.00765
3750.5	0.00795
3746.39	0.00847
3742.27	0.00886
3738.15	0.00961
3734.03	0.01047
3729.91	0.00912
3725.79	0.00966
3721.67	0.00797
3717.55	0.00707
3713.43	0.00796
3709.31	0.00739
3705.19	0.00803
3701.07	0.00905
3696.96	0.00811
3692.84	0.00787
3688.72	0.00940
3684.6	0.01075
3680.48	0.01088
3676.36	0.00975
3672.24	0.01199
3668.12	0.01354
3664	0.01402
3659.88	0.01467
3655.76	0.01708
3651.64	0.01983
3647.53	0.02267
3643.41	0.02286
3639.29	0.02377
3635.17	0.02551
3631.05	0.02754
3626.93	0.02881
3622.81	0.03266
3618.69	0.03502
3614.57	0.03731
3610.45	0.03900
3606.33	0.04051
3602.21	0.04192
3598.1	0.04534
3593.98	0.04843
3589.86	0.05218
3585.74	0.05393
3581.62	0.05587
3577.5	0.05953
3573.38	0.06193
3569.26	0.06517
3565.14	0.07013
3561.02	0.07232
3556.9	0.07429
3552.78	0.07687
3548.67	0.07995
3544.55	0.08249
3540.43	0.08518
3536.31	0.08812
3532.19	0.08950
3528.07	0.09256
3523.95	0.09549
3519.83	0.09668
3515.71	0.09922
3511.59	0.10217
3507.47	0.10406
3503.35	0.10574
3499.24	0.10763
3495.12	0.10921
3491	0.11123
3486.88	0.11335
3482.76	0.11472
3478.64	0.11592
3474.52	0.11644
3470.4	0.11817
3466.28	0.12041
3462.16	0.12178
3458.04	0.12296
3453.92	0.12361
3449.81	0.12510
3445.69	0.12667
3441.57	0.12765
3437.45	0.12972
3433.33	0.13182
3429.21	0.13248
3425.09	0.13439
3420.97	0.13647
3416.85	0.13894
3412.73	0.14259
3408.61	0.14472
3404.49	0.14705
3400.38	0.15007
3396.26	0.15154
3392.14	0.15485
3388.02	0.15757
3383.9	0.16108
3379.78	0.16321
3375.66	0.16668
3371.54	0.17064
3367.42	0.17386
3363.3	0.17723
3359.18	0.18066
3355.06	0.18435
3350.95	0.18888
3346.83	0.19197
3342.71	0.19632
3338.59	0.20185
3334.47	0.20487
3330.35	0.20913
3326.23	0.21349
3322.11	0.21938
3317.99	0.22323
3313.87	0.22695
3309.75	0.23178
3305.63	0.23506
3301.52	0.23814
3297.4	0.24138
3293.28	0.24522
3289.16	0.24697
3285.04	0.24808
3280.92	0.24901
3276.8	0.24936
3272.68	0.24926
3268.56	0.24601
3264.44	0.24320
3260.32	0.24074
3256.2	0.23729
3252.09	0.23220
3247.97	0.22769
3243.85	0.22333
3239.73	0.21926
3235.61	0.21464
3231.49	0.21108
3227.37	0.20686
3223.25	0.20286
3219.13	0.19791
3215.01	0.19270
3210.89	0.18787
3206.77	0.18441
3202.65	0.17951
3198.54	0.17524
3194.42	0.16924
3190.3	0.16318
3186.18	0.15817
3182.06	0.15268
3177.94	0.14840
3173.82	0.14303
3169.7	0.13724
3165.58	0.13249
3161.46	0.12792
3157.34	0.12354
3153.22	0.11885
3149.11	0.11512
3144.99	0.11201
3140.87	0.10988
3136.75	0.10693
3132.63	0.10483
3128.51	0.10309
3124.39	0.10216
3120.27	0.10233
3116.15	0.10273
3112.03	0.10286
3107.91	0.10340
3103.79	0.10440
3099.68	0.10595
3095.56	0.10716
3091.44	0.10899
3087.32	0.11107
3083.2	0.11295
3079.08	0.11349
3074.96	0.11360
3070.84	0.11388
3066.72	0.11372
3062.6	0.11161
3058.48	0.10973
3054.36	0.10658
3050.25	0.10348
3046.13	0.10008
3042.01	0.09670
3037.89	0.09194
3033.77	0.08852
3029.65	0.08417
3025.53	0.08054
3021.41	0.07810
3017.29	0.07629
3013.17	0.07381
3009.05	0.07233
3004.93	0.07113
3000.82	0.07158
2996.7	0.07303
2992.58	0.07475
2988.46	0.07620
2984.34	0.07775
2980.22	0.07845
2976.1	0.07691
2971.98	0.07559
2967.86	0.07497
2963.74	0.07445
2959.62	0.07488
2955.5	0.07473
2951.39	0.07612
2947.27	0.07818
2943.15	0.08217
2939.03	0.08494
2934.91	0.08469
2930.79	0.08183
2926.67	0.07785
2922.55	0.07365
2918.43	0.06953
2914.31	0.06455
2910.19	0.06068
2906.07	0.05811
2901.96	0.05633
2897.84	0.05475
2893.72	0.05395
2889.6	0.05289
2885.48	0.05255
2881.36	0.05320
2877.24	0.05232
2873.12	0.05024
2869	0.04767
2864.88	0.04542
2860.76	0.04398
2856.64	0.04310
2852.53	0.04187
2848.41	0.04116
2844.29	0.03979
2840.17	0.03932
2836.05	0.03909
2831.93	0.03819
2827.81	0.03821
2823.69	0.03805
2819.57	0.03754
2815.45	0.03678
2811.33	0.03630
2807.21	0.03560
2803.1	0.03482
2798.98	0.03412
2794.86	0.03307
2790.74	0.03182
2786.62	0.03087
2782.5	0.02970
2778.38	0.02917
2774.26	0.02843
2770.14	0.02739
2766.02	0.02640
2761.9	0.02611
2757.78	0.02538
2753.67	0.02454
2749.55	0.02396
2745.43	0.02338
2741.31	0.02273
2737.19	0.02215
2733.07	0.02174
2728.95	0.02133
2724.83	0.02090
2720.71	0.02114
2716.59	0.02076
2712.47	0.01992
2708.35	0.01973
2704.24	0.01959
2700.12	0.01954
2696	0.01909
2691.88	0.01897
2687.76	0.01864
2683.64	0.01852
2679.52	0.01803
2675.4	0.01781
2671.28	0.01768
2667.16	0.01771
2663.04	0.01769
2658.92	0.01753
2654.81	0.01768
2650.69	0.01756
2646.57	0.01743
2642.45	0.01669
2638.33	0.01706
2634.21	0.01683
2630.09	0.01651
2625.97	0.01644
2621.85	0.01612
2617.73	0.01597
2613.61	0.01569
2609.49	0.01571
2605.38	0.01522
2601.26	0.01492
2597.14	0.01456
2593.02	0.01393
2588.9	0.01358
2584.78	0.01382
2580.66	0.01326
2576.54	0.01254
2572.42	0.01248
2568.3	0.01243
2564.18	0.01254
2560.06	0.01176
2555.95	0.01124
2551.83	0.01099
2547.71	0.01087
2543.59	0.01064
2539.47	0.01074
2535.35	0.01056
2531.23	0.01062
2527.11	0.01113
2522.99	0.01067
2518.87	0.01101
2514.75	0.01093
2510.63	0.01005
2506.52	0.01064
2502.4	0.01089
2498.28	0.01068
2494.16	0.01012
2490.04	0.01010
2485.92	0.01033
2481.8	0.01025
2477.68	0.00948
2473.56	0.00952
2469.44	0.00955
2465.32	0.00970
2461.2	0.00949
2457.09	0.00917
2452.97	0.00930
2448.85	0.00892
2444.73	0.00904
2440.61	0.00884
2436.49	0.00925
2432.37	0.00882
2428.25	0.00852
2424.13	0.00891
2420.01	0.00859
2415.89	0.00883
2411.77	0.00910
2407.66	0.00882
2403.54	0.00844
2399.42	0.00875
2395.3	0.00857
2391.18	0.00883
2387.06	0.00855
2382.94	0.00828
2378.82	0.00881
2374.7	0.00959
2370.58	0.00893
2366.46	0.00926
2362.34	0.00983
2358.23	0.01024
2354.11	0.00919
2349.99	0.01029
2345.87	0.00951
2341.75	0.00906
2337.63	0.00926
2333.51	0.01142
2329.39	0.01177
2325.27	0.01015
2321.15	0.00909
2317.03	0.00864
2312.91	0.00854
2308.8	0.00861
2304.68	0.00846
2300.56	0.00864
2296.44	0.00896
2292.32	0.00919
2288.2	0.00939
2284.08	0.00980
2279.96	0.00960
2275.84	0.00941
2271.72	0.00847
2267.6	0.00737
2263.48	0.00691
2259.36	0.00846
2255.25	0.00812
2251.13	0.00712
2247.01	0.00763
2242.89	0.00752
2238.77	0.00786
2234.65	0.00741
2230.53	0.00719
2226.41	0.00727
2222.29	0.00716
2218.17	0.00751
2214.05	0.00761
2209.93	0.00777
2205.82	0.00863
2201.7	0.00880
2197.58	0.00929
2193.46	0.00902
2189.34	0.00799
2185.22	0.00852
2181.1	0.00660
2176.98	0.00732
2172.86	0.00688
2168.74	0.00841
2164.62	0.00871
2160.5	0.00650
2156.39	0.00306
2152.27	0.00401
2148.15	0.00590
2144.03	0.00561
2139.91	0.00573
2135.79	0.00665
2131.67	0.00641
2127.55	0.00826
2123.43	0.00754
2119.31	0.00804
2115.19	0.00775
2111.07	0.00890
2106.96	0.00881
2102.84	0.00848
2098.72	0.00759
2094.6	0.00790
2090.48	0.00813
2086.36	0.00902
2082.24	0.00847
2078.12	0.00832
2074	0.00740
2069.88	0.00699
2065.76	0.00713
2061.64	0.00732
2057.53	0.00773
2053.41	0.00866
2049.29	0.00842
2045.17	0.00704
2041.05	0.00649
2036.93	0.00640
2032.81	0.00429
2028.69	0.00403
2024.57	0.00379
2020.45	0.00254
2016.33	0.00435
2012.21	0.00523
2008.1	0.00500
2003.98	0.00457
1999.86	0.00583
1995.74	0.00547
1991.62	0.00418
1987.5	0.00535
1983.38	0.00881
1979.26	0.00669
1975.14	0.00470
1971.02	0.00488
1966.9	0.00416
1962.78	0.00399
1958.67	0.00404
1954.55	0.00518
1950.43	0.00522
1946.31	0.00608
1942.19	0.00498
1938.07	0.00472
1933.95	0.00518
1929.83	0.00493
1925.71	0.00531
1921.59	0.00573
1917.47	0.00591
1913.35	0.00548
1909.24	0.00540
1905.12	0.00602
1901	0.00569
1896.88	0.00588
1892.76	0.00612
1888.64	0.00632
1884.52	0.00626
1880.4	0.00606
1876.28	0.00621
1872.16	0.00591
1868.04	0.00608
1863.92	0.00605
1859.81	0.00609
1855.69	0.00630
1851.57	0.00607
1847.45	0.00600
1843.33	0.00592
1839.21	0.00660
1835.09	0.00681
1830.97	0.00685
1826.85	0.00687
1822.73	0.00680
1818.61	0.00690
1814.49	0.00705
1810.38	0.00732
1806.26	0.00759
1802.14	0.00775
1798.02	0.00809
1793.9	0.00823
1789.78	0.00836
1785.66	0.00848
1781.54	0.00898
1777.42	0.00911
1773.3	0.00944
1769.18	0.00977
1765.06	0.00996
1760.95	0.01051
1756.83	0.01085
1752.71	0.01112
1748.59	0.01163
1744.47	0.01222
1740.35	0.01303
1736.23	0.01358
1732.11	0.01447
1727.99	0.01550
1723.87	0.01710
1719.75	0.01921
1715.63	0.02347
1711.52	0.02942
1707.4	0.03887
1703.28	0.05179
1699.16	0.06901
1695.04	0.08806
1690.92	0.10328
1686.8	0.11822
1682.68	0.13968
1678.56	0.15681
1674.44	0.17534
1670.32	0.19557
1666.2	0.21653
1662.09	0.23672
1657.97	0.25480
1653.85	0.27165
1649.73	0.29034
1645.61	0.30261
1641.49	0.31012
1637.37	0.31282
1633.25	0.30991
1629.13	0.30087
1625.01	0.28391
1620.89	0.26070
1616.77	0.23608
1612.66	0.21025
1608.54	0.18411
1604.42	0.15992
1600.3	0.14354
1596.18	0.13334
1592.06	0.12570
1587.94	0.12100
1583.82	0.12154
1579.7	0.12601
1575.58	0.13535
1571.46	0.14686
1567.34	0.16243
1563.23	0.17587
1559.11	0.19322
1554.99	0.21411
1550.87	0.22882
1546.75	0.24291
1542.63	0.25490
1538.51	0.26796
1534.39	0.27475
1530.27	0.28084
1526.15	0.28397
1522.03	0.28749
1517.91	0.29461
1513.8	0.30011
1509.68	0.29563
1505.56	0.27799
1501.44	0.26174
1497.32	0.23991
1493.2	0.21684
1489.08	0.19274
1484.96	0.17027
1480.84	0.15414
1476.72	0.14234
1472.6	0.13471
1468.48	0.13220
1464.37	0.13361
1460.25	0.13797
1456.13	0.14600
1452.01	0.14970
1447.89	0.14755
1443.77	0.14043
1439.65	0.13111
1435.53	0.12154
1431.41	0.11623
1427.29	0.11502
1423.17	0.11848
1419.05	0.12498
1414.94	0.13143
1410.82	0.13421
1406.7	0.13269
1402.58	0.12759
1398.46	0.12315
1394.34	0.12251
1390.22	0.12471
1386.1	0.12776
1381.98	0.12956
1377.86	0.12927
1373.74	0.12600
1369.62	0.11967
1365.5	0.11143
1361.39	0.10346
1357.27	0.09834
1353.15	0.09678
1349.03	0.09856
1344.91	0.10322
1340.79	0.10894
1336.67	0.11370
1332.55	0.11488
1328.43	0.11215
1324.31	0.10664
1320.19	0.10151
1316.07	0.09932
1311.96	0.09953
1307.84	0.10082
1303.72	0.10260
1299.6	0.10463
1295.48	0.10690
1291.36	0.10887
1287.24	0.11072
1283.12	0.11263
1279	0.11568
1274.88	0.11994
1270.76	0.12499
1266.64	0.12993
1262.53	0.13486
1258.41	0.14008
1254.29	0.14613
1250.17	0.15298
1246.05	0.15977
1241.93	0.16622
1237.81	0.17113
1233.69	0.17332
1229.57	0.17152
1225.45	0.16574
1221.33	0.15624
1217.21	0.14413
1213.1	0.13144
1208.98	0.11964
1204.86	0.10906
1200.74	0.09977
1196.62	0.09218
1192.5	0.08708
1188.38	0.08420
1184.26	0.08353
1180.14	0.08564
1176.02	0.08991
1171.9	0.09358
1167.78	0.09464
1163.67	0.09429
1159.55	0.09243
1155.43	0.08935
1151.31	0.08546
1147.19	0.08140
1143.07	0.07753
1138.95	0.07463
1134.83	0.07237
1130.71	0.07122
1126.59	0.07051
1122.47	0.07004
1118.35	0.06954
1114.24	0.06888
1110.12	0.06890
1106	0.06922
1101.88	0.06827
1097.76	0.06641
1093.64	0.06514
1089.52	0.06626
1085.4	0.06999
1081.28	0.07500
1077.16	0.07943
1073.04	0.08239
1068.92	0.08376
1064.81	0.08419
1060.69	0.08514
1056.57	0.08607
1052.45	0.08512
1048.33	0.08155
1044.21	0.07697
1040.09	0.07297
1035.97	0.07018
1031.85	0.06894
1027.73	0.06808
1023.61	0.06800
1019.49	0.07156
1015.38	0.07669
1011.26	0.07591
1007.14	0.06953
1003.02	0.06195
998.899	0.05552
994.78	0.05063
990.66	0.04687
986.541	0.04407
982.422	0.04250
978.303	0.04189
974.184	0.04198
970.065	0.04203
965.945	0.04280
961.826	0.04384
957.707	0.04484
953.588	0.04591
949.469	0.04684
945.35	0.04687
941.23	0.04621
937.111	0.04499
932.992	0.04346
928.873	0.04205
924.754	0.04064
920.635	0.03929
916.515	0.03810
912.396	0.03680
908.277	0.03582
904.158	0.03539
900.039	0.03496
895.92	0.03457
891.8	0.03425
887.681	0.03422
883.562	0.03433
879.443	0.03475
875.324	0.03527
871.205	0.03596
867.085	0.03766
862.966	0.03931
858.847	0.04152
854.728	0.04346
850.609	0.04497
846.49	0.04537
842.37	0.04573
838.251	0.04728
834.132	0.04898
830.013	0.05001
825.894	0.05034
821.774	0.04987
817.655	0.04985
813.536	0.05070
809.417	0.05199
805.298	0.05306
801.179	0.05388
797.059	0.05457
792.94	0.05534
788.821	0.05630
784.702	0.05739
780.583	0.05895
776.464	0.06029
772.344	0.06142
768.225	0.06323
764.106	0.06494
759.987	0.06645
755.868	0.06826
751.749	0.07037
747.629	0.07230
743.51	0.07442
739.391	0.07613
735.272	0.07789
731.153	0.07968
727.034	0.08131
722.914	0.08291
718.795	0.08464
714.676	0.08656
710.557	0.08861
706.438	0.09045
702.319	0.09286
698.199	0.09493
694.08	0.09642
689.961	0.09797
685.842	0.09983
681.723	0.10106
677.604	0.10221
673.484	0.10396
669.365	0.10743
665.246	0.10653
661.127	0.10700
657.008	0.10768
652.889	0.10814
648.769	0.10877
644.65	0.10894
640.531	0.10908
636.412	0.10942
632.293	0.10915
628.173	0.10901
624.054	0.10940
619.935	0.10943
615.816	0.10932
611.697	0.10945
607.578	0.10949
603.458	0.10981
599.339	0.11008
595.22	0.11071
591.101	0.11150
586.982	0.11260
582.863	0.11331
578.743	0.11394
574.624	0.11544
570.505	0.11728
566.386	0.11918
562.267	0.12142
558.148	0.12273
554.028	0.12480
549.909	0.12615
545.79	0.12730
541.671	0.12766
537.552	0.12801
533.433	0.12801
529.313	0.12717
525.194	0.12673
521.075	0.12650
516.956	0.12636
512.837	0.12667
508.718	0.12658
504.598	0.12602
500.479	0.12499
496.36	0.12395
492.241	0.12335
488.122	0.12299
484.003	0.12197
479.883	0.12101
475.764	0.11960
471.645	0.11781
467.526	0.11683
463.407	0.11564
459.288	0.11391
455.168	0.11220
451.049	0.11082
446.93	0.10941
442.811	0.10889
438.692	0.10759
434.572	0.10516
430.453	0.10464
426.334	0.10400
422.215	0.10388
418.096	0.10354
413.977	0.10327
409.857	0.10273
405.738	0.10112
401.619	0.09885
399.56	0.09782