File: FTIR/db-LASE IR data/AgNPr-LASE lasered at 85C/Silk AgNPr film 85C 2 8.26.22.dpt
3997.65	-0.00465
3993.54	-0.00497
3989.42	-0.00430
3985.3	-0.00316
3981.18	-0.00293
3977.06	-0.00337
3972.94	-0.00340
3968.82	-0.00278
3964.7	-0.00333
3960.58	-0.00328
3956.46	-0.00403
3952.34	-0.00433
3948.22	-0.00535
3944.11	-0.00521
3939.99	-0.00507
3935.87	-0.00530
3931.75	-0.00472
3927.63	-0.00423
3923.51	-0.00373
3919.39	-0.00301
3915.27	-0.00345
3911.15	-0.00359
3907.03	-0.00381
3902.91	-0.00416
3898.79	-0.00380
3894.68	-0.00414
3890.56	-0.00383
3886.44	-0.00398
3882.32	-0.00364
3878.2	-0.00370
3874.08	-0.00205
3869.96	-0.00257
3865.84	-0.00295
3861.72	-0.00192
3857.6	-0.00286
3853.48	0.00041
3849.36	-0.00182
3845.25	-0.00372
3841.13	-0.00443
3837.01	-0.00484
3832.89	-0.00395
3828.77	-0.00308
3824.65	-0.00346
3820.53	-0.00386
3816.41	-0.00485
3812.29	-0.00448
3808.17	-0.00311
3804.05	-0.00354
3799.93	-0.00446
3795.82	-0.00353
3791.7	-0.00412
3787.58	-0.00365
3783.46	-0.00367
3779.34	-0.00407
3775.22	-0.00317
3771.1	-0.00346
3766.98	-0.00319
3762.86	-0.00293
3758.74	-0.00243
3754.62	-0.00194
3750.5	-0.00237
3746.39	-0.00128
3742.27	-0.00031
3738.15	0.00002
3734.03	0.00098
3729.91	-0.00124
3725.79	-0.00233
3721.67	-0.00190
3717.55	-0.00247
3713.43	-0.00190
3709.31	-0.00110
3705.19	-0.00179
3701.07	-0.00095
3696.96	-0.00072
3692.84	-0.00103
3688.72	-0.00046
3684.6	-0.00001
3680.48	0.00128
3676.36	0.00070
3672.24	0.00062
3668.12	0.00312
3664	0.00399
3659.88	0.00503
3655.76	0.00605
3651.64	0.00705
3647.53	0.00843
3643.41	0.01126
3639.29	0.01205
3635.17	0.01398
3631.05	0.01586
3626.93	0.01793
3622.81	0.02080
3618.69	0.02359
3614.57	0.02393
3610.45	0.02598
3606.33	0.02829
3602.21	0.03040
3598.1	0.03272
3593.98	0.03526
3589.86	0.03709
3585.74	0.04057
3581.62	0.04179
3577.5	0.04345
3573.38	0.04720
3569.26	0.04995
3565.14	0.05354
3561.02	0.05514
3556.9	0.05787
3552.78	0.06018
3548.67	0.06310
3544.55	0.06634
3540.43	0.06749
3536.31	0.07073
3532.19	0.07358
3528.07	0.07439
3523.95	0.07810
3519.83	0.07986
3515.71	0.08103
3511.59	0.08393
3507.47	0.08644
3503.35	0.08801
3499.24	0.09031
3495.12	0.09099
3491	0.09244
3486.88	0.09412
3482.76	0.09570
3478.64	0.09745
3474.52	0.09861
3470.4	0.10078
3466.28	0.10105
3462.16	0.10233
3458.04	0.10309
3453.92	0.10478
3449.81	0.10522
3445.69	0.10658
3441.57	0.10902
3437.45	0.11051
3433.33	0.11111
3429.21	0.11290
3425.09	0.11541
3420.97	0.11770
3416.85	0.11940
3412.73	0.12203
3408.61	0.12438
3404.49	0.12587
3400.38	0.12834
3396.26	0.13140
3392.14	0.13382
3388.02	0.13611
3383.9	0.13969
3379.78	0.14251
3375.66	0.14565
3371.54	0.14788
3367.42	0.14995
3363.3	0.15419
3359.18	0.15852
3355.06	0.16239
3350.95	0.16446
3346.83	0.16806
3342.71	0.17251
3338.59	0.17666
3334.47	0.18045
3330.35	0.18494
3326.23	0.18985
3322.11	0.19477
3317.99	0.19808
3313.87	0.20268
3309.75	0.20679
3305.63	0.21133
3301.52	0.21516
3297.4	0.21829
3293.28	0.22219
3289.16	0.22334
3285.04	0.22555
3280.92	0.22550
3276.8	0.22591
3272.68	0.22635
3268.56	0.22448
3264.44	0.22091
3260.32	0.21791
3256.2	0.21421
3252.09	0.21012
3247.97	0.20622
3243.85	0.20275
3239.73	0.19871
3235.61	0.19529
3231.49	0.19126
3227.37	0.18703
3223.25	0.18282
3219.13	0.17907
3215.01	0.17493
3210.89	0.17021
3206.77	0.16604
3202.65	0.16135
3198.54	0.15671
3194.42	0.15131
3190.3	0.14665
3186.18	0.14163
3182.06	0.13757
3177.94	0.13278
3173.82	0.12697
3169.7	0.12218
3165.58	0.11819
3161.46	0.11363
3157.34	0.10954
3153.22	0.10481
3149.11	0.10207
3144.99	0.09800
3140.87	0.09528
3136.75	0.09386
3132.63	0.09214
3128.51	0.09071
3124.39	0.08912
3120.27	0.08973
3116.15	0.08959
3112.03	0.08939
3107.91	0.08993
3103.79	0.09112
3099.68	0.09237
3095.56	0.09383
3091.44	0.09598
3087.32	0.09844
3083.2	0.09976
3079.08	0.10049
3074.96	0.10054
3070.84	0.10040
3066.72	0.10054
3062.6	0.09908
3058.48	0.09655
3054.36	0.09417
3050.25	0.09147
3046.13	0.08690
3042.01	0.08349
3037.89	0.07971
3033.77	0.07638
3029.65	0.07292
3025.53	0.07018
3021.41	0.06744
3017.29	0.06492
3013.17	0.06250
3009.05	0.06078
3004.93	0.05984
3000.82	0.06021
2996.7	0.06127
2992.58	0.06307
2988.46	0.06485
2984.34	0.06654
2980.22	0.06728
2976.1	0.06576
2971.98	0.06382
2967.86	0.06186
2963.74	0.06027
2959.62	0.05850
2955.5	0.05695
2951.39	0.05900
2947.27	0.06336
2943.15	0.06702
2939.03	0.06853
2934.91	0.06652
2930.79	0.05980
2926.67	0.04872
2922.55	0.03152
2918.43	0.00883
2914.31	0.00341
2910.19	0.02165
2906.07	0.03019
2901.96	0.03129
2897.84	0.03243
2893.72	0.03294
2889.6	0.03294
2885.48	0.03494
2881.36	0.03678
2877.24	0.03690
2873.12	0.03557
2869	0.03379
2864.88	0.03149
2860.76	0.02830
2856.64	0.02298
2852.53	0.00984
2848.41	-0.00522
2844.29	0.00948
2840.17	0.02129
2836.05	0.02527
2831.93	0.02621
2827.81	0.02675
2823.69	0.02642
2819.57	0.02704
2815.45	0.02685
2811.33	0.02612
2807.21	0.02534
2803.1	0.02523
2798.98	0.02448
2794.86	0.02370
2790.74	0.02307
2786.62	0.02220
2782.5	0.02090
2778.38	0.02034
2774.26	0.01974
2770.14	0.01919
2766.02	0.01812
2761.9	0.01771
2757.78	0.01743
2753.67	0.01634
2749.55	0.01602
2745.43	0.01588
2741.31	0.01500
2737.19	0.01456
2733.07	0.01399
2728.95	0.01353
2724.83	0.01359
2720.71	0.01305
2716.59	0.01291
2712.47	0.01240
2708.35	0.01222
2704.24	0.01231
2700.12	0.01189
2696	0.01190
2691.88	0.01139
2687.76	0.01144
2683.64	0.01140
2679.52	0.01119
2675.4	0.01120
2671.28	0.01089
2667.16	0.01043
2663.04	0.01065
2658.92	0.01081
2654.81	0.01087
2650.69	0.01054
2646.57	0.01020
2642.45	0.01004
2638.33	0.01047
2634.21	0.00990
2630.09	0.00942
2625.97	0.00999
2621.85	0.00974
2617.73	0.00960
2613.61	0.00940
2609.49	0.00923
2605.38	0.00871
2601.26	0.00832
2597.14	0.00795
2593.02	0.00786
2588.9	0.00834
2584.78	0.00769
2580.66	0.00692
2576.54	0.00704
2572.42	0.00767
2568.3	0.00659
2564.18	0.00651
2560.06	0.00636
2555.95	0.00571
2551.83	0.00594
2547.71	0.00558
2543.59	0.00626
2539.47	0.00635
2535.35	0.00574
2531.23	0.00631
2527.11	0.00604
2522.99	0.00544
2518.87	0.00534
2514.75	0.00573
2510.63	0.00596
2506.52	0.00472
2502.4	0.00443
2498.28	0.00464
2494.16	0.00467
2490.04	0.00537
2485.92	0.00483
2481.8	0.00477
2477.68	0.00470
2473.56	0.00404
2469.44	0.00431
2465.32	0.00435
2461.2	0.00478
2457.09	0.00540
2452.97	0.00421
2448.85	0.00409
2444.73	0.00460
2440.61	0.00473
2436.49	0.00439
2432.37	0.00363
2428.25	0.00458
2424.13	0.00478
2420.01	0.00369
2415.89	0.00369
2411.77	0.00408
2407.66	0.00366
2403.54	0.00389
2399.42	0.00399
2395.3	0.00397
2391.18	0.00380
2387.06	0.00382
2382.94	0.00379
2378.82	0.00328
2374.7	0.00368
2370.58	0.00427
2366.46	0.00407
2362.34	0.00361
2358.23	0.00390
2354.11	0.00404
2349.99	0.00510
2345.87	0.00506
2341.75	0.00344
2337.63	0.00361
2333.51	0.00398
2329.39	0.00451
2325.27	0.00603
2321.15	0.00592
2317.03	0.00509
2312.91	0.00559
2308.8	0.00580
2304.68	0.00588
2300.56	0.00555
2296.44	0.00536
2292.32	0.00500
2288.2	0.00555
2284.08	0.00553
2279.96	0.00452
2275.84	0.00441
2271.72	0.00473
2267.6	0.00559
2263.48	0.00566
2259.36	0.00506
2255.25	0.00444
2251.13	0.00523
2247.01	0.00464
2242.89	0.00477
2238.77	0.00456
2234.65	0.00413
2230.53	0.00531
2226.41	0.00529
2222.29	0.00371
2218.17	0.00381
2214.05	0.00568
2209.93	0.00546
2205.82	0.00645
2201.7	0.00510
2197.58	0.00285
2193.46	0.00385
2189.34	0.00671
2185.22	0.00656
2181.1	0.00520
2176.98	0.00372
2172.86	0.00369
2168.74	0.00499
2164.62	0.00604
2160.5	0.00694
2156.39	0.00502
2152.27	0.00207
2148.15	0.00222
2144.03	0.00409
2139.91	0.00455
2135.79	0.00394
2131.67	0.00400
2127.55	0.00446
2123.43	0.00518
2119.31	0.00593
2115.19	0.00651
2111.07	0.00666
2106.96	0.00677
2102.84	0.00654
2098.72	0.00705
2094.6	0.00560
2090.48	0.00525
2086.36	0.00499
2082.24	0.00540
2078.12	0.00503
2074	0.00464
2069.88	0.00491
2065.76	0.00552
2061.64	0.00492
2057.53	0.00459
2053.41	0.00427
2049.29	0.00531
2045.17	0.00402
2041.05	0.00499
2036.93	0.00419
2032.81	0.00387
2028.69	0.00394
2024.57	0.00464
2020.45	0.00505
2016.33	0.00240
2012.21	0.00334
2008.1	0.00438
2003.98	0.00258
1999.86	0.00302
1995.74	0.00410
1991.62	0.00265
1987.5	0.00319
1983.38	0.00435
1979.26	0.00594
1975.14	0.00588
1971.02	0.00426
1966.9	0.00384
1962.78	0.00242
1958.67	0.00336
1954.55	0.00366
1950.43	0.00322
1946.31	0.00353
1942.19	0.00304
1938.07	0.00384
1933.95	0.00378
1929.83	0.00328
1925.71	0.00322
1921.59	0.00277
1917.47	0.00344
1913.35	0.00321
1909.24	0.00349
1905.12	0.00408
1901	0.00384
1896.88	0.00434
1892.76	0.00443
1888.64	0.00484
1884.52	0.00415
1880.4	0.00426
1876.28	0.00404
1872.16	0.00423
1868.04	0.00380
1863.92	0.00385
1859.81	0.00396
1855.69	0.00416
1851.57	0.00440
1847.45	0.00432
1843.33	0.00492
1839.21	0.00550
1835.09	0.00506
1830.97	0.00479
1826.85	0.00488
1822.73	0.00553
1818.61	0.00554
1814.49	0.00574
1810.38	0.00603
1806.26	0.00635
1802.14	0.00657
1798.02	0.00671
1793.9	0.00696
1789.78	0.00727
1785.66	0.00748
1781.54	0.00786
1777.42	0.00784
1773.3	0.00831
1769.18	0.00886
1765.06	0.00921
1760.95	0.00964
1756.83	0.00990
1752.71	0.01040
1748.59	0.01116
1744.47	0.01161
1740.35	0.01249
1736.23	0.01314
1732.11	0.01449
1727.99	0.01568
1723.87	0.01699
1719.75	0.01919
1715.63	0.02418
1711.52	0.03022
1707.4	0.03950
1703.28	0.05295
1699.16	0.07123
1695.04	0.09245
1690.92	0.10942
1686.8	0.12659
1682.68	0.15055
1678.56	0.16937
1674.44	0.19101
1670.32	0.21451
1666.2	0.23847
1662.09	0.26165
1657.97	0.28305
1653.85	0.30345
1649.73	0.32526
1645.61	0.33871
1641.49	0.34617
1637.37	0.34767
1633.25	0.34372
1629.13	0.33228
1625.01	0.31140
1620.89	0.28408
1616.77	0.25530
1612.66	0.22536
1608.54	0.19530
1604.42	0.16799
1600.3	0.14989
1596.18	0.13936
1592.06	0.13165
1587.94	0.12756
1583.82	0.12810
1579.7	0.13231
1575.58	0.14286
1571.46	0.15637
1567.34	0.17534
1563.23	0.19249
1559.11	0.21320
1554.99	0.23783
1550.87	0.25440
1546.75	0.26913
1542.63	0.27968
1538.51	0.29303
1534.39	0.30289
1530.27	0.31280
1526.15	0.31754
1522.03	0.32144
1517.91	0.32983
1513.8	0.33544
1509.68	0.32853
1505.56	0.30461
1501.44	0.28272
1497.32	0.25476
1493.2	0.22643
1489.08	0.19829
1484.96	0.17334
1480.84	0.15572
1476.72	0.14272
1472.6	0.13423
1468.48	0.13227
1464.37	0.13407
1460.25	0.14019
1456.13	0.15091
1452.01	0.15582
1447.89	0.15339
1443.77	0.14506
1439.65	0.13432
1435.53	0.12356
1431.41	0.11764
1427.29	0.11712
1423.17	0.12161
1419.05	0.12957
1414.94	0.13793
1410.82	0.14158
1406.7	0.14039
1402.58	0.13482
1398.46	0.12947
1394.34	0.12951
1390.22	0.13260
1386.1	0.13598
1381.98	0.13763
1377.86	0.13704
1373.74	0.13330
1369.62	0.12594
1365.5	0.11633
1361.39	0.10749
1357.27	0.10193
1353.15	0.09989
1349.03	0.10176
1344.91	0.10711
1340.79	0.11384
1336.67	0.11973
1332.55	0.12081
1328.43	0.11700
1324.31	0.11058
1320.19	0.10534
1316.07	0.10315
1311.96	0.10362
1307.84	0.10539
1303.72	0.10765
1299.6	0.11022
1295.48	0.11286
1291.36	0.11518
1287.24	0.11700
1283.12	0.11908
1279	0.12263
1274.88	0.12786
1270.76	0.13377
1266.64	0.13952
1262.53	0.14486
1258.41	0.15145
1254.29	0.15900
1250.17	0.16725
1246.05	0.17575
1241.93	0.18310
1237.81	0.18850
1233.69	0.19053
1229.57	0.18761
1225.45	0.17942
1221.33	0.16643
1217.21	0.15072
1213.1	0.13506
1208.98	0.12133
1204.86	0.10968
1200.74	0.09950
1196.62	0.09174
1192.5	0.08670
1188.38	0.08432
1184.26	0.08435
1180.14	0.08734
1176.02	0.09284
1171.9	0.09729
1167.78	0.09840
1163.67	0.09748
1159.55	0.09490
1155.43	0.09094
1151.31	0.08627
1147.19	0.08171
1143.07	0.07778
1138.95	0.07480
1134.83	0.07267
1130.71	0.07149
1126.59	0.07100
1122.47	0.07104
1118.35	0.07095
1114.24	0.07037
1110.12	0.07019
1106	0.07055
1101.88	0.06974
1097.76	0.06745
1093.64	0.06630
1089.52	0.06801
1085.4	0.07265
1081.28	0.07825
1077.16	0.08332
1073.04	0.08676
1068.92	0.08821
1064.81	0.08825
1060.69	0.08928
1056.57	0.09056
1052.45	0.08911
1048.33	0.08485
1044.21	0.07924
1040.09	0.07437
1035.97	0.07136
1031.85	0.07049
1027.73	0.06936
1023.61	0.06939
1019.49	0.07392
1015.38	0.07912
1011.26	0.07783
1007.14	0.07032
1003.02	0.06142
998.899	0.05441
994.78	0.04961
990.66	0.04572
986.541	0.04285
982.422	0.04175
978.303	0.04105
974.184	0.04095
970.065	0.04109
965.945	0.04205
961.826	0.04350
957.707	0.04503
953.588	0.04642
949.469	0.04743
945.35	0.04794
941.23	0.04751
937.111	0.04605
932.992	0.04429
928.873	0.04290
924.754	0.04143
920.635	0.04018
916.515	0.03878
912.396	0.03766
908.277	0.03686
904.158	0.03602
900.039	0.03573
895.92	0.03538
891.8	0.03515
887.681	0.03528
883.562	0.03605
879.443	0.03634
875.324	0.03688
871.205	0.03778
867.085	0.03919
862.966	0.04142
858.847	0.04402
854.728	0.04634
850.609	0.04783
846.49	0.04803
842.37	0.04879
838.251	0.05074
834.132	0.05300
830.013	0.05428
825.894	0.05424
821.774	0.05390
817.655	0.05431
813.536	0.05554
809.417	0.05698
805.298	0.05836
801.179	0.05910
797.059	0.05973
792.94	0.06086
788.821	0.06228
784.702	0.06392
780.583	0.06551
776.464	0.06714
772.344	0.06890
768.225	0.07065
764.106	0.07236
759.987	0.07450
755.868	0.07702
751.749	0.07967
747.629	0.08197
743.51	0.08420
739.391	0.08621
735.272	0.08859
731.153	0.09032
727.034	0.09197
722.914	0.09433
718.795	0.09639
714.676	0.09878
710.557	0.10123
706.438	0.10379
702.319	0.10659
698.199	0.10864
694.08	0.11037
689.961	0.11208
685.842	0.11440
681.723	0.11628
677.604	0.11821
673.484	0.11980
669.365	0.12100
665.246	0.12293
661.127	0.12378
657.008	0.12468
652.889	0.12515
648.769	0.12552
644.65	0.12569
640.531	0.12590
636.412	0.12613
632.293	0.12649
628.173	0.12613
624.054	0.12643
619.935	0.12627
615.816	0.12665
611.697	0.12651
607.578	0.12664
603.458	0.12707
599.339	0.12774
595.22	0.12854
591.101	0.12905
586.982	0.13002
582.863	0.13092
578.743	0.13286
574.624	0.13489
570.505	0.13657
566.386	0.13849
562.267	0.14063
558.148	0.14345
554.028	0.14597
549.909	0.14766
545.79	0.14881
541.671	0.14942
537.552	0.14919
533.433	0.14939
529.313	0.14907
525.194	0.14841
521.075	0.14757
516.956	0.14797
512.837	0.14797
508.718	0.14739
504.598	0.14741
500.479	0.14665
496.36	0.14519
492.241	0.14495
488.122	0.14411
484.003	0.14346
479.883	0.14225
475.764	0.14012
471.645	0.13800
467.526	0.13612
463.407	0.13455
459.288	0.13364
455.168	0.13121
451.049	0.12924
446.93	0.12897
442.811	0.12713
438.692	0.12518
434.572	0.12428
430.453	0.12373
426.334	0.12276
422.215	0.12302
418.096	0.12212
413.977	0.11954
409.857	0.11932
405.738	0.11906
401.619	0.11788
399.56	0.11841