File: FTIR/Clancy/CBN_recrystal_Floraworks_2025_10_4_ECE_scan2.csv
Created as New Dataset,Sample 184 By YargerLab Date Saturday, October 04 2025
cm-1,A
4000.00,0.0116
3997.00,0.0115
3994.00,0.0115
3991.00,0.0115
3988.00,0.0115
3985.00,0.0115
3982.00,0.0116
3979.00,0.0116
3976.00,0.0116
3973.00,0.0117
3970.00,0.0117
3967.00,0.0117
3964.00,0.0117
3961.00,0.0116
3958.00,0.0115
3955.00,0.0115
3952.00,0.0115
3949.00,0.0115
3946.00,0.0115
3943.00,0.0114
3940.00,0.0114
3937.00,0.0114
3934.00,0.0114
3931.00,0.0115
3928.00,0.0115
3925.00,0.0114
3922.00,0.0115
3919.00,0.0115
3916.00,0.0114
3913.00,0.0115
3910.00,0.0115
3907.00,0.0114
3904.00,0.0114
3901.00,0.0113
3898.00,0.0113
3895.00,0.0114
3892.00,0.0114
3889.00,0.0113
3886.00,0.0113
3883.00,0.0113
3880.00,0.0113
3877.00,0.0112
3874.00,0.0112
3871.00,0.0112
3868.00,0.0112
3865.00,0.0113
3862.00,0.0112
3859.00,0.0113
3856.00,0.0112
3853.00,0.0111
3850.00,0.0112
3847.00,0.0112
3844.00,0.0112
3841.00,0.0111
3838.00,0.0111
3835.00,0.0112
3832.00,0.0112
3829.00,0.0112
3826.00,0.0111
3823.00,0.0111
3820.00,0.0111
3817.00,0.0111
3814.00,0.0111
3811.00,0.0111
3808.00,0.0111
3805.00,0.0111
3802.00,0.0111
3799.00,0.0110
3796.00,0.0111
3793.00,0.0111
3790.00,0.0111
3787.00,0.0111
3784.00,0.0110
3781.00,0.0110
3778.00,0.0110
3775.00,0.0110
3772.00,0.0110
3769.00,0.0110
3766.00,0.0110
3763.00,0.0111
3760.00,0.0110
3757.00,0.0110
3754.00,0.0110
3751.00,0.0109
3748.00,0.0109
3745.00,0.0109
3742.00,0.0109
3739.00,0.0108
3736.00,0.0108
3733.00,0.0107
3730.00,0.0107
3727.00,0.0107
3724.00,0.0108
3721.00,0.0108
3718.00,0.0108
3715.00,0.0107
3712.00,0.0106
3709.00,0.0106
3706.00,0.0106
3703.00,0.0106
3700.00,0.0106
3697.00,0.0107
3694.00,0.0107
3691.00,0.0107
3688.00,0.0106
3685.00,0.0106
3682.00,0.0107
3679.00,0.0106
3676.00,0.0106
3673.00,0.0105
3670.00,0.0105
3667.00,0.0106
3664.00,0.0106
3661.00,0.0107
3658.00,0.0107
3655.00,0.0106
3652.00,0.0105
3649.00,0.0105
3646.00,0.0105
3643.00,0.0105
3640.00,0.0106
3637.00,0.0106
3634.00,0.0105
3631.00,0.0105
3628.00,0.0105
3625.00,0.0105
3622.00,0.0106
3619.00,0.0106
3616.00,0.0107
3613.00,0.0106
3610.00,0.0106
3607.00,0.0107
3604.00,0.0106
3601.00,0.0106
3598.00,0.0107
3595.00,0.0107
3592.00,0.0107
3589.00,0.0107
3586.00,0.0107
3583.00,0.0108
3580.00,0.0109
3577.00,0.0109
3574.00,0.0109
3571.00,0.0110
3568.00,0.0110
3565.00,0.0110
3562.00,0.0111
3559.00,0.0112
3556.00,0.0113
3553.00,0.0114
3550.00,0.0115
3547.00,0.0116
3544.00,0.0117
3541.00,0.0118
3538.00,0.0120
3535.00,0.0121
3532.00,0.0123
3529.00,0.0124
3526.00,0.0125
3523.00,0.0127
3520.00,0.0130
3517.00,0.0131
3514.00,0.0134
3511.00,0.0136
3508.00,0.0138
3505.00,0.0141
3502.00,0.0144
3499.00,0.0147
3496.00,0.0151
3493.00,0.0155
3490.00,0.0160
3487.00,0.0164
3484.00,0.0169
3481.00,0.0175
3478.00,0.0181
3475.00,0.0187
3472.00,0.0194
3469.00,0.0201
3466.00,0.0207
3463.00,0.0215
3460.00,0.0223
3457.00,0.0231
3454.00,0.0239
3451.00,0.0247
3448.00,0.0256
3445.00,0.0266
3442.00,0.0275
3439.00,0.0286
3436.00,0.0298
3433.00,0.0311
3430.00,0.0325
3427.00,0.0339
3424.00,0.0354
3421.00,0.0370
3418.00,0.0385
3415.00,0.0398
3412.00,0.0412
3409.00,0.0423
3406.00,0.0430
3403.00,0.0436
3400.00,0.0438
3397.00,0.0436
3394.00,0.0433
3391.00,0.0427
3388.00,0.0419
3385.00,0.0410
3382.00,0.0401
3379.00,0.0392
3376.00,0.0383
3373.00,0.0374
3370.00,0.0367
3367.00,0.0359
3364.00,0.0352
3361.00,0.0346
3358.00,0.0340
3355.00,0.0336
3352.00,0.0333
3349.00,0.0329
3346.00,0.0326
3343.00,0.0324
3340.00,0.0323
3337.00,0.0322
3334.00,0.0321
3331.00,0.0322
3328.00,0.0323
3325.00,0.0325
3322.00,0.0326
3319.00,0.0329
3316.00,0.0333
3313.00,0.0336
3310.00,0.0340
3307.00,0.0344
3304.00,0.0349
3301.00,0.0353
3298.00,0.0358
3295.00,0.0364
3292.00,0.0370
3289.00,0.0375
3286.00,0.0381
3283.00,0.0386
3280.00,0.0392
3277.00,0.0399
3274.00,0.0405
3271.00,0.0411
3268.00,0.0416
3265.00,0.0422
3262.00,0.0428
3259.00,0.0434
3256.00,0.0440
3253.00,0.0445
3250.00,0.0451
3247.00,0.0455
3244.00,0.0460
3241.00,0.0463
3238.00,0.0465
3235.00,0.0465
3232.00,0.0466
3229.00,0.0466
3226.00,0.0465
3223.00,0.0464
3220.00,0.0462
3217.00,0.0458
3214.00,0.0454
3211.00,0.0448
3208.00,0.0442
3205.00,0.0435
3202.00,0.0428
3199.00,0.0420
3196.00,0.0412
3193.00,0.0405
3190.00,0.0396
3187.00,0.0387
3184.00,0.0380
3181.00,0.0372
3178.00,0.0364
3175.00,0.0355
3172.00,0.0347
3169.00,0.0338
3166.00,0.0330
3163.00,0.0321
3160.00,0.0312
3157.00,0.0304
3154.00,0.0294
3151.00,0.0287
3148.00,0.0281
3145.00,0.0274
3142.00,0.0267
3139.00,0.0259
3136.00,0.0254
3133.00,0.0248
3130.00,0.0244
3127.00,0.0240
3124.00,0.0236
3121.00,0.0232
3118.00,0.0228
3115.00,0.0223
3112.00,0.0219
3109.00,0.0213
3106.00,0.0208
3103.00,0.0204
3100.00,0.0201
3097.00,0.0199
3094.00,0.0199
3091.00,0.0200
3088.00,0.0203
3085.00,0.0204
3082.00,0.0203
3079.00,0.0201
3076.00,0.0199
3073.00,0.0197
3070.00,0.0195
3067.00,0.0195
3064.00,0.0196
3061.00,0.0197
3058.00,0.0198
3055.00,0.0199
3052.00,0.0199
3049.00,0.0198
3046.00,0.0196
3043.00,0.0196
3040.00,0.0199
3037.00,0.0205
3034.00,0.0210
3031.00,0.0211
3028.00,0.0207
3025.00,0.0199
3022.00,0.0191
3019.00,0.0185
3016.00,0.0181
3013.00,0.0180
3010.00,0.0183
3007.00,0.0188
3004.00,0.0197
3001.00,0.0212
2998.00,0.0233
2995.00,0.0260
2992.00,0.0281
2989.00,0.0293
2986.00,0.0312
2983.00,0.0352
2980.00,0.0407
2977.00,0.0430
2974.00,0.0456
2971.00,0.0524
2968.00,0.0564
2965.00,0.0587
2962.00,0.0626
2959.00,0.0636
2956.00,0.0588
2953.00,0.0517
2950.00,0.0470
2947.00,0.0463
2944.00,0.0490
2941.00,0.0538
2938.00,0.0612
2935.00,0.0727
2932.00,0.0870
2929.00,0.1000
2926.00,0.1055
2923.00,0.1019
2920.00,0.0936
2917.00,0.0839
2914.00,0.0745
2911.00,0.0670
2908.00,0.0611
2905.00,0.0563
2902.00,0.0521
2899.00,0.0482
2896.00,0.0450
2893.00,0.0425
2890.00,0.0404
2887.00,0.0386
2884.00,0.0374
2881.00,0.0377
2878.00,0.0404
2875.00,0.0450
2872.00,0.0479
2869.00,0.0475
2866.00,0.0477
2863.00,0.0528
2860.00,0.0636
2857.00,0.0736
2854.00,0.0769
2851.00,0.0736
2848.00,0.0633
2845.00,0.0515
2842.00,0.0425
2839.00,0.0364
2836.00,0.0324
2833.00,0.0298
2830.00,0.0278
2827.00,0.0262
2824.00,0.0250
2821.00,0.0240
2818.00,0.0232
2815.00,0.0225
2812.00,0.0219
2809.00,0.0214
2806.00,0.0210
2803.00,0.0206
2800.00,0.0203
2797.00,0.0199
2794.00,0.0196
2791.00,0.0192
2788.00,0.0189
2785.00,0.0186
2782.00,0.0183
2779.00,0.0181
2776.00,0.0178
2773.00,0.0177
2770.00,0.0177
2767.00,0.0175
2764.00,0.0175
2761.00,0.0175
2758.00,0.0174
2755.00,0.0174
2752.00,0.0174
2749.00,0.0175
2746.00,0.0175
2743.00,0.0176
2740.00,0.0178
2737.00,0.0182
2734.00,0.0186
2731.00,0.0189
2728.00,0.0189
2725.00,0.0186
2722.00,0.0184
2719.00,0.0181
2716.00,0.0179
2713.00,0.0177
2710.00,0.0177
2707.00,0.0176
2704.00,0.0176
2701.00,0.0175
2698.00,0.0173
2695.00,0.0172
2692.00,0.0170
2689.00,0.0169
2686.00,0.0167
2683.00,0.0166
2680.00,0.0165
2677.00,0.0165
2674.00,0.0166
2671.00,0.0167
2668.00,0.0169
2665.00,0.0171
2662.00,0.0173
2659.00,0.0174
2656.00,0.0174
2653.00,0.0174
2650.00,0.0174
2647.00,0.0174
2644.00,0.0174
2641.00,0.0173
2638.00,0.0171
2635.00,0.0169
2632.00,0.0166
2629.00,0.0164
2626.00,0.0161
2623.00,0.0160
2620.00,0.0159
2617.00,0.0158
2614.00,0.0157
2611.00,0.0157
2608.00,0.0158
2605.00,0.0158
2602.00,0.0160
2599.00,0.0161
2596.00,0.0162
2593.00,0.0162
2590.00,0.0162
2587.00,0.0162
2584.00,0.0162
2581.00,0.0162
2578.00,0.0160
2575.00,0.0158
2572.00,0.0157
2569.00,0.0158
2566.00,0.0158
2563.00,0.0157
2560.00,0.0154
2557.00,0.0152
2554.00,0.0151
2551.00,0.0150
2548.00,0.0150
2545.00,0.0150
2542.00,0.0150
2539.00,0.0151
2536.00,0.0152
2533.00,0.0151
2530.00,0.0150
2527.00,0.0149
2524.00,0.0148
2521.00,0.0147
2518.00,0.0145
2515.00,0.0144
2512.00,0.0144
2509.00,0.0142
2506.00,0.0141
2503.00,0.0141
2500.00,0.0140
2497.00,0.0139
2494.00,0.0139
2491.00,0.0138
2488.00,0.0137
2485.00,0.0137
2482.00,0.0136
2479.00,0.0136
2476.00,0.0136
2473.00,0.0135
2470.00,0.0135
2467.00,0.0135
2464.00,0.0134
2461.00,0.0134
2458.00,0.0134
2455.00,0.0134
2452.00,0.0135
2449.00,0.0134
2446.00,0.0133
2443.00,0.0133
2440.00,0.0131
2437.00,0.0130
2434.00,0.0130
2431.00,0.0129
2428.00,0.0129
2425.00,0.0129
2422.00,0.0129
2419.00,0.0128
2416.00,0.0129
2413.00,0.0129
2410.00,0.0128
2407.00,0.0127
2404.00,0.0126
2401.00,0.0127
2398.00,0.0126
2395.00,0.0126
2392.00,0.0125
2389.00,0.0125
2386.00,0.0124
2383.00,0.0123
2380.00,0.0121
2377.00,0.0122
2374.00,0.0123
2371.00,0.0123
2368.00,0.0123
2365.00,0.0123
2362.00,0.0123
2359.00,0.0123
2356.00,0.0124
2353.00,0.0124
2350.00,0.0124
2347.00,0.0124
2344.00,0.0125
2341.00,0.0126
2338.00,0.0126
2335.00,0.0125
2332.00,0.0124
2329.00,0.0126
2326.00,0.0136
2323.00,0.0134
2320.00,0.0129
2317.00,0.0127
2314.00,0.0125
2311.00,0.0123
2308.00,0.0122
2305.00,0.0123
2302.00,0.0123
2299.00,0.0124
2296.00,0.0126
2293.00,0.0128
2290.00,0.0131
2287.00,0.0133
2284.00,0.0131
2281.00,0.0127
2278.00,0.0125
2275.00,0.0122
2272.00,0.0120
2269.00,0.0119
2266.00,0.0116
2263.00,0.0116
2260.00,0.0116
2257.00,0.0114
2254.00,0.0112
2251.00,0.0115
2248.00,0.0116
2245.00,0.0116
2242.00,0.0116
2239.00,0.0118
2236.00,0.0116
2233.00,0.0117
2230.00,0.0116
2227.00,0.0114
2224.00,0.0113
2221.00,0.0115
2218.00,0.0114
2215.00,0.0113
2212.00,0.0115
2209.00,0.0115
2206.00,0.0115
2203.00,0.0114
2200.00,0.0110
2197.00,0.0111
2194.00,0.0112
2191.00,0.0113
2188.00,0.0118
2185.00,0.0113
2182.00,0.0108
2179.00,0.0108
2176.00,0.0106
2173.00,0.0110
2170.00,0.0113
2167.00,0.0117
2164.00,0.0123
2161.00,0.0108
2158.00,0.0080
2155.00,0.0085
2152.00,0.0090
2149.00,0.0092
2146.00,0.0090
2143.00,0.0093
2140.00,0.0096
2137.00,0.0090
2134.00,0.0084
2131.00,0.0091
2128.00,0.0094
2125.00,0.0097
2122.00,0.0099
2119.00,0.0102
2116.00,0.0105
2113.00,0.0104
2110.00,0.0101
2107.00,0.0100
2104.00,0.0101
2101.00,0.0101
2098.00,0.0099
2095.00,0.0096
2092.00,0.0097
2089.00,0.0099
2086.00,0.0101
2083.00,0.0103
2080.00,0.0104
2077.00,0.0106
2074.00,0.0104
2071.00,0.0104
2068.00,0.0104
2065.00,0.0101
2062.00,0.0100
2059.00,0.0099
2056.00,0.0098
2053.00,0.0102
2050.00,0.0100
2047.00,0.0094
2044.00,0.0095
2041.00,0.0098
2038.00,0.0101
2035.00,0.0101
2032.00,0.0096
2029.00,0.0093
2026.00,0.0093
2023.00,0.0093
2020.00,0.0095
2017.00,0.0093
2014.00,0.0093
2011.00,0.0093
2008.00,0.0084
2005.00,0.0080
2002.00,0.0088
1999.00,0.0092
1996.00,0.0096
1993.00,0.0097
1990.00,0.0098
1987.00,0.0101
1984.00,0.0106
1981.00,0.0112
1978.00,0.0094
1975.00,0.0089
1972.00,0.0092
1969.00,0.0088
1966.00,0.0088
1963.00,0.0088
1960.00,0.0086
1957.00,0.0088
1954.00,0.0091
1951.00,0.0091
1948.00,0.0093
1945.00,0.0093
1942.00,0.0093
1939.00,0.0095
1936.00,0.0096
1933.00,0.0096
1930.00,0.0097
1927.00,0.0097
1924.00,0.0099
1921.00,0.0100
1918.00,0.0103
1915.00,0.0104
1912.00,0.0114
1909.00,0.0131
1906.00,0.0126
1903.00,0.0112
1900.00,0.0109
1897.00,0.0111
1894.00,0.0116
1891.00,0.0112
1888.00,0.0105
1885.00,0.0103
1882.00,0.0102
1879.00,0.0103
1876.00,0.0103
1873.00,0.0103
1870.00,0.0102
1867.00,0.0103
1864.00,0.0104
1861.00,0.0105
1858.00,0.0105
1855.00,0.0105
1852.00,0.0107
1849.00,0.0109
1846.00,0.0114
1843.00,0.0113
1840.00,0.0108
1837.00,0.0104
1834.00,0.0103
1831.00,0.0102
1828.00,0.0101
1825.00,0.0103
1822.00,0.0103
1819.00,0.0101
1816.00,0.0100
1813.00,0.0102
1810.00,0.0102
1807.00,0.0103
1804.00,0.0104
1801.00,0.0105
1798.00,0.0108
1795.00,0.0111
1792.00,0.0111
1789.00,0.0109
1786.00,0.0108
1783.00,0.0107
1780.00,0.0108
1777.00,0.0113
1774.00,0.0118
1771.00,0.0119
1768.00,0.0115
1765.00,0.0113
1762.00,0.0116
1759.00,0.0120
1756.00,0.0116
1753.00,0.0112
1750.00,0.0111
1747.00,0.0112
1744.00,0.0113
1741.00,0.0114
1738.00,0.0115
1735.00,0.0118
1732.00,0.0121
1729.00,0.0125
1726.00,0.0129
1723.00,0.0133
1720.00,0.0136
1717.00,0.0137
1714.00,0.0142
1711.00,0.0146
1708.00,0.0147
1705.00,0.0147
1702.00,0.0148
1699.00,0.0150
1696.00,0.0152
1693.00,0.0154
1690.00,0.0155
1687.00,0.0157
1684.00,0.0157
1681.00,0.0159
1678.00,0.0160
1675.00,0.0162
1672.00,0.0163
1669.00,0.0163
1666.00,0.0166
1663.00,0.0170
1660.00,0.0173
1657.00,0.0176
1654.00,0.0179
1651.00,0.0183
1648.00,0.0189
1645.00,0.0201
1642.00,0.0218
1639.00,0.0234
1636.00,0.0257
1633.00,0.0328
1630.00,0.0480
1627.00,0.0777
1624.00,0.1057
1621.00,0.1212
1618.00,0.1141
1615.00,0.0938
1612.00,0.0938
1609.00,0.0948
1606.00,0.0822
1603.00,0.0655
1600.00,0.0524
1597.00,0.0459
1594.00,0.0470
1591.00,0.0585
1588.00,0.0794
1585.00,0.0971
1582.00,0.1011
1579.00,0.0943
1576.00,0.0811
1573.00,0.0702
1570.00,0.0645
1567.00,0.0589
1564.00,0.0497
1561.00,0.0418
1558.00,0.0339
1555.00,0.0312
1552.00,0.0296
1549.00,0.0285
1546.00,0.0278
1543.00,0.0270
1540.00,0.0262
1537.00,0.0254
1534.00,0.0247
1531.00,0.0241
1528.00,0.0241
1525.00,0.0246
1522.00,0.0258
1519.00,0.0278
1516.00,0.0308
1513.00,0.0339
1510.00,0.0356
1507.00,0.0357
1504.00,0.0364
1501.00,0.0411
1498.00,0.0584
1495.00,0.0705
1492.00,0.0579
1489.00,0.0419
1486.00,0.0336
1483.00,0.0296
1480.00,0.0278
1477.00,0.0279
1474.00,0.0301
1471.00,0.0401
1468.00,0.0578
1465.00,0.0676
1462.00,0.0637
1459.00,0.0638
1456.00,0.0615
1453.00,0.0581
1450.00,0.0591
1447.00,0.0624
1444.00,0.0690
1441.00,0.0765
1438.00,0.0811
1435.00,0.0880
1432.00,0.0975
1429.00,0.1026
1426.00,0.0981
1423.00,0.0889
1420.00,0.0811
1417.00,0.0731
1414.00,0.0690
1411.00,0.0706
1408.00,0.0807
1405.00,0.1000
1402.00,0.1191
1399.00,0.1241
1396.00,0.1114
1393.00,0.0909
1390.00,0.0797
1387.00,0.0838
1384.00,0.0790
1381.00,0.0743
1378.00,0.0745
1375.00,0.0664
1372.00,0.0547
1369.00,0.0594
1366.00,0.0773
1363.00,0.0855
1360.00,0.1016
1357.00,0.0941
1354.00,0.0801
1351.00,0.0766
1348.00,0.0786
1345.00,0.0775
1342.00,0.0702
1339.00,0.0603
1336.00,0.0553
1333.00,0.0583
1330.00,0.0623
1327.00,0.0617
1324.00,0.0571
1321.00,0.0534
1318.00,0.0500
1315.00,0.0456
1312.00,0.0444
1309.00,0.0494
1306.00,0.0615
1303.00,0.0826
1300.00,0.0951
1297.00,0.0861
1294.00,0.0794
1291.00,0.0723
1288.00,0.0714
1285.00,0.0825
1282.00,0.0883
1279.00,0.0761
1276.00,0.0594
1273.00,0.0493
1270.00,0.0431
1267.00,0.0400
1264.00,0.0385
1261.00,0.0362
1258.00,0.0345
1255.00,0.0343
1252.00,0.0364
1249.00,0.0427
1246.00,0.0542
1243.00,0.0654
1240.00,0.0730
1237.00,0.0859
1234.00,0.0994
1231.00,0.0953
1228.00,0.0788
1225.00,0.0663
1222.00,0.0605
1219.00,0.0620
1216.00,0.0690
1213.00,0.0711
1210.00,0.0613
1207.00,0.0515
1204.00,0.0520
1201.00,0.0645
1198.00,0.0852
1195.00,0.1064
1192.00,0.1071
1189.00,0.0884
1186.00,0.0661
1183.00,0.0506
1180.00,0.0424
1177.00,0.0380
1174.00,0.0355
1171.00,0.0344
1168.00,0.0342
1165.00,0.0358
1162.00,0.0423
1159.00,0.0615
1156.00,0.0951
1153.00,0.1021
1150.00,0.0695
1147.00,0.0463
1144.00,0.0395
1141.00,0.0390
1138.00,0.0434
1135.00,0.0578
1132.00,0.0922
1129.00,0.1309
1126.00,0.1337
1123.00,0.1084
1120.00,0.0780
1117.00,0.0632
1114.00,0.0599
1111.00,0.0551
1108.00,0.0500
1105.00,0.0545
1102.00,0.0763
1099.00,0.0939
1096.00,0.0770
1093.00,0.0534
1090.00,0.0417
1087.00,0.0369
1084.00,0.0347
1081.00,0.0339
1078.00,0.0341
1075.00,0.0350
1072.00,0.0372
1069.00,0.0413
1066.00,0.0468
1063.00,0.0570
1060.00,0.0812
1057.00,0.1263
1054.00,0.1691
1051.00,0.1823
1048.00,0.1782
1045.00,0.1531
1042.00,0.1180
1039.00,0.0938
1036.00,0.0896
1033.00,0.0960
1030.00,0.1226
1027.00,0.1615
1024.00,0.1506
1021.00,0.1090
1018.00,0.0786
1015.00,0.0618
1012.00,0.0542
1009.00,0.0578
1006.00,0.0732
1003.00,0.0849
1000.00,0.0802
997.00,0.0720
994.00,0.0664
991.00,0.0582
988.00,0.0479
985.00,0.0414
982.00,0.0380
979.00,0.0371
976.00,0.0374
973.00,0.0372
970.00,0.0365
967.00,0.0367
964.00,0.0388
961.00,0.0399
958.00,0.0340
955.00,0.0291
952.00,0.0270
949.00,0.0292
946.00,0.0297
943.00,0.0298
940.00,0.0337
937.00,0.0365
934.00,0.0394
931.00,0.0410
928.00,0.0379
925.00,0.0399
922.00,0.0475
919.00,0.0437
916.00,0.0328
913.00,0.0269
910.00,0.0251
907.00,0.0257
904.00,0.0306
901.00,0.0433
898.00,0.0494
895.00,0.0400
892.00,0.0435
889.00,0.0504
886.00,0.0346
883.00,0.0296
880.00,0.0329
877.00,0.0467
874.00,0.0761
871.00,0.1099
868.00,0.1145
865.00,0.0922
862.00,0.0692
859.00,0.0537
856.00,0.0587
853.00,0.0763
850.00,0.0957
847.00,0.0963
844.00,0.0743
841.00,0.0622
838.00,0.0696
835.00,0.0937
832.00,0.1023
829.00,0.0814
826.00,0.0560
823.00,0.0691
820.00,0.1204
817.00,0.1379
814.00,0.1360
811.00,0.0755
808.00,0.0476
805.00,0.0378
802.00,0.0334
799.00,0.0307
796.00,0.0291
793.00,0.0278
790.00,0.0269
787.00,0.0263
784.00,0.0262
781.00,0.0264
778.00,0.0296
775.00,0.0411
772.00,0.0392
769.00,0.0310
766.00,0.0291
763.00,0.0313
760.00,0.0360
757.00,0.0350
754.00,0.0309
751.00,0.0297
748.00,0.0300
745.00,0.0313
742.00,0.0350
739.00,0.0458
736.00,0.0709
733.00,0.0771
730.00,0.0732
727.00,0.0739
724.00,0.0555
721.00,0.0457
718.00,0.0508
715.00,0.0619
712.00,0.0596
709.00,0.0516
706.00,0.0487
703.00,0.0518
700.00,0.0573
697.00,0.0600
694.00,0.0549
691.00,0.0570
688.00,0.0672
685.00,0.0614
682.00,0.0551
679.00,0.0566
676.00,0.0635
673.00,0.0741
670.00,0.0797
667.00,0.0735
664.00,0.0722
661.00,0.0750
658.00,0.0676
655.00,0.0578
652.00,0.0532
649.00,0.0509
646.00,0.0497
643.00,0.0487
640.00,0.0479
637.00,0.0476
634.00,0.0475
631.00,0.0477
628.00,0.0494
625.00,0.0543
622.00,0.0632
619.00,0.0688
616.00,0.0612
613.00,0.0504
610.00,0.0501
607.00,0.0643
604.00,0.0843
601.00,0.0926
598.00,0.0929
595.00,0.0912
592.00,0.0878
589.00,0.0821
586.00,0.0766
583.00,0.0746
580.00,0.0797
577.00,0.0954
574.00,0.0925
571.00,0.0745
568.00,0.0647
565.00,0.0679
562.00,0.0806
559.00,0.0901
556.00,0.0827
553.00,0.0761
550.00,0.0837
547.00,0.0994
544.00,0.1001
541.00,0.0882
538.00,0.0798
535.00,0.0822
532.00,0.0945
529.00,0.0929
526.00,0.0767
523.00,0.0640
520.00,0.0569
517.00,0.0529
514.00,0.0509
511.00,0.0505
508.00,0.0537
505.00,0.0555
502.00,0.0504
499.00,0.0456
496.00,0.0464
493.00,0.0516
490.00,0.0516
487.00,0.0467
484.00,0.0431
481.00,0.0396
478.00,0.0376
475.00,0.0358
472.00,0.0351
469.00,0.0349
466.00,0.0334
463.00,0.0325
460.00,0.0321
457.00,0.0336
454.00,0.0338
451.00,0.0322
448.00,0.0315
445.00,0.0308
442.00,0.0322
439.00,0.0321
436.00,0.0293
433.00,0.0280
430.00,0.0272
427.00,0.0264
424.00,0.0254
421.00,0.0254
418.00,0.0267
415.00,0.0280
412.00,0.0337
409.00,0.0420
406.00,0.0362
403.00,0.0295
400.00,0.0303