File: FTIR/Clancy/CBN_recrystal_Floraworks_2025_10_4_ECE_scan3.csv
Created as New Dataset,Sample 185 By YargerLab Date Saturday, October 04 2025
cm-1,A
4000.00,0.0117
3997.00,0.0117
3994.00,0.0116
3991.00,0.0117
3988.00,0.0116
3985.00,0.0116
3982.00,0.0117
3979.00,0.0117
3976.00,0.0118
3973.00,0.0118
3970.00,0.0119
3967.00,0.0118
3964.00,0.0118
3961.00,0.0118
3958.00,0.0117
3955.00,0.0116
3952.00,0.0117
3949.00,0.0117
3946.00,0.0116
3943.00,0.0116
3940.00,0.0116
3937.00,0.0116
3934.00,0.0116
3931.00,0.0116
3928.00,0.0116
3925.00,0.0116
3922.00,0.0117
3919.00,0.0116
3916.00,0.0116
3913.00,0.0116
3910.00,0.0116
3907.00,0.0116
3904.00,0.0115
3901.00,0.0114
3898.00,0.0115
3895.00,0.0115
3892.00,0.0115
3889.00,0.0114
3886.00,0.0114
3883.00,0.0114
3880.00,0.0114
3877.00,0.0114
3874.00,0.0114
3871.00,0.0114
3868.00,0.0114
3865.00,0.0114
3862.00,0.0114
3859.00,0.0114
3856.00,0.0115
3853.00,0.0115
3850.00,0.0114
3847.00,0.0114
3844.00,0.0113
3841.00,0.0113
3838.00,0.0113
3835.00,0.0113
3832.00,0.0112
3829.00,0.0113
3826.00,0.0112
3823.00,0.0112
3820.00,0.0112
3817.00,0.0113
3814.00,0.0113
3811.00,0.0112
3808.00,0.0113
3805.00,0.0112
3802.00,0.0112
3799.00,0.0112
3796.00,0.0112
3793.00,0.0111
3790.00,0.0112
3787.00,0.0112
3784.00,0.0111
3781.00,0.0111
3778.00,0.0112
3775.00,0.0112
3772.00,0.0112
3769.00,0.0111
3766.00,0.0111
3763.00,0.0111
3760.00,0.0111
3757.00,0.0111
3754.00,0.0111
3751.00,0.0112
3748.00,0.0112
3745.00,0.0111
3742.00,0.0110
3739.00,0.0109
3736.00,0.0109
3733.00,0.0108
3730.00,0.0109
3727.00,0.0109
3724.00,0.0108
3721.00,0.0108
3718.00,0.0109
3715.00,0.0109
3712.00,0.0107
3709.00,0.0106
3706.00,0.0107
3703.00,0.0107
3700.00,0.0107
3697.00,0.0107
3694.00,0.0107
3691.00,0.0107
3688.00,0.0107
3685.00,0.0107
3682.00,0.0107
3679.00,0.0107
3676.00,0.0107
3673.00,0.0106
3670.00,0.0106
3667.00,0.0107
3664.00,0.0107
3661.00,0.0107
3658.00,0.0108
3655.00,0.0107
3652.00,0.0106
3649.00,0.0105
3646.00,0.0106
3643.00,0.0106
3640.00,0.0107
3637.00,0.0107
3634.00,0.0106
3631.00,0.0106
3628.00,0.0106
3625.00,0.0106
3622.00,0.0107
3619.00,0.0107
3616.00,0.0108
3613.00,0.0108
3610.00,0.0107
3607.00,0.0107
3604.00,0.0108
3601.00,0.0107
3598.00,0.0107
3595.00,0.0107
3592.00,0.0107
3589.00,0.0108
3586.00,0.0108
3583.00,0.0108
3580.00,0.0109
3577.00,0.0110
3574.00,0.0110
3571.00,0.0110
3568.00,0.0110
3565.00,0.0111
3562.00,0.0112
3559.00,0.0113
3556.00,0.0114
3553.00,0.0115
3550.00,0.0116
3547.00,0.0117
3544.00,0.0119
3541.00,0.0120
3538.00,0.0121
3535.00,0.0122
3532.00,0.0124
3529.00,0.0126
3526.00,0.0127
3523.00,0.0129
3520.00,0.0131
3517.00,0.0133
3514.00,0.0135
3511.00,0.0138
3508.00,0.0141
3505.00,0.0144
3502.00,0.0147
3499.00,0.0151
3496.00,0.0155
3493.00,0.0159
3490.00,0.0163
3487.00,0.0168
3484.00,0.0174
3481.00,0.0179
3478.00,0.0186
3475.00,0.0193
3472.00,0.0200
3469.00,0.0208
3466.00,0.0215
3463.00,0.0223
3460.00,0.0231
3457.00,0.0240
3454.00,0.0248
3451.00,0.0257
3448.00,0.0267
3445.00,0.0277
3442.00,0.0288
3439.00,0.0299
3436.00,0.0312
3433.00,0.0326
3430.00,0.0340
3427.00,0.0356
3424.00,0.0372
3421.00,0.0388
3418.00,0.0405
3415.00,0.0420
3412.00,0.0434
3409.00,0.0446
3406.00,0.0454
3403.00,0.0460
3400.00,0.0463
3397.00,0.0460
3394.00,0.0456
3391.00,0.0450
3388.00,0.0441
3385.00,0.0431
3382.00,0.0422
3379.00,0.0412
3376.00,0.0402
3373.00,0.0392
3370.00,0.0384
3367.00,0.0376
3364.00,0.0368
3361.00,0.0361
3358.00,0.0356
3355.00,0.0351
3352.00,0.0347
3349.00,0.0343
3346.00,0.0340
3343.00,0.0338
3340.00,0.0337
3337.00,0.0336
3334.00,0.0335
3331.00,0.0336
3328.00,0.0337
3325.00,0.0339
3322.00,0.0341
3319.00,0.0344
3316.00,0.0347
3313.00,0.0351
3310.00,0.0355
3307.00,0.0360
3304.00,0.0365
3301.00,0.0369
3298.00,0.0375
3295.00,0.0381
3292.00,0.0387
3289.00,0.0393
3286.00,0.0399
3283.00,0.0405
3280.00,0.0411
3277.00,0.0418
3274.00,0.0425
3271.00,0.0431
3268.00,0.0437
3265.00,0.0443
3262.00,0.0449
3259.00,0.0456
3256.00,0.0462
3253.00,0.0468
3250.00,0.0474
3247.00,0.0478
3244.00,0.0483
3241.00,0.0487
3238.00,0.0489
3235.00,0.0489
3232.00,0.0490
3229.00,0.0491
3226.00,0.0490
3223.00,0.0489
3220.00,0.0486
3217.00,0.0481
3214.00,0.0477
3211.00,0.0471
3208.00,0.0464
3205.00,0.0457
3202.00,0.0449
3199.00,0.0441
3196.00,0.0432
3193.00,0.0424
3190.00,0.0415
3187.00,0.0405
3184.00,0.0397
3181.00,0.0388
3178.00,0.0379
3175.00,0.0370
3172.00,0.0361
3169.00,0.0352
3166.00,0.0342
3163.00,0.0333
3160.00,0.0324
3157.00,0.0315
3154.00,0.0305
3151.00,0.0297
3148.00,0.0290
3145.00,0.0283
3142.00,0.0276
3139.00,0.0268
3136.00,0.0262
3133.00,0.0257
3130.00,0.0251
3127.00,0.0247
3124.00,0.0243
3121.00,0.0239
3118.00,0.0235
3115.00,0.0230
3112.00,0.0225
3109.00,0.0219
3106.00,0.0214
3103.00,0.0209
3100.00,0.0207
3097.00,0.0205
3094.00,0.0204
3091.00,0.0206
3088.00,0.0209
3085.00,0.0209
3082.00,0.0208
3079.00,0.0206
3076.00,0.0204
3073.00,0.0202
3070.00,0.0200
3067.00,0.0200
3064.00,0.0200
3061.00,0.0202
3058.00,0.0203
3055.00,0.0204
3052.00,0.0205
3049.00,0.0203
3046.00,0.0201
3043.00,0.0201
3040.00,0.0204
3037.00,0.0211
3034.00,0.0217
3031.00,0.0218
3028.00,0.0213
3025.00,0.0205
3022.00,0.0196
3019.00,0.0190
3016.00,0.0186
3013.00,0.0186
3010.00,0.0188
3007.00,0.0193
3004.00,0.0202
3001.00,0.0218
2998.00,0.0240
2995.00,0.0270
2992.00,0.0293
2989.00,0.0306
2986.00,0.0326
2983.00,0.0369
2980.00,0.0428
2977.00,0.0452
2974.00,0.0478
2971.00,0.0550
2968.00,0.0593
2965.00,0.0618
2962.00,0.0660
2959.00,0.0673
2956.00,0.0622
2953.00,0.0545
2950.00,0.0494
2947.00,0.0485
2944.00,0.0515
2941.00,0.0566
2938.00,0.0645
2935.00,0.0767
2932.00,0.0921
2929.00,0.1061
2926.00,0.1121
2923.00,0.1083
2920.00,0.0994
2917.00,0.0890
2914.00,0.0789
2911.00,0.0707
2908.00,0.0643
2905.00,0.0592
2902.00,0.0546
2899.00,0.0505
2896.00,0.0470
2893.00,0.0443
2890.00,0.0421
2887.00,0.0402
2884.00,0.0389
2881.00,0.0392
2878.00,0.0422
2875.00,0.0472
2872.00,0.0502
2869.00,0.0498
2866.00,0.0499
2863.00,0.0553
2860.00,0.0668
2857.00,0.0777
2854.00,0.0813
2851.00,0.0779
2848.00,0.0667
2845.00,0.0539
2842.00,0.0442
2839.00,0.0377
2836.00,0.0335
2833.00,0.0307
2830.00,0.0286
2827.00,0.0270
2824.00,0.0256
2821.00,0.0245
2818.00,0.0236
2815.00,0.0230
2812.00,0.0224
2809.00,0.0218
2806.00,0.0214
2803.00,0.0211
2800.00,0.0207
2797.00,0.0202
2794.00,0.0199
2791.00,0.0195
2788.00,0.0191
2785.00,0.0188
2782.00,0.0186
2779.00,0.0183
2776.00,0.0181
2773.00,0.0179
2770.00,0.0178
2767.00,0.0177
2764.00,0.0177
2761.00,0.0177
2758.00,0.0176
2755.00,0.0176
2752.00,0.0176
2749.00,0.0177
2746.00,0.0178
2743.00,0.0179
2740.00,0.0181
2737.00,0.0184
2734.00,0.0189
2731.00,0.0192
2728.00,0.0192
2725.00,0.0189
2722.00,0.0186
2719.00,0.0184
2716.00,0.0182
2713.00,0.0180
2710.00,0.0179
2707.00,0.0179
2704.00,0.0178
2701.00,0.0177
2698.00,0.0176
2695.00,0.0174
2692.00,0.0173
2689.00,0.0171
2686.00,0.0169
2683.00,0.0168
2680.00,0.0167
2677.00,0.0167
2674.00,0.0168
2671.00,0.0169
2668.00,0.0170
2665.00,0.0172
2662.00,0.0175
2659.00,0.0175
2656.00,0.0176
2653.00,0.0176
2650.00,0.0176
2647.00,0.0176
2644.00,0.0175
2641.00,0.0175
2638.00,0.0173
2635.00,0.0170
2632.00,0.0167
2629.00,0.0165
2626.00,0.0163
2623.00,0.0161
2620.00,0.0160
2617.00,0.0159
2614.00,0.0158
2611.00,0.0158
2608.00,0.0160
2605.00,0.0160
2602.00,0.0161
2599.00,0.0162
2596.00,0.0163
2593.00,0.0164
2590.00,0.0165
2587.00,0.0164
2584.00,0.0163
2581.00,0.0163
2578.00,0.0161
2575.00,0.0159
2572.00,0.0159
2569.00,0.0159
2566.00,0.0160
2563.00,0.0159
2560.00,0.0155
2557.00,0.0153
2554.00,0.0152
2551.00,0.0150
2548.00,0.0151
2545.00,0.0151
2542.00,0.0150
2539.00,0.0151
2536.00,0.0152
2533.00,0.0152
2530.00,0.0152
2527.00,0.0150
2524.00,0.0149
2521.00,0.0148
2518.00,0.0147
2515.00,0.0146
2512.00,0.0145
2509.00,0.0143
2506.00,0.0141
2503.00,0.0141
2500.00,0.0140
2497.00,0.0140
2494.00,0.0139
2491.00,0.0138
2488.00,0.0137
2485.00,0.0137
2482.00,0.0136
2479.00,0.0137
2476.00,0.0136
2473.00,0.0135
2470.00,0.0135
2467.00,0.0134
2464.00,0.0134
2461.00,0.0134
2458.00,0.0135
2455.00,0.0135
2452.00,0.0134
2449.00,0.0133
2446.00,0.0133
2443.00,0.0132
2440.00,0.0131
2437.00,0.0130
2434.00,0.0129
2431.00,0.0129
2428.00,0.0128
2425.00,0.0128
2422.00,0.0127
2419.00,0.0127
2416.00,0.0128
2413.00,0.0128
2410.00,0.0128
2407.00,0.0127
2404.00,0.0126
2401.00,0.0127
2398.00,0.0126
2395.00,0.0126
2392.00,0.0126
2389.00,0.0125
2386.00,0.0125
2383.00,0.0123
2380.00,0.0122
2377.00,0.0122
2374.00,0.0123
2371.00,0.0123
2368.00,0.0123
2365.00,0.0123
2362.00,0.0122
2359.00,0.0123
2356.00,0.0124
2353.00,0.0123
2350.00,0.0123
2347.00,0.0122
2344.00,0.0124
2341.00,0.0125
2338.00,0.0124
2335.00,0.0124
2332.00,0.0122
2329.00,0.0126
2326.00,0.0135
2323.00,0.0132
2320.00,0.0129
2317.00,0.0127
2314.00,0.0125
2311.00,0.0123
2308.00,0.0123
2305.00,0.0123
2302.00,0.0123
2299.00,0.0124
2296.00,0.0126
2293.00,0.0128
2290.00,0.0130
2287.00,0.0131
2284.00,0.0129
2281.00,0.0126
2278.00,0.0123
2275.00,0.0121
2272.00,0.0120
2269.00,0.0118
2266.00,0.0115
2263.00,0.0113
2260.00,0.0114
2257.00,0.0113
2254.00,0.0110
2251.00,0.0112
2248.00,0.0114
2245.00,0.0114
2242.00,0.0114
2239.00,0.0116
2236.00,0.0115
2233.00,0.0114
2230.00,0.0113
2227.00,0.0114
2224.00,0.0115
2221.00,0.0114
2218.00,0.0112
2215.00,0.0112
2212.00,0.0114
2209.00,0.0113
2206.00,0.0113
2203.00,0.0111
2200.00,0.0109
2197.00,0.0110
2194.00,0.0111
2191.00,0.0110
2188.00,0.0114
2185.00,0.0111
2182.00,0.0106
2179.00,0.0107
2176.00,0.0106
2173.00,0.0109
2170.00,0.0112
2167.00,0.0115
2164.00,0.0121
2161.00,0.0106
2158.00,0.0080
2155.00,0.0085
2152.00,0.0090
2149.00,0.0092
2146.00,0.0089
2143.00,0.0093
2140.00,0.0095
2137.00,0.0089
2134.00,0.0084
2131.00,0.0089
2128.00,0.0093
2125.00,0.0095
2122.00,0.0097
2119.00,0.0100
2116.00,0.0103
2113.00,0.0102
2110.00,0.0099
2107.00,0.0098
2104.00,0.0099
2101.00,0.0099
2098.00,0.0097
2095.00,0.0094
2092.00,0.0095
2089.00,0.0096
2086.00,0.0100
2083.00,0.0101
2080.00,0.0102
2077.00,0.0104
2074.00,0.0103
2071.00,0.0102
2068.00,0.0101
2065.00,0.0097
2062.00,0.0094
2059.00,0.0095
2056.00,0.0095
2053.00,0.0098
2050.00,0.0096
2047.00,0.0090
2044.00,0.0092
2041.00,0.0096
2038.00,0.0098
2035.00,0.0096
2032.00,0.0093
2029.00,0.0089
2026.00,0.0090
2023.00,0.0091
2020.00,0.0092
2017.00,0.0091
2014.00,0.0090
2011.00,0.0090
2008.00,0.0081
2005.00,0.0077
2002.00,0.0086
1999.00,0.0090
1996.00,0.0093
1993.00,0.0095
1990.00,0.0095
1987.00,0.0098
1984.00,0.0102
1981.00,0.0107
1978.00,0.0090
1975.00,0.0087
1972.00,0.0089
1969.00,0.0086
1966.00,0.0087
1963.00,0.0086
1960.00,0.0083
1957.00,0.0085
1954.00,0.0090
1951.00,0.0090
1948.00,0.0090
1945.00,0.0091
1942.00,0.0092
1939.00,0.0094
1936.00,0.0095
1933.00,0.0095
1930.00,0.0095
1927.00,0.0096
1924.00,0.0097
1921.00,0.0099
1918.00,0.0101
1915.00,0.0102
1912.00,0.0112
1909.00,0.0130
1906.00,0.0125
1903.00,0.0111
1900.00,0.0107
1897.00,0.0109
1894.00,0.0116
1891.00,0.0111
1888.00,0.0104
1885.00,0.0101
1882.00,0.0100
1879.00,0.0100
1876.00,0.0101
1873.00,0.0100
1870.00,0.0100
1867.00,0.0102
1864.00,0.0102
1861.00,0.0102
1858.00,0.0102
1855.00,0.0102
1852.00,0.0105
1849.00,0.0109
1846.00,0.0113
1843.00,0.0112
1840.00,0.0107
1837.00,0.0103
1834.00,0.0101
1831.00,0.0100
1828.00,0.0099
1825.00,0.0100
1822.00,0.0101
1819.00,0.0100
1816.00,0.0099
1813.00,0.0100
1810.00,0.0100
1807.00,0.0101
1804.00,0.0102
1801.00,0.0103
1798.00,0.0106
1795.00,0.0109
1792.00,0.0110
1789.00,0.0107
1786.00,0.0105
1783.00,0.0104
1780.00,0.0107
1777.00,0.0112
1774.00,0.0117
1771.00,0.0117
1768.00,0.0114
1765.00,0.0111
1762.00,0.0115
1759.00,0.0119
1756.00,0.0114
1753.00,0.0110
1750.00,0.0108
1747.00,0.0108
1744.00,0.0110
1741.00,0.0111
1738.00,0.0113
1735.00,0.0115
1732.00,0.0119
1729.00,0.0123
1726.00,0.0128
1723.00,0.0132
1720.00,0.0134
1717.00,0.0137
1714.00,0.0141
1711.00,0.0146
1708.00,0.0147
1705.00,0.0146
1702.00,0.0147
1699.00,0.0149
1696.00,0.0152
1693.00,0.0154
1690.00,0.0155
1687.00,0.0156
1684.00,0.0156
1681.00,0.0158
1678.00,0.0159
1675.00,0.0161
1672.00,0.0162
1669.00,0.0162
1666.00,0.0165
1663.00,0.0169
1660.00,0.0173
1657.00,0.0175
1654.00,0.0178
1651.00,0.0183
1648.00,0.0187
1645.00,0.0201
1642.00,0.0221
1639.00,0.0239
1636.00,0.0263
1633.00,0.0337
1630.00,0.0498
1627.00,0.0813
1624.00,0.1113
1621.00,0.1281
1618.00,0.1205
1615.00,0.0988
1612.00,0.0986
1609.00,0.0997
1606.00,0.0860
1603.00,0.0681
1600.00,0.0543
1597.00,0.0474
1594.00,0.0486
1591.00,0.0608
1588.00,0.0830
1585.00,0.1020
1582.00,0.1065
1579.00,0.0992
1576.00,0.0850
1573.00,0.0733
1570.00,0.0672
1567.00,0.0613
1564.00,0.0515
1561.00,0.0429
1558.00,0.0345
1555.00,0.0318
1552.00,0.0301
1549.00,0.0290
1546.00,0.0282
1543.00,0.0273
1540.00,0.0264
1537.00,0.0256
1534.00,0.0249
1531.00,0.0243
1528.00,0.0243
1525.00,0.0248
1522.00,0.0260
1519.00,0.0282
1516.00,0.0314
1513.00,0.0348
1510.00,0.0367
1507.00,0.0368
1504.00,0.0376
1501.00,0.0424
1498.00,0.0607
1495.00,0.0738
1492.00,0.0604
1489.00,0.0433
1486.00,0.0345
1483.00,0.0303
1480.00,0.0285
1477.00,0.0286
1474.00,0.0308
1471.00,0.0415
1468.00,0.0603
1465.00,0.0706
1462.00,0.0664
1459.00,0.0664
1456.00,0.0641
1453.00,0.0606
1450.00,0.0616
1447.00,0.0651
1444.00,0.0721
1441.00,0.0800
1438.00,0.0848
1435.00,0.0923
1432.00,0.1023
1429.00,0.1077
1426.00,0.1029
1423.00,0.0930
1420.00,0.0847
1417.00,0.0763
1414.00,0.0719
1411.00,0.0737
1408.00,0.0844
1405.00,0.1049
1402.00,0.1253
1399.00,0.1307
1396.00,0.1172
1393.00,0.0952
1390.00,0.0832
1387.00,0.0878
1384.00,0.0825
1381.00,0.0775
1378.00,0.0778
1375.00,0.0689
1372.00,0.0565
1369.00,0.0618
1366.00,0.0807
1363.00,0.0895
1360.00,0.1069
1357.00,0.0987
1354.00,0.0837
1351.00,0.0799
1348.00,0.0820
1345.00,0.0808
1342.00,0.0729
1339.00,0.0624
1336.00,0.0572
1333.00,0.0604
1330.00,0.0648
1327.00,0.0642
1324.00,0.0593
1321.00,0.0553
1318.00,0.0517
1315.00,0.0471
1312.00,0.0457
1309.00,0.0510
1306.00,0.0639
1303.00,0.0862
1300.00,0.0995
1297.00,0.0900
1294.00,0.0827
1291.00,0.0751
1288.00,0.0741
1285.00,0.0858
1282.00,0.0920
1279.00,0.0791
1276.00,0.0614
1273.00,0.0507
1270.00,0.0441
1267.00,0.0408
1264.00,0.0393
1261.00,0.0369
1258.00,0.0350
1255.00,0.0349
1252.00,0.0371
1249.00,0.0438
1246.00,0.0561
1243.00,0.0680
1240.00,0.0759
1237.00,0.0894
1234.00,0.1039
1231.00,0.0994
1228.00,0.0819
1225.00,0.0686
1222.00,0.0625
1219.00,0.0641
1216.00,0.0716
1213.00,0.0739
1210.00,0.0635
1207.00,0.0531
1204.00,0.0536
1201.00,0.0669
1198.00,0.0889
1195.00,0.1116
1192.00,0.1124
1189.00,0.0924
1186.00,0.0686
1183.00,0.0521
1180.00,0.0433
1177.00,0.0388
1174.00,0.0362
1171.00,0.0350
1168.00,0.0347
1165.00,0.0365
1162.00,0.0434
1159.00,0.0637
1156.00,0.0995
1153.00,0.1071
1150.00,0.0722
1147.00,0.0475
1144.00,0.0403
1141.00,0.0398
1138.00,0.0446
1135.00,0.0598
1132.00,0.0963
1129.00,0.1377
1126.00,0.1407
1123.00,0.1133
1120.00,0.0808
1117.00,0.0650
1114.00,0.0615
1111.00,0.0565
1108.00,0.0513
1105.00,0.0560
1102.00,0.0790
1099.00,0.0977
1096.00,0.0798
1093.00,0.0546
1090.00,0.0422
1087.00,0.0372
1084.00,0.0350
1081.00,0.0343
1078.00,0.0345
1075.00,0.0355
1072.00,0.0379
1069.00,0.0423
1066.00,0.0482
1063.00,0.0589
1060.00,0.0845
1057.00,0.1325
1054.00,0.1784
1051.00,0.1928
1048.00,0.1885
1045.00,0.1615
1042.00,0.1236
1039.00,0.0975
1036.00,0.0930
1033.00,0.1000
1030.00,0.1285
1027.00,0.1703
1024.00,0.1583
1021.00,0.1133
1018.00,0.0810
1015.00,0.0633
1012.00,0.0554
1009.00,0.0591
1006.00,0.0756
1003.00,0.0881
1000.00,0.0831
997.00,0.0743
994.00,0.0684
991.00,0.0598
988.00,0.0489
985.00,0.0421
982.00,0.0386
979.00,0.0376
976.00,0.0379
973.00,0.0378
970.00,0.0370
967.00,0.0371
964.00,0.0394
961.00,0.0405
958.00,0.0343
955.00,0.0292
952.00,0.0270
949.00,0.0294
946.00,0.0299
943.00,0.0299
940.00,0.0341
937.00,0.0370
934.00,0.0401
931.00,0.0418
928.00,0.0385
925.00,0.0406
922.00,0.0486
919.00,0.0448
916.00,0.0332
913.00,0.0271
910.00,0.0251
907.00,0.0256
904.00,0.0308
901.00,0.0442
898.00,0.0508
895.00,0.0408
892.00,0.0445
889.00,0.0518
886.00,0.0352
883.00,0.0300
880.00,0.0336
877.00,0.0480
874.00,0.0792
871.00,0.1150
868.00,0.1198
865.00,0.0960
862.00,0.0714
859.00,0.0551
856.00,0.0603
853.00,0.0790
850.00,0.0995
847.00,0.1000
844.00,0.0766
841.00,0.0639
838.00,0.0718
835.00,0.0972
832.00,0.1065
829.00,0.0843
826.00,0.0575
823.00,0.0714
820.00,0.1257
817.00,0.1439
814.00,0.1423
811.00,0.0776
808.00,0.0482
805.00,0.0380
802.00,0.0334
799.00,0.0309
796.00,0.0291
793.00,0.0278
790.00,0.0269
787.00,0.0263
784.00,0.0260
781.00,0.0263
778.00,0.0297
775.00,0.0416
772.00,0.0397
769.00,0.0311
766.00,0.0292
763.00,0.0313
760.00,0.0363
757.00,0.0353
754.00,0.0310
751.00,0.0298
748.00,0.0301
745.00,0.0315
742.00,0.0355
739.00,0.0470
736.00,0.0734
733.00,0.0798
730.00,0.0752
727.00,0.0761
724.00,0.0570
721.00,0.0468
718.00,0.0521
715.00,0.0637
712.00,0.0613
709.00,0.0530
706.00,0.0500
703.00,0.0530
700.00,0.0589
697.00,0.0619
694.00,0.0563
691.00,0.0583
688.00,0.0691
685.00,0.0633
682.00,0.0566
679.00,0.0582
676.00,0.0654
673.00,0.0767
670.00,0.0824
667.00,0.0757
664.00,0.0743
661.00,0.0772
658.00,0.0693
655.00,0.0592
652.00,0.0544
649.00,0.0519
646.00,0.0506
643.00,0.0498
640.00,0.0489
637.00,0.0485
634.00,0.0482
631.00,0.0487
628.00,0.0506
625.00,0.0556
622.00,0.0650
619.00,0.0708
616.00,0.0626
613.00,0.0512
610.00,0.0509
607.00,0.0658
604.00,0.0870
601.00,0.0960
598.00,0.0961
595.00,0.0945
592.00,0.0908
589.00,0.0846
586.00,0.0788
583.00,0.0770
580.00,0.0821
577.00,0.0987
574.00,0.0956
571.00,0.0765
568.00,0.0663
565.00,0.0699
562.00,0.0834
559.00,0.0933
556.00,0.0851
553.00,0.0782
550.00,0.0863
547.00,0.1031
544.00,0.1037
541.00,0.0907
538.00,0.0817
535.00,0.0841
532.00,0.0971
529.00,0.0960
526.00,0.0788
523.00,0.0652
520.00,0.0578
517.00,0.0539
514.00,0.0517
511.00,0.0517
508.00,0.0547
505.00,0.0567
502.00,0.0512
499.00,0.0461
496.00,0.0468
493.00,0.0526
490.00,0.0528
487.00,0.0474
484.00,0.0433
481.00,0.0398
478.00,0.0371
475.00,0.0360
472.00,0.0355
469.00,0.0344
466.00,0.0332
463.00,0.0328
460.00,0.0326
457.00,0.0333
454.00,0.0336
451.00,0.0324
448.00,0.0314
445.00,0.0304
442.00,0.0319
439.00,0.0325
436.00,0.0296
433.00,0.0275
430.00,0.0276
427.00,0.0267
424.00,0.0255
421.00,0.0243
418.00,0.0255
415.00,0.0278
412.00,0.0356
409.00,0.0422
406.00,0.0360
403.00,0.0284
400.00,0.0292