File: FTIR/Clancy/CBN_recrystal_Floraworks_2025_10_4_ECE_scan1.csv
Created as New Dataset,Sample 183 By YargerLab Date Friday, October 03 2025
cm-1,A
4000.00,0.0126
3997.00,0.0127
3994.00,0.0127
3991.00,0.0126
3988.00,0.0126
3985.00,0.0126
3982.00,0.0126
3979.00,0.0127
3976.00,0.0127
3973.00,0.0128
3970.00,0.0128
3967.00,0.0127
3964.00,0.0127
3961.00,0.0127
3958.00,0.0127
3955.00,0.0127
3952.00,0.0126
3949.00,0.0126
3946.00,0.0126
3943.00,0.0126
3940.00,0.0126
3937.00,0.0125
3934.00,0.0125
3931.00,0.0126
3928.00,0.0126
3925.00,0.0126
3922.00,0.0126
3919.00,0.0126
3916.00,0.0126
3913.00,0.0126
3910.00,0.0126
3907.00,0.0126
3904.00,0.0126
3901.00,0.0125
3898.00,0.0125
3895.00,0.0125
3892.00,0.0125
3889.00,0.0124
3886.00,0.0125
3883.00,0.0125
3880.00,0.0124
3877.00,0.0124
3874.00,0.0125
3871.00,0.0124
3868.00,0.0124
3865.00,0.0125
3862.00,0.0124
3859.00,0.0124
3856.00,0.0125
3853.00,0.0125
3850.00,0.0124
3847.00,0.0124
3844.00,0.0125
3841.00,0.0125
3838.00,0.0125
3835.00,0.0124
3832.00,0.0123
3829.00,0.0123
3826.00,0.0123
3823.00,0.0124
3820.00,0.0124
3817.00,0.0123
3814.00,0.0123
3811.00,0.0123
3808.00,0.0123
3805.00,0.0123
3802.00,0.0123
3799.00,0.0123
3796.00,0.0122
3793.00,0.0122
3790.00,0.0122
3787.00,0.0122
3784.00,0.0122
3781.00,0.0121
3778.00,0.0121
3775.00,0.0122
3772.00,0.0122
3769.00,0.0122
3766.00,0.0122
3763.00,0.0122
3760.00,0.0122
3757.00,0.0122
3754.00,0.0123
3751.00,0.0123
3748.00,0.0123
3745.00,0.0122
3742.00,0.0122
3739.00,0.0120
3736.00,0.0121
3733.00,0.0120
3730.00,0.0119
3727.00,0.0119
3724.00,0.0120
3721.00,0.0120
3718.00,0.0120
3715.00,0.0120
3712.00,0.0119
3709.00,0.0118
3706.00,0.0118
3703.00,0.0117
3700.00,0.0117
3697.00,0.0117
3694.00,0.0118
3691.00,0.0119
3688.00,0.0118
3685.00,0.0118
3682.00,0.0118
3679.00,0.0118
3676.00,0.0118
3673.00,0.0118
3670.00,0.0118
3667.00,0.0118
3664.00,0.0118
3661.00,0.0118
3658.00,0.0118
3655.00,0.0118
3652.00,0.0118
3649.00,0.0117
3646.00,0.0117
3643.00,0.0117
3640.00,0.0117
3637.00,0.0117
3634.00,0.0117
3631.00,0.0116
3628.00,0.0116
3625.00,0.0116
3622.00,0.0117
3619.00,0.0118
3616.00,0.0119
3613.00,0.0118
3610.00,0.0118
3607.00,0.0118
3604.00,0.0118
3601.00,0.0118
3598.00,0.0119
3595.00,0.0119
3592.00,0.0119
3589.00,0.0119
3586.00,0.0119
3583.00,0.0119
3580.00,0.0120
3577.00,0.0120
3574.00,0.0120
3571.00,0.0121
3568.00,0.0122
3565.00,0.0122
3562.00,0.0123
3559.00,0.0124
3556.00,0.0124
3553.00,0.0126
3550.00,0.0127
3547.00,0.0128
3544.00,0.0129
3541.00,0.0130
3538.00,0.0131
3535.00,0.0133
3532.00,0.0135
3529.00,0.0136
3526.00,0.0137
3523.00,0.0139
3520.00,0.0141
3517.00,0.0143
3514.00,0.0145
3511.00,0.0148
3508.00,0.0150
3505.00,0.0153
3502.00,0.0156
3499.00,0.0159
3496.00,0.0163
3493.00,0.0167
3490.00,0.0171
3487.00,0.0175
3484.00,0.0181
3481.00,0.0186
3478.00,0.0193
3475.00,0.0199
3472.00,0.0205
3469.00,0.0213
3466.00,0.0219
3463.00,0.0227
3460.00,0.0235
3457.00,0.0242
3454.00,0.0251
3451.00,0.0259
3448.00,0.0267
3445.00,0.0277
3442.00,0.0287
3439.00,0.0297
3436.00,0.0309
3433.00,0.0322
3430.00,0.0336
3427.00,0.0351
3424.00,0.0365
3421.00,0.0381
3418.00,0.0396
3415.00,0.0410
3412.00,0.0424
3409.00,0.0435
3406.00,0.0443
3403.00,0.0449
3400.00,0.0452
3397.00,0.0451
3394.00,0.0448
3391.00,0.0442
3388.00,0.0434
3385.00,0.0425
3382.00,0.0416
3379.00,0.0406
3376.00,0.0397
3373.00,0.0389
3370.00,0.0382
3367.00,0.0374
3364.00,0.0366
3361.00,0.0360
3358.00,0.0355
3355.00,0.0350
3352.00,0.0347
3349.00,0.0343
3346.00,0.0339
3343.00,0.0338
3340.00,0.0337
3337.00,0.0336
3334.00,0.0335
3331.00,0.0335
3328.00,0.0337
3325.00,0.0338
3322.00,0.0340
3319.00,0.0343
3316.00,0.0346
3313.00,0.0349
3310.00,0.0353
3307.00,0.0358
3304.00,0.0362
3301.00,0.0367
3298.00,0.0372
3295.00,0.0378
3292.00,0.0383
3289.00,0.0389
3286.00,0.0395
3283.00,0.0401
3280.00,0.0406
3277.00,0.0413
3274.00,0.0419
3271.00,0.0425
3268.00,0.0430
3265.00,0.0436
3262.00,0.0442
3259.00,0.0448
3256.00,0.0454
3253.00,0.0460
3250.00,0.0465
3247.00,0.0470
3244.00,0.0476
3241.00,0.0479
3238.00,0.0481
3235.00,0.0481
3232.00,0.0483
3229.00,0.0483
3226.00,0.0482
3223.00,0.0482
3220.00,0.0479
3217.00,0.0476
3214.00,0.0472
3211.00,0.0466
3208.00,0.0460
3205.00,0.0453
3202.00,0.0446
3199.00,0.0438
3196.00,0.0431
3193.00,0.0423
3190.00,0.0415
3187.00,0.0406
3184.00,0.0398
3181.00,0.0390
3178.00,0.0381
3175.00,0.0373
3172.00,0.0364
3169.00,0.0356
3166.00,0.0347
3163.00,0.0338
3160.00,0.0329
3157.00,0.0321
3154.00,0.0312
3151.00,0.0304
3148.00,0.0297
3145.00,0.0290
3142.00,0.0283
3139.00,0.0276
3136.00,0.0270
3133.00,0.0265
3130.00,0.0259
3127.00,0.0256
3124.00,0.0252
3121.00,0.0247
3118.00,0.0244
3115.00,0.0239
3112.00,0.0234
3109.00,0.0228
3106.00,0.0223
3103.00,0.0219
3100.00,0.0216
3097.00,0.0214
3094.00,0.0214
3091.00,0.0215
3088.00,0.0218
3085.00,0.0218
3082.00,0.0218
3079.00,0.0216
3076.00,0.0213
3073.00,0.0211
3070.00,0.0210
3067.00,0.0209
3064.00,0.0210
3061.00,0.0211
3058.00,0.0212
3055.00,0.0213
3052.00,0.0214
3049.00,0.0212
3046.00,0.0210
3043.00,0.0210
3040.00,0.0213
3037.00,0.0219
3034.00,0.0225
3031.00,0.0226
3028.00,0.0221
3025.00,0.0213
3022.00,0.0204
3019.00,0.0199
3016.00,0.0195
3013.00,0.0194
3010.00,0.0196
3007.00,0.0200
3004.00,0.0210
3001.00,0.0225
2998.00,0.0246
2995.00,0.0274
2992.00,0.0295
2989.00,0.0307
2986.00,0.0326
2983.00,0.0366
2980.00,0.0423
2977.00,0.0446
2974.00,0.0472
2971.00,0.0541
2968.00,0.0582
2965.00,0.0605
2962.00,0.0644
2959.00,0.0657
2956.00,0.0608
2953.00,0.0536
2950.00,0.0488
2947.00,0.0480
2944.00,0.0507
2941.00,0.0556
2938.00,0.0630
2935.00,0.0745
2932.00,0.0891
2929.00,0.1023
2926.00,0.1081
2923.00,0.1047
2920.00,0.0965
2917.00,0.0867
2914.00,0.0772
2911.00,0.0696
2908.00,0.0636
2905.00,0.0588
2902.00,0.0545
2899.00,0.0506
2896.00,0.0472
2893.00,0.0447
2890.00,0.0425
2887.00,0.0407
2884.00,0.0395
2881.00,0.0397
2878.00,0.0424
2875.00,0.0471
2872.00,0.0500
2869.00,0.0496
2866.00,0.0497
2863.00,0.0549
2860.00,0.0658
2857.00,0.0762
2854.00,0.0796
2851.00,0.0765
2848.00,0.0661
2845.00,0.0541
2842.00,0.0449
2839.00,0.0386
2836.00,0.0346
2833.00,0.0319
2830.00,0.0298
2827.00,0.0282
2824.00,0.0270
2821.00,0.0259
2818.00,0.0250
2815.00,0.0244
2812.00,0.0237
2809.00,0.0232
2806.00,0.0229
2803.00,0.0224
2800.00,0.0220
2797.00,0.0217
2794.00,0.0213
2791.00,0.0209
2788.00,0.0206
2785.00,0.0203
2782.00,0.0200
2779.00,0.0198
2776.00,0.0195
2773.00,0.0194
2770.00,0.0193
2767.00,0.0192
2764.00,0.0191
2761.00,0.0191
2758.00,0.0191
2755.00,0.0191
2752.00,0.0191
2749.00,0.0191
2746.00,0.0192
2743.00,0.0193
2740.00,0.0194
2737.00,0.0198
2734.00,0.0202
2731.00,0.0206
2728.00,0.0206
2725.00,0.0203
2722.00,0.0201
2719.00,0.0198
2716.00,0.0196
2713.00,0.0194
2710.00,0.0193
2707.00,0.0193
2704.00,0.0192
2701.00,0.0192
2698.00,0.0190
2695.00,0.0188
2692.00,0.0186
2689.00,0.0185
2686.00,0.0184
2683.00,0.0183
2680.00,0.0182
2677.00,0.0182
2674.00,0.0182
2671.00,0.0183
2668.00,0.0185
2665.00,0.0187
2662.00,0.0189
2659.00,0.0190
2656.00,0.0191
2653.00,0.0190
2650.00,0.0190
2647.00,0.0190
2644.00,0.0189
2641.00,0.0189
2638.00,0.0187
2635.00,0.0185
2632.00,0.0182
2629.00,0.0180
2626.00,0.0177
2623.00,0.0175
2620.00,0.0175
2617.00,0.0175
2614.00,0.0174
2611.00,0.0173
2608.00,0.0173
2605.00,0.0174
2602.00,0.0175
2599.00,0.0176
2596.00,0.0177
2593.00,0.0178
2590.00,0.0178
2587.00,0.0178
2584.00,0.0178
2581.00,0.0177
2578.00,0.0175
2575.00,0.0174
2572.00,0.0173
2569.00,0.0173
2566.00,0.0174
2563.00,0.0173
2560.00,0.0170
2557.00,0.0168
2554.00,0.0167
2551.00,0.0165
2548.00,0.0165
2545.00,0.0165
2542.00,0.0165
2539.00,0.0165
2536.00,0.0167
2533.00,0.0167
2530.00,0.0165
2527.00,0.0164
2524.00,0.0163
2521.00,0.0162
2518.00,0.0161
2515.00,0.0161
2512.00,0.0160
2509.00,0.0158
2506.00,0.0157
2503.00,0.0156
2500.00,0.0155
2497.00,0.0155
2494.00,0.0154
2491.00,0.0154
2488.00,0.0153
2485.00,0.0153
2482.00,0.0152
2479.00,0.0152
2476.00,0.0151
2473.00,0.0151
2470.00,0.0150
2467.00,0.0149
2464.00,0.0149
2461.00,0.0149
2458.00,0.0150
2455.00,0.0150
2452.00,0.0150
2449.00,0.0149
2446.00,0.0149
2443.00,0.0148
2440.00,0.0146
2437.00,0.0146
2434.00,0.0145
2431.00,0.0144
2428.00,0.0144
2425.00,0.0144
2422.00,0.0143
2419.00,0.0143
2416.00,0.0143
2413.00,0.0143
2410.00,0.0143
2407.00,0.0142
2404.00,0.0142
2401.00,0.0142
2398.00,0.0142
2395.00,0.0141
2392.00,0.0141
2389.00,0.0140
2386.00,0.0140
2383.00,0.0139
2380.00,0.0137
2377.00,0.0138
2374.00,0.0140
2371.00,0.0139
2368.00,0.0140
2365.00,0.0140
2362.00,0.0140
2359.00,0.0140
2356.00,0.0142
2353.00,0.0141
2350.00,0.0141
2347.00,0.0140
2344.00,0.0141
2341.00,0.0143
2338.00,0.0143
2335.00,0.0142
2332.00,0.0141
2329.00,0.0143
2326.00,0.0154
2323.00,0.0151
2320.00,0.0146
2317.00,0.0144
2314.00,0.0141
2311.00,0.0140
2308.00,0.0139
2305.00,0.0139
2302.00,0.0139
2299.00,0.0140
2296.00,0.0142
2293.00,0.0144
2290.00,0.0146
2287.00,0.0148
2284.00,0.0146
2281.00,0.0143
2278.00,0.0140
2275.00,0.0138
2272.00,0.0137
2269.00,0.0135
2266.00,0.0131
2263.00,0.0131
2260.00,0.0131
2257.00,0.0129
2254.00,0.0125
2251.00,0.0128
2248.00,0.0130
2245.00,0.0130
2242.00,0.0129
2239.00,0.0133
2236.00,0.0132
2233.00,0.0130
2230.00,0.0129
2227.00,0.0129
2224.00,0.0129
2221.00,0.0129
2218.00,0.0127
2215.00,0.0128
2212.00,0.0130
2209.00,0.0130
2206.00,0.0130
2203.00,0.0128
2200.00,0.0126
2197.00,0.0127
2194.00,0.0126
2191.00,0.0127
2188.00,0.0133
2185.00,0.0129
2182.00,0.0123
2179.00,0.0124
2176.00,0.0121
2173.00,0.0125
2170.00,0.0129
2167.00,0.0132
2164.00,0.0139
2161.00,0.0122
2158.00,0.0095
2155.00,0.0099
2152.00,0.0104
2149.00,0.0107
2146.00,0.0105
2143.00,0.0107
2140.00,0.0110
2137.00,0.0105
2134.00,0.0100
2131.00,0.0106
2128.00,0.0109
2125.00,0.0111
2122.00,0.0113
2119.00,0.0116
2116.00,0.0117
2113.00,0.0117
2110.00,0.0116
2107.00,0.0116
2104.00,0.0118
2101.00,0.0117
2098.00,0.0114
2095.00,0.0111
2092.00,0.0112
2089.00,0.0114
2086.00,0.0116
2083.00,0.0118
2080.00,0.0118
2077.00,0.0120
2074.00,0.0120
2071.00,0.0120
2068.00,0.0119
2065.00,0.0115
2062.00,0.0112
2059.00,0.0112
2056.00,0.0112
2053.00,0.0115
2050.00,0.0114
2047.00,0.0108
2044.00,0.0108
2041.00,0.0111
2038.00,0.0113
2035.00,0.0112
2032.00,0.0106
2029.00,0.0106
2026.00,0.0108
2023.00,0.0106
2020.00,0.0108
2017.00,0.0106
2014.00,0.0108
2011.00,0.0106
2008.00,0.0096
2005.00,0.0094
2002.00,0.0104
1999.00,0.0108
1996.00,0.0109
1993.00,0.0112
1990.00,0.0113
1987.00,0.0115
1984.00,0.0118
1981.00,0.0123
1978.00,0.0107
1975.00,0.0101
1972.00,0.0105
1969.00,0.0100
1966.00,0.0099
1963.00,0.0102
1960.00,0.0101
1957.00,0.0101
1954.00,0.0106
1951.00,0.0106
1948.00,0.0107
1945.00,0.0107
1942.00,0.0108
1939.00,0.0109
1936.00,0.0110
1933.00,0.0110
1930.00,0.0112
1927.00,0.0111
1924.00,0.0112
1921.00,0.0116
1918.00,0.0117
1915.00,0.0118
1912.00,0.0128
1909.00,0.0146
1906.00,0.0141
1903.00,0.0128
1900.00,0.0123
1897.00,0.0125
1894.00,0.0132
1891.00,0.0127
1888.00,0.0119
1885.00,0.0118
1882.00,0.0116
1879.00,0.0117
1876.00,0.0117
1873.00,0.0117
1870.00,0.0117
1867.00,0.0118
1864.00,0.0119
1861.00,0.0119
1858.00,0.0119
1855.00,0.0119
1852.00,0.0121
1849.00,0.0124
1846.00,0.0129
1843.00,0.0128
1840.00,0.0123
1837.00,0.0119
1834.00,0.0117
1831.00,0.0117
1828.00,0.0116
1825.00,0.0117
1822.00,0.0117
1819.00,0.0116
1816.00,0.0115
1813.00,0.0116
1810.00,0.0117
1807.00,0.0118
1804.00,0.0119
1801.00,0.0120
1798.00,0.0122
1795.00,0.0125
1792.00,0.0126
1789.00,0.0124
1786.00,0.0123
1783.00,0.0122
1780.00,0.0123
1777.00,0.0128
1774.00,0.0133
1771.00,0.0134
1768.00,0.0130
1765.00,0.0128
1762.00,0.0131
1759.00,0.0135
1756.00,0.0131
1753.00,0.0128
1750.00,0.0126
1747.00,0.0127
1744.00,0.0129
1741.00,0.0130
1738.00,0.0131
1735.00,0.0134
1732.00,0.0137
1729.00,0.0141
1726.00,0.0145
1723.00,0.0149
1720.00,0.0151
1717.00,0.0153
1714.00,0.0157
1711.00,0.0162
1708.00,0.0163
1705.00,0.0161
1702.00,0.0162
1699.00,0.0165
1696.00,0.0167
1693.00,0.0169
1690.00,0.0170
1687.00,0.0171
1684.00,0.0172
1681.00,0.0174
1678.00,0.0175
1675.00,0.0177
1672.00,0.0178
1669.00,0.0178
1666.00,0.0181
1663.00,0.0185
1660.00,0.0188
1657.00,0.0191
1654.00,0.0195
1651.00,0.0198
1648.00,0.0203
1645.00,0.0215
1642.00,0.0233
1639.00,0.0249
1636.00,0.0272
1633.00,0.0342
1630.00,0.0496
1627.00,0.0797
1624.00,0.1084
1621.00,0.1245
1618.00,0.1175
1615.00,0.0969
1612.00,0.0968
1609.00,0.0981
1606.00,0.0856
1603.00,0.0686
1600.00,0.0552
1597.00,0.0484
1594.00,0.0494
1591.00,0.0610
1588.00,0.0822
1585.00,0.1003
1582.00,0.1046
1579.00,0.0978
1576.00,0.0844
1573.00,0.0733
1570.00,0.0676
1567.00,0.0619
1564.00,0.0526
1561.00,0.0444
1558.00,0.0364
1555.00,0.0336
1552.00,0.0319
1549.00,0.0308
1546.00,0.0300
1543.00,0.0291
1540.00,0.0283
1537.00,0.0275
1534.00,0.0267
1531.00,0.0261
1528.00,0.0260
1525.00,0.0265
1522.00,0.0277
1519.00,0.0297
1516.00,0.0328
1513.00,0.0359
1510.00,0.0377
1507.00,0.0378
1504.00,0.0384
1501.00,0.0431
1498.00,0.0607
1495.00,0.0733
1492.00,0.0606
1489.00,0.0443
1486.00,0.0357
1483.00,0.0316
1480.00,0.0297
1477.00,0.0298
1474.00,0.0319
1471.00,0.0421
1468.00,0.0602
1465.00,0.0704
1462.00,0.0664
1459.00,0.0664
1456.00,0.0641
1453.00,0.0606
1450.00,0.0615
1447.00,0.0649
1444.00,0.0716
1441.00,0.0793
1438.00,0.0841
1435.00,0.0911
1432.00,0.1008
1429.00,0.1062
1426.00,0.1018
1423.00,0.0925
1420.00,0.0846
1417.00,0.0763
1414.00,0.0720
1411.00,0.0736
1408.00,0.0837
1405.00,0.1033
1402.00,0.1229
1399.00,0.1283
1396.00,0.1158
1393.00,0.0949
1390.00,0.0833
1387.00,0.0872
1384.00,0.0822
1381.00,0.0774
1378.00,0.0777
1375.00,0.0695
1372.00,0.0575
1369.00,0.0623
1366.00,0.0803
1363.00,0.0888
1360.00,0.1056
1357.00,0.0983
1354.00,0.0838
1351.00,0.0802
1348.00,0.0823
1345.00,0.0813
1342.00,0.0737
1339.00,0.0635
1336.00,0.0583
1333.00,0.0613
1330.00,0.0655
1327.00,0.0648
1324.00,0.0601
1321.00,0.0563
1318.00,0.0527
1315.00,0.0482
1312.00,0.0469
1309.00,0.0519
1306.00,0.0643
1303.00,0.0860
1300.00,0.0990
1297.00,0.0899
1294.00,0.0830
1291.00,0.0758
1288.00,0.0748
1285.00,0.0861
1282.00,0.0924
1279.00,0.0803
1276.00,0.0633
1273.00,0.0528
1270.00,0.0463
1267.00,0.0430
1264.00,0.0414
1261.00,0.0391
1258.00,0.0372
1255.00,0.0370
1252.00,0.0391
1249.00,0.0454
1246.00,0.0572
1243.00,0.0686
1240.00,0.0764
1237.00,0.0895
1234.00,0.1035
1231.00,0.0993
1228.00,0.0826
1225.00,0.0699
1222.00,0.0639
1219.00,0.0653
1216.00,0.0724
1213.00,0.0748
1210.00,0.0648
1207.00,0.0547
1204.00,0.0550
1201.00,0.0676
1198.00,0.0886
1195.00,0.1105
1192.00,0.1116
1189.00,0.0927
1186.00,0.0699
1183.00,0.0540
1180.00,0.0455
1177.00,0.0410
1174.00,0.0383
1171.00,0.0371
1168.00,0.0367
1165.00,0.0384
1162.00,0.0449
1159.00,0.0642
1156.00,0.0982
1153.00,0.1058
1150.00,0.0730
1147.00,0.0492
1144.00,0.0421
1141.00,0.0415
1138.00,0.0458
1135.00,0.0602
1132.00,0.0950
1129.00,0.1347
1126.00,0.1382
1123.00,0.1128
1120.00,0.0822
1117.00,0.0671
1114.00,0.0636
1111.00,0.0586
1108.00,0.0534
1105.00,0.0578
1102.00,0.0799
1099.00,0.0981
1096.00,0.0812
1093.00,0.0569
1090.00,0.0449
1087.00,0.0398
1084.00,0.0375
1081.00,0.0366
1078.00,0.0368
1075.00,0.0376
1072.00,0.0398
1069.00,0.0439
1066.00,0.0494
1063.00,0.0595
1060.00,0.0839
1057.00,0.1296
1054.00,0.1731
1051.00,0.1870
1048.00,0.1835
1045.00,0.1588
1042.00,0.1231
1039.00,0.0982
1036.00,0.0937
1033.00,0.1002
1030.00,0.1273
1027.00,0.1673
1024.00,0.1572
1021.00,0.1151
1018.00,0.0838
1015.00,0.0662
1012.00,0.0580
1009.00,0.0614
1006.00,0.0773
1003.00,0.0894
1000.00,0.0847
997.00,0.0763
994.00,0.0706
991.00,0.0622
988.00,0.0516
985.00,0.0449
982.00,0.0413
979.00,0.0402
976.00,0.0405
973.00,0.0403
970.00,0.0396
967.00,0.0397
964.00,0.0420
961.00,0.0432
958.00,0.0372
955.00,0.0321
952.00,0.0298
949.00,0.0321
946.00,0.0327
943.00,0.0326
940.00,0.0366
937.00,0.0394
934.00,0.0423
931.00,0.0439
928.00,0.0408
925.00,0.0428
922.00,0.0505
919.00,0.0469
916.00,0.0358
913.00,0.0298
910.00,0.0277
907.00,0.0283
904.00,0.0332
901.00,0.0463
898.00,0.0527
895.00,0.0429
892.00,0.0462
889.00,0.0537
886.00,0.0376
883.00,0.0322
880.00,0.0356
877.00,0.0494
874.00,0.0794
871.00,0.1141
868.00,0.1188
865.00,0.0964
862.00,0.0729
859.00,0.0569
856.00,0.0617
853.00,0.0797
850.00,0.1003
847.00,0.1014
844.00,0.0788
841.00,0.0662
838.00,0.0737
835.00,0.0983
832.00,0.1074
829.00,0.0862
826.00,0.0598
823.00,0.0726
820.00,0.1252
817.00,0.1438
814.00,0.1433
811.00,0.0811
808.00,0.0518
805.00,0.0415
802.00,0.0368
799.00,0.0342
796.00,0.0324
793.00,0.0310
790.00,0.0300
787.00,0.0293
784.00,0.0291
781.00,0.0293
778.00,0.0327
775.00,0.0444
772.00,0.0425
769.00,0.0341
766.00,0.0321
763.00,0.0343
760.00,0.0392
757.00,0.0382
754.00,0.0339
751.00,0.0327
748.00,0.0329
745.00,0.0342
742.00,0.0380
739.00,0.0492
736.00,0.0749
733.00,0.0812
730.00,0.0774
727.00,0.0783
724.00,0.0595
721.00,0.0495
718.00,0.0545
715.00,0.0660
712.00,0.0639
709.00,0.0557
706.00,0.0526
703.00,0.0556
700.00,0.0614
697.00,0.0642
694.00,0.0587
691.00,0.0606
688.00,0.0715
685.00,0.0657
682.00,0.0593
679.00,0.0607
676.00,0.0676
673.00,0.0788
670.00,0.0847
667.00,0.0783
664.00,0.0768
661.00,0.0797
658.00,0.0721
655.00,0.0622
652.00,0.0574
649.00,0.0550
646.00,0.0535
643.00,0.0525
640.00,0.0517
637.00,0.0513
634.00,0.0510
631.00,0.0512
628.00,0.0533
625.00,0.0585
622.00,0.0679
619.00,0.0736
616.00,0.0658
613.00,0.0545
610.00,0.0540
607.00,0.0687
604.00,0.0893
601.00,0.0981
598.00,0.0986
595.00,0.0969
592.00,0.0933
589.00,0.0872
586.00,0.0813
583.00,0.0794
580.00,0.0844
577.00,0.1009
574.00,0.0981
571.00,0.0793
568.00,0.0691
565.00,0.0725
562.00,0.0857
559.00,0.0954
556.00,0.0877
553.00,0.0809
550.00,0.0886
547.00,0.1050
544.00,0.1060
541.00,0.0937
538.00,0.0847
535.00,0.0871
532.00,0.1004
529.00,0.0993
526.00,0.0823
523.00,0.0683
520.00,0.0611
517.00,0.0574
514.00,0.0549
511.00,0.0544
508.00,0.0576
505.00,0.0598
502.00,0.0546
499.00,0.0494
496.00,0.0502
493.00,0.0561
490.00,0.0561
487.00,0.0510
484.00,0.0471
481.00,0.0436
478.00,0.0410
475.00,0.0391
472.00,0.0389
469.00,0.0385
466.00,0.0365
463.00,0.0359
460.00,0.0364
457.00,0.0375
454.00,0.0371
451.00,0.0350
448.00,0.0345
445.00,0.0335
442.00,0.0351
439.00,0.0357
436.00,0.0331
433.00,0.0315
430.00,0.0308
427.00,0.0295
424.00,0.0285
421.00,0.0277
418.00,0.0283
415.00,0.0306
412.00,0.0387
409.00,0.0475
406.00,0.0389
403.00,0.0308
400.00,0.0322