File: FTIR/Clancy/HPMC_polymer_v2600_5600_ECE_scan3.csv
Created as New Dataset,Sample 288 By YargerLab Date Saturday, October 18 2025
cm-1,A
4000.00,0.0077
3997.00,0.0077
3994.00,0.0077
3991.00,0.0077
3988.00,0.0077
3985.00,0.0076
3982.00,0.0076
3979.00,0.0076
3976.00,0.0076
3973.00,0.0076
3970.00,0.0076
3967.00,0.0076
3964.00,0.0076
3961.00,0.0076
3958.00,0.0076
3955.00,0.0076
3952.00,0.0077
3949.00,0.0077
3946.00,0.0077
3943.00,0.0077
3940.00,0.0076
3937.00,0.0076
3934.00,0.0076
3931.00,0.0076
3928.00,0.0076
3925.00,0.0076
3922.00,0.0076
3919.00,0.0076
3916.00,0.0075
3913.00,0.0076
3910.00,0.0076
3907.00,0.0076
3904.00,0.0075
3901.00,0.0075
3898.00,0.0075
3895.00,0.0076
3892.00,0.0076
3889.00,0.0075
3886.00,0.0075
3883.00,0.0075
3880.00,0.0075
3877.00,0.0075
3874.00,0.0075
3871.00,0.0075
3868.00,0.0075
3865.00,0.0075
3862.00,0.0074
3859.00,0.0074
3856.00,0.0075
3853.00,0.0074
3850.00,0.0075
3847.00,0.0075
3844.00,0.0074
3841.00,0.0074
3838.00,0.0074
3835.00,0.0074
3832.00,0.0074
3829.00,0.0074
3826.00,0.0074
3823.00,0.0074
3820.00,0.0074
3817.00,0.0074
3814.00,0.0074
3811.00,0.0074
3808.00,0.0074
3805.00,0.0074
3802.00,0.0074
3799.00,0.0073
3796.00,0.0074
3793.00,0.0074
3790.00,0.0075
3787.00,0.0074
3784.00,0.0074
3781.00,0.0074
3778.00,0.0074
3775.00,0.0075
3772.00,0.0074
3769.00,0.0074
3766.00,0.0074
3763.00,0.0074
3760.00,0.0074
3757.00,0.0074
3754.00,0.0073
3751.00,0.0074
3748.00,0.0074
3745.00,0.0074
3742.00,0.0073
3739.00,0.0072
3736.00,0.0072
3733.00,0.0072
3730.00,0.0073
3727.00,0.0072
3724.00,0.0072
3721.00,0.0073
3718.00,0.0073
3715.00,0.0073
3712.00,0.0072
3709.00,0.0072
3706.00,0.0073
3703.00,0.0072
3700.00,0.0072
3697.00,0.0072
3694.00,0.0072
3691.00,0.0072
3688.00,0.0072
3685.00,0.0072
3682.00,0.0072
3679.00,0.0072
3676.00,0.0073
3673.00,0.0072
3670.00,0.0072
3667.00,0.0073
3664.00,0.0074
3661.00,0.0075
3658.00,0.0075
3655.00,0.0075
3652.00,0.0075
3649.00,0.0075
3646.00,0.0075
3643.00,0.0076
3640.00,0.0078
3637.00,0.0078
3634.00,0.0079
3631.00,0.0080
3628.00,0.0080
3625.00,0.0081
3622.00,0.0082
3619.00,0.0083
3616.00,0.0084
3613.00,0.0086
3610.00,0.0087
3607.00,0.0088
3604.00,0.0089
3601.00,0.0090
3598.00,0.0092
3595.00,0.0093
3592.00,0.0094
3589.00,0.0095
3586.00,0.0096
3583.00,0.0098
3580.00,0.0100
3577.00,0.0101
3574.00,0.0103
3571.00,0.0104
3568.00,0.0105
3565.00,0.0108
3562.00,0.0110
3559.00,0.0111
3556.00,0.0113
3553.00,0.0115
3550.00,0.0118
3547.00,0.0120
3544.00,0.0124
3541.00,0.0127
3538.00,0.0129
3535.00,0.0132
3532.00,0.0135
3529.00,0.0139
3526.00,0.0143
3523.00,0.0147
3520.00,0.0151
3517.00,0.0155
3514.00,0.0159
3511.00,0.0164
3508.00,0.0169
3505.00,0.0173
3502.00,0.0179
3499.00,0.0184
3496.00,0.0190
3493.00,0.0194
3490.00,0.0199
3487.00,0.0203
3484.00,0.0208
3481.00,0.0212
3478.00,0.0215
3475.00,0.0217
3472.00,0.0219
3469.00,0.0222
3466.00,0.0223
3463.00,0.0223
3460.00,0.0223
3457.00,0.0223
3454.00,0.0222
3451.00,0.0221
3448.00,0.0220
3445.00,0.0218
3442.00,0.0216
3439.00,0.0214
3436.00,0.0212
3433.00,0.0210
3430.00,0.0208
3427.00,0.0205
3424.00,0.0203
3421.00,0.0201
3418.00,0.0198
3415.00,0.0195
3412.00,0.0193
3409.00,0.0191
3406.00,0.0189
3403.00,0.0187
3400.00,0.0185
3397.00,0.0182
3394.00,0.0179
3391.00,0.0177
3388.00,0.0174
3385.00,0.0171
3382.00,0.0169
3379.00,0.0166
3376.00,0.0164
3373.00,0.0162
3370.00,0.0160
3367.00,0.0157
3364.00,0.0154
3361.00,0.0152
3358.00,0.0149
3355.00,0.0147
3352.00,0.0146
3349.00,0.0144
3346.00,0.0141
3343.00,0.0140
3340.00,0.0138
3337.00,0.0136
3334.00,0.0134
3331.00,0.0132
3328.00,0.0131
3325.00,0.0129
3322.00,0.0127
3319.00,0.0125
3316.00,0.0124
3313.00,0.0122
3310.00,0.0121
3307.00,0.0121
3304.00,0.0119
3301.00,0.0117
3298.00,0.0116
3295.00,0.0115
3292.00,0.0114
3289.00,0.0113
3286.00,0.0112
3283.00,0.0111
3280.00,0.0110
3277.00,0.0109
3274.00,0.0108
3271.00,0.0107
3268.00,0.0107
3265.00,0.0105
3262.00,0.0105
3259.00,0.0104
3256.00,0.0103
3253.00,0.0102
3250.00,0.0101
3247.00,0.0100
3244.00,0.0100
3241.00,0.0099
3238.00,0.0098
3235.00,0.0097
3232.00,0.0097
3229.00,0.0096
3226.00,0.0095
3223.00,0.0094
3220.00,0.0093
3217.00,0.0093
3214.00,0.0092
3211.00,0.0092
3208.00,0.0091
3205.00,0.0090
3202.00,0.0090
3199.00,0.0089
3196.00,0.0089
3193.00,0.0088
3190.00,0.0088
3187.00,0.0088
3184.00,0.0087
3181.00,0.0087
3178.00,0.0087
3175.00,0.0087
3172.00,0.0086
3169.00,0.0086
3166.00,0.0086
3163.00,0.0086
3160.00,0.0086
3157.00,0.0085
3154.00,0.0085
3151.00,0.0085
3148.00,0.0085
3145.00,0.0085
3142.00,0.0085
3139.00,0.0085
3136.00,0.0085
3133.00,0.0085
3130.00,0.0085
3127.00,0.0085
3124.00,0.0084
3121.00,0.0084
3118.00,0.0084
3115.00,0.0084
3112.00,0.0084
3109.00,0.0084
3106.00,0.0084
3103.00,0.0085
3100.00,0.0085
3097.00,0.0084
3094.00,0.0085
3091.00,0.0085
3088.00,0.0085
3085.00,0.0084
3082.00,0.0085
3079.00,0.0085
3076.00,0.0085
3073.00,0.0085
3070.00,0.0085
3067.00,0.0085
3064.00,0.0085
3061.00,0.0085
3058.00,0.0085
3055.00,0.0085
3052.00,0.0086
3049.00,0.0085
3046.00,0.0086
3043.00,0.0086
3040.00,0.0087
3037.00,0.0087
3034.00,0.0087
3031.00,0.0088
3028.00,0.0089
3025.00,0.0090
3022.00,0.0091
3019.00,0.0092
3016.00,0.0094
3013.00,0.0097
3010.00,0.0100
3007.00,0.0105
3004.00,0.0110
3001.00,0.0116
2998.00,0.0124
2995.00,0.0133
2992.00,0.0142
2989.00,0.0152
2986.00,0.0160
2983.00,0.0165
2980.00,0.0170
2977.00,0.0175
2974.00,0.0176
2971.00,0.0176
2968.00,0.0178
2965.00,0.0179
2962.00,0.0183
2959.00,0.0188
2956.00,0.0196
2953.00,0.0206
2950.00,0.0218
2947.00,0.0231
2944.00,0.0246
2941.00,0.0261
2938.00,0.0275
2935.00,0.0284
2932.00,0.0290
2929.00,0.0293
2926.00,0.0295
2923.00,0.0297
2920.00,0.0301
2917.00,0.0307
2914.00,0.0312
2911.00,0.0316
2908.00,0.0321
2905.00,0.0325
2902.00,0.0328
2899.00,0.0328
2896.00,0.0328
2893.00,0.0325
2890.00,0.0322
2887.00,0.0319
2884.00,0.0315
2881.00,0.0311
2878.00,0.0306
2875.00,0.0300
2872.00,0.0291
2869.00,0.0280
2866.00,0.0270
2863.00,0.0260
2860.00,0.0251
2857.00,0.0243
2854.00,0.0239
2851.00,0.0240
2848.00,0.0245
2845.00,0.0253
2842.00,0.0263
2839.00,0.0273
2836.00,0.0278
2833.00,0.0278
2830.00,0.0272
2827.00,0.0263
2824.00,0.0255
2821.00,0.0248
2818.00,0.0242
2815.00,0.0234
2812.00,0.0224
2809.00,0.0210
2806.00,0.0193
2803.00,0.0178
2800.00,0.0165
2797.00,0.0157
2794.00,0.0152
2791.00,0.0147
2788.00,0.0143
2785.00,0.0141
2782.00,0.0138
2779.00,0.0136
2776.00,0.0135
2773.00,0.0133
2770.00,0.0132
2767.00,0.0130
2764.00,0.0129
2761.00,0.0128
2758.00,0.0128
2755.00,0.0127
2752.00,0.0126
2749.00,0.0126
2746.00,0.0125
2743.00,0.0124
2740.00,0.0123
2737.00,0.0123
2734.00,0.0122
2731.00,0.0121
2728.00,0.0120
2725.00,0.0120
2722.00,0.0119
2719.00,0.0119
2716.00,0.0118
2713.00,0.0117
2710.00,0.0116
2707.00,0.0116
2704.00,0.0116
2701.00,0.0115
2698.00,0.0114
2695.00,0.0114
2692.00,0.0114
2689.00,0.0113
2686.00,0.0113
2683.00,0.0113
2680.00,0.0113
2677.00,0.0112
2674.00,0.0112
2671.00,0.0113
2668.00,0.0113
2665.00,0.0114
2662.00,0.0115
2659.00,0.0116
2656.00,0.0116
2653.00,0.0116
2650.00,0.0116
2647.00,0.0116
2644.00,0.0115
2641.00,0.0115
2638.00,0.0114
2635.00,0.0114
2632.00,0.0114
2629.00,0.0114
2626.00,0.0113
2623.00,0.0113
2620.00,0.0113
2617.00,0.0112
2614.00,0.0112
2611.00,0.0112
2608.00,0.0112
2605.00,0.0111
2602.00,0.0111
2599.00,0.0111
2596.00,0.0111
2593.00,0.0111
2590.00,0.0110
2587.00,0.0110
2584.00,0.0109
2581.00,0.0108
2578.00,0.0107
2575.00,0.0107
2572.00,0.0107
2569.00,0.0106
2566.00,0.0106
2563.00,0.0105
2560.00,0.0105
2557.00,0.0105
2554.00,0.0105
2551.00,0.0104
2548.00,0.0104
2545.00,0.0103
2542.00,0.0103
2539.00,0.0103
2536.00,0.0103
2533.00,0.0103
2530.00,0.0103
2527.00,0.0103
2524.00,0.0102
2521.00,0.0102
2518.00,0.0102
2515.00,0.0101
2512.00,0.0102
2509.00,0.0101
2506.00,0.0101
2503.00,0.0101
2500.00,0.0101
2497.00,0.0101
2494.00,0.0102
2491.00,0.0101
2488.00,0.0101
2485.00,0.0101
2482.00,0.0101
2479.00,0.0101
2476.00,0.0101
2473.00,0.0101
2470.00,0.0102
2467.00,0.0102
2464.00,0.0102
2461.00,0.0101
2458.00,0.0102
2455.00,0.0103
2452.00,0.0102
2449.00,0.0101
2446.00,0.0101
2443.00,0.0102
2440.00,0.0101
2437.00,0.0101
2434.00,0.0100
2431.00,0.0100
2428.00,0.0101
2425.00,0.0101
2422.00,0.0100
2419.00,0.0100
2416.00,0.0100
2413.00,0.0100
2410.00,0.0100
2407.00,0.0099
2404.00,0.0099
2401.00,0.0100
2398.00,0.0099
2395.00,0.0099
2392.00,0.0099
2389.00,0.0098
2386.00,0.0096
2383.00,0.0094
2380.00,0.0093
2377.00,0.0093
2374.00,0.0093
2371.00,0.0092
2368.00,0.0091
2365.00,0.0092
2362.00,0.0092
2359.00,0.0093
2356.00,0.0093
2353.00,0.0093
2350.00,0.0094
2347.00,0.0094
2344.00,0.0095
2341.00,0.0096
2338.00,0.0097
2335.00,0.0098
2332.00,0.0096
2329.00,0.0099
2326.00,0.0109
2323.00,0.0106
2320.00,0.0103
2317.00,0.0102
2314.00,0.0100
2311.00,0.0099
2308.00,0.0099
2305.00,0.0101
2302.00,0.0101
2299.00,0.0102
2296.00,0.0105
2293.00,0.0108
2290.00,0.0109
2287.00,0.0110
2284.00,0.0109
2281.00,0.0107
2278.00,0.0105
2275.00,0.0104
2272.00,0.0104
2269.00,0.0103
2266.00,0.0101
2263.00,0.0102
2260.00,0.0104
2257.00,0.0102
2254.00,0.0100
2251.00,0.0100
2248.00,0.0100
2245.00,0.0101
2242.00,0.0101
2239.00,0.0100
2236.00,0.0099
2233.00,0.0099
2230.00,0.0099
2227.00,0.0099
2224.00,0.0100
2221.00,0.0099
2218.00,0.0098
2215.00,0.0099
2212.00,0.0098
2209.00,0.0098
2206.00,0.0098
2203.00,0.0099
2200.00,0.0099
2197.00,0.0098
2194.00,0.0098
2191.00,0.0100
2188.00,0.0099
2185.00,0.0097
2182.00,0.0094
2179.00,0.0094
2176.00,0.0089
2173.00,0.0095
2170.00,0.0102
2167.00,0.0100
2164.00,0.0099
2161.00,0.0087
2158.00,0.0064
2155.00,0.0072
2152.00,0.0078
2149.00,0.0079
2146.00,0.0078
2143.00,0.0081
2140.00,0.0084
2137.00,0.0084
2134.00,0.0081
2131.00,0.0084
2128.00,0.0091
2125.00,0.0094
2122.00,0.0095
2119.00,0.0097
2116.00,0.0101
2113.00,0.0102
2110.00,0.0100
2107.00,0.0101
2104.00,0.0103
2101.00,0.0102
2098.00,0.0100
2095.00,0.0096
2092.00,0.0098
2089.00,0.0101
2086.00,0.0103
2083.00,0.0102
2080.00,0.0102
2077.00,0.0102
2074.00,0.0102
2071.00,0.0102
2068.00,0.0100
2065.00,0.0101
2062.00,0.0101
2059.00,0.0101
2056.00,0.0101
2053.00,0.0108
2050.00,0.0107
2047.00,0.0099
2044.00,0.0098
2041.00,0.0096
2038.00,0.0096
2035.00,0.0092
2032.00,0.0086
2029.00,0.0083
2026.00,0.0081
2023.00,0.0082
2020.00,0.0081
2017.00,0.0084
2014.00,0.0084
2011.00,0.0085
2008.00,0.0087
2005.00,0.0087
2002.00,0.0086
1999.00,0.0088
1996.00,0.0093
1993.00,0.0091
1990.00,0.0090
1987.00,0.0092
1984.00,0.0099
1981.00,0.0106
1978.00,0.0093
1975.00,0.0084
1972.00,0.0085
1969.00,0.0085
1966.00,0.0085
1963.00,0.0084
1960.00,0.0083
1957.00,0.0086
1954.00,0.0089
1951.00,0.0090
1948.00,0.0091
1945.00,0.0090
1942.00,0.0091
1939.00,0.0091
1936.00,0.0091
1933.00,0.0092
1930.00,0.0091
1927.00,0.0093
1924.00,0.0093
1921.00,0.0094
1918.00,0.0095
1915.00,0.0095
1912.00,0.0094
1909.00,0.0094
1906.00,0.0093
1903.00,0.0094
1900.00,0.0095
1897.00,0.0094
1894.00,0.0094
1891.00,0.0095
1888.00,0.0095
1885.00,0.0095
1882.00,0.0095
1879.00,0.0095
1876.00,0.0095
1873.00,0.0097
1870.00,0.0096
1867.00,0.0096
1864.00,0.0097
1861.00,0.0096
1858.00,0.0096
1855.00,0.0098
1852.00,0.0097
1849.00,0.0098
1846.00,0.0097
1843.00,0.0097
1840.00,0.0097
1837.00,0.0097
1834.00,0.0098
1831.00,0.0098
1828.00,0.0099
1825.00,0.0100
1822.00,0.0100
1819.00,0.0098
1816.00,0.0098
1813.00,0.0100
1810.00,0.0100
1807.00,0.0101
1804.00,0.0101
1801.00,0.0101
1798.00,0.0102
1795.00,0.0102
1792.00,0.0102
1789.00,0.0103
1786.00,0.0103
1783.00,0.0102
1780.00,0.0103
1777.00,0.0102
1774.00,0.0102
1771.00,0.0103
1768.00,0.0103
1765.00,0.0103
1762.00,0.0104
1759.00,0.0104
1756.00,0.0103
1753.00,0.0102
1750.00,0.0102
1747.00,0.0103
1744.00,0.0102
1741.00,0.0103
1738.00,0.0104
1735.00,0.0104
1732.00,0.0104
1729.00,0.0105
1726.00,0.0105
1723.00,0.0105
1720.00,0.0104
1717.00,0.0101
1714.00,0.0101
1711.00,0.0100
1708.00,0.0097
1705.00,0.0093
1702.00,0.0088
1699.00,0.0076
1696.00,0.0064
1693.00,0.0047
1690.00,0.0031
1687.00,0.0018
1684.00,0.0005
1681.00,-0.0001
1678.00,-0.0002
1675.00,-0.0001
1672.00,-0.0000
1669.00,0.0001
1666.00,0.0002
1663.00,0.0006
1660.00,0.0013
1657.00,0.0023
1654.00,0.0037
1651.00,0.0057
1648.00,0.0070
1645.00,0.0089
1642.00,0.0101
1639.00,0.0109
1636.00,0.0116
1633.00,0.0121
1630.00,0.0123
1627.00,0.0125
1624.00,0.0125
1621.00,0.0125
1618.00,0.0123
1615.00,0.0122
1612.00,0.0123
1609.00,0.0123
1606.00,0.0121
1603.00,0.0119
1600.00,0.0116
1597.00,0.0114
1594.00,0.0114
1591.00,0.0115
1588.00,0.0117
1585.00,0.0118
1582.00,0.0118
1579.00,0.0118
1576.00,0.0118
1573.00,0.0118
1570.00,0.0118
1567.00,0.0118
1564.00,0.0118
1561.00,0.0118
1558.00,0.0117
1555.00,0.0117
1552.00,0.0116
1549.00,0.0114
1546.00,0.0115
1543.00,0.0115
1540.00,0.0114
1537.00,0.0114
1534.00,0.0114
1531.00,0.0114
1528.00,0.0113
1525.00,0.0113
1522.00,0.0113
1519.00,0.0113
1516.00,0.0113
1513.00,0.0113
1510.00,0.0113
1507.00,0.0113
1504.00,0.0112
1501.00,0.0110
1498.00,0.0108
1495.00,0.0110
1492.00,0.0113
1489.00,0.0121
1486.00,0.0135
1483.00,0.0151
1480.00,0.0173
1477.00,0.0195
1474.00,0.0218
1471.00,0.0240
1468.00,0.0249
1465.00,0.0254
1462.00,0.0262
1459.00,0.0272
1456.00,0.0293
1453.00,0.0298
1450.00,0.0294
1447.00,0.0280
1444.00,0.0258
1441.00,0.0230
1438.00,0.0203
1435.00,0.0177
1432.00,0.0163
1429.00,0.0157
1426.00,0.0158
1423.00,0.0168
1420.00,0.0187
1417.00,0.0213
1414.00,0.0228
1411.00,0.0238
1408.00,0.0242
1405.00,0.0243
1402.00,0.0240
1399.00,0.0236
1396.00,0.0234
1393.00,0.0238
1390.00,0.0245
1387.00,0.0261
1384.00,0.0282
1381.00,0.0304
1378.00,0.0324
1375.00,0.0337
1372.00,0.0343
1369.00,0.0336
1366.00,0.0319
1363.00,0.0298
1360.00,0.0279
1357.00,0.0266
1354.00,0.0260
1351.00,0.0260
1348.00,0.0267
1345.00,0.0275
1342.00,0.0284
1339.00,0.0292
1336.00,0.0297
1333.00,0.0295
1330.00,0.0292
1327.00,0.0290
1324.00,0.0292
1321.00,0.0297
1318.00,0.0305
1315.00,0.0315
1312.00,0.0319
1309.00,0.0314
1306.00,0.0301
1303.00,0.0282
1300.00,0.0261
1297.00,0.0239
1294.00,0.0218
1291.00,0.0204
1288.00,0.0200
1285.00,0.0201
1282.00,0.0201
1279.00,0.0196
1276.00,0.0189
1273.00,0.0187
1270.00,0.0191
1267.00,0.0197
1264.00,0.0198
1261.00,0.0196
1258.00,0.0191
1255.00,0.0185
1252.00,0.0181
1249.00,0.0179
1246.00,0.0178
1243.00,0.0178
1240.00,0.0177
1237.00,0.0175
1234.00,0.0173
1231.00,0.0172
1228.00,0.0175
1225.00,0.0183
1222.00,0.0200
1219.00,0.0226
1216.00,0.0257
1213.00,0.0285
1210.00,0.0304
1207.00,0.0318
1204.00,0.0334
1201.00,0.0350
1198.00,0.0360
1195.00,0.0366
1192.00,0.0370
1189.00,0.0372
1186.00,0.0369
1183.00,0.0362
1180.00,0.0357
1177.00,0.0358
1174.00,0.0368
1171.00,0.0389
1168.00,0.0423
1165.00,0.0471
1162.00,0.0527
1159.00,0.0586
1156.00,0.0644
1153.00,0.0693
1150.00,0.0727
1147.00,0.0752
1144.00,0.0775
1141.00,0.0804
1138.00,0.0848
1135.00,0.0911
1132.00,0.0989
1129.00,0.1075
1126.00,0.1157
1123.00,0.1230
1120.00,0.1294
1117.00,0.1347
1114.00,0.1389
1111.00,0.1422
1108.00,0.1442
1105.00,0.1455
1102.00,0.1467
1099.00,0.1478
1096.00,0.1485
1093.00,0.1495
1090.00,0.1518
1087.00,0.1562
1084.00,0.1624
1081.00,0.1699
1078.00,0.1776
1075.00,0.1851
1072.00,0.1921
1069.00,0.1986
1066.00,0.2051
1063.00,0.2113
1060.00,0.2163
1057.00,0.2194
1054.00,0.2207
1051.00,0.2204
1048.00,0.2183
1045.00,0.2144
1042.00,0.2095
1039.00,0.2040
1036.00,0.1986
1033.00,0.1934
1030.00,0.1883
1027.00,0.1836
1024.00,0.1790
1021.00,0.1742
1018.00,0.1696
1015.00,0.1652
1012.00,0.1605
1009.00,0.1546
1006.00,0.1471
1003.00,0.1387
1000.00,0.1301
997.00,0.1215
994.00,0.1136
991.00,0.1061
988.00,0.0989
985.00,0.0926
982.00,0.0871
979.00,0.0825
976.00,0.0789
973.00,0.0763
970.00,0.0749
967.00,0.0755
964.00,0.0781
961.00,0.0824
958.00,0.0875
955.00,0.0929
952.00,0.0981
949.00,0.1024
946.00,0.1055
943.00,0.1060
940.00,0.1030
937.00,0.0976
934.00,0.0928
931.00,0.0900
928.00,0.0881
925.00,0.0859
922.00,0.0830
919.00,0.0796
916.00,0.0761
913.00,0.0733
910.00,0.0711
907.00,0.0689
904.00,0.0665
901.00,0.0640
898.00,0.0623
895.00,0.0614
892.00,0.0608
889.00,0.0599
886.00,0.0580
883.00,0.0548
880.00,0.0513
877.00,0.0482
874.00,0.0459
871.00,0.0443
868.00,0.0431
865.00,0.0424
862.00,0.0420
859.00,0.0420
856.00,0.0422
853.00,0.0421
850.00,0.0419
847.00,0.0414
844.00,0.0407
841.00,0.0404
838.00,0.0400
835.00,0.0392
832.00,0.0385
829.00,0.0378
826.00,0.0376
823.00,0.0377
820.00,0.0377
817.00,0.0373
814.00,0.0370
811.00,0.0367
808.00,0.0362
805.00,0.0358
802.00,0.0353
799.00,0.0349
796.00,0.0346
793.00,0.0342
790.00,0.0341
787.00,0.0339
784.00,0.0336
781.00,0.0334
778.00,0.0333
775.00,0.0333
772.00,0.0332
769.00,0.0330
766.00,0.0329
763.00,0.0329
760.00,0.0328
757.00,0.0327
754.00,0.0327
751.00,0.0328
748.00,0.0326
745.00,0.0327
742.00,0.0328
739.00,0.0329
736.00,0.0329
733.00,0.0330
730.00,0.0333
727.00,0.0335
724.00,0.0338
721.00,0.0344
718.00,0.0351
715.00,0.0358
712.00,0.0365
709.00,0.0370
706.00,0.0374
703.00,0.0376
700.00,0.0377
697.00,0.0376
694.00,0.0374
691.00,0.0376
688.00,0.0378
685.00,0.0385
682.00,0.0401
679.00,0.0427
676.00,0.0460
673.00,0.0493
670.00,0.0517
667.00,0.0551
664.00,0.0560
661.00,0.0566
658.00,0.0570
655.00,0.0570
652.00,0.0571
649.00,0.0570
646.00,0.0570
643.00,0.0571
640.00,0.0573
637.00,0.0581
634.00,0.0592
631.00,0.0604
628.00,0.0616
625.00,0.0631
622.00,0.0648
619.00,0.0663
616.00,0.0677
613.00,0.0689
610.00,0.0699
607.00,0.0704
604.00,0.0705
601.00,0.0707
598.00,0.0711
595.00,0.0714
592.00,0.0720
589.00,0.0731
586.00,0.0742
583.00,0.0756
580.00,0.0768
577.00,0.0782
574.00,0.0796
571.00,0.0806
568.00,0.0815
565.00,0.0822
562.00,0.0825
559.00,0.0820
556.00,0.0814
553.00,0.0814
550.00,0.0816
547.00,0.0814
544.00,0.0817
541.00,0.0816
538.00,0.0815
535.00,0.0821
532.00,0.0821
529.00,0.0824
526.00,0.0827
523.00,0.0828
520.00,0.0832
517.00,0.0837
514.00,0.0841
511.00,0.0842
508.00,0.0843
505.00,0.0849
502.00,0.0852
499.00,0.0854
496.00,0.0853
493.00,0.0853
490.00,0.0854
487.00,0.0861
484.00,0.0880
481.00,0.0883
478.00,0.0885
475.00,0.0898
472.00,0.0897
469.00,0.0890
466.00,0.0888
463.00,0.0886
460.00,0.0875
457.00,0.0859
454.00,0.0854
451.00,0.0849
448.00,0.0837
445.00,0.0826
442.00,0.0813
439.00,0.0804
436.00,0.0797
433.00,0.0790
430.00,0.0793
427.00,0.0785
424.00,0.0767
421.00,0.0764
418.00,0.0758
415.00,0.0760
412.00,0.0755
409.00,0.0752
406.00,0.0750
403.00,0.0726
400.00,0.0745