File: FTIR/Clancy/HPMC_polymer_v2600_5600_ECE_scan1.csv
Created as New Dataset,Sample 286 By YargerLab Date Saturday, October 18 2025
cm-1,A
4000.00,0.0059
3997.00,0.0059
3994.00,0.0059
3991.00,0.0059
3988.00,0.0059
3985.00,0.0059
3982.00,0.0059
3979.00,0.0059
3976.00,0.0059
3973.00,0.0059
3970.00,0.0058
3967.00,0.0059
3964.00,0.0059
3961.00,0.0059
3958.00,0.0059
3955.00,0.0059
3952.00,0.0059
3949.00,0.0059
3946.00,0.0060
3943.00,0.0059
3940.00,0.0058
3937.00,0.0058
3934.00,0.0059
3931.00,0.0059
3928.00,0.0059
3925.00,0.0059
3922.00,0.0059
3919.00,0.0059
3916.00,0.0059
3913.00,0.0058
3910.00,0.0058
3907.00,0.0059
3904.00,0.0059
3901.00,0.0059
3898.00,0.0058
3895.00,0.0059
3892.00,0.0059
3889.00,0.0059
3886.00,0.0058
3883.00,0.0058
3880.00,0.0058
3877.00,0.0058
3874.00,0.0058
3871.00,0.0059
3868.00,0.0059
3865.00,0.0057
3862.00,0.0057
3859.00,0.0058
3856.00,0.0059
3853.00,0.0059
3850.00,0.0058
3847.00,0.0058
3844.00,0.0058
3841.00,0.0057
3838.00,0.0057
3835.00,0.0057
3832.00,0.0057
3829.00,0.0057
3826.00,0.0057
3823.00,0.0058
3820.00,0.0057
3817.00,0.0057
3814.00,0.0057
3811.00,0.0057
3808.00,0.0057
3805.00,0.0057
3802.00,0.0057
3799.00,0.0057
3796.00,0.0057
3793.00,0.0057
3790.00,0.0057
3787.00,0.0057
3784.00,0.0057
3781.00,0.0057
3778.00,0.0057
3775.00,0.0057
3772.00,0.0057
3769.00,0.0057
3766.00,0.0057
3763.00,0.0057
3760.00,0.0057
3757.00,0.0057
3754.00,0.0057
3751.00,0.0057
3748.00,0.0058
3745.00,0.0058
3742.00,0.0057
3739.00,0.0056
3736.00,0.0057
3733.00,0.0056
3730.00,0.0057
3727.00,0.0056
3724.00,0.0056
3721.00,0.0056
3718.00,0.0056
3715.00,0.0057
3712.00,0.0056
3709.00,0.0056
3706.00,0.0056
3703.00,0.0055
3700.00,0.0055
3697.00,0.0055
3694.00,0.0055
3691.00,0.0055
3688.00,0.0055
3685.00,0.0055
3682.00,0.0055
3679.00,0.0056
3676.00,0.0057
3673.00,0.0056
3670.00,0.0055
3667.00,0.0056
3664.00,0.0056
3661.00,0.0057
3658.00,0.0057
3655.00,0.0058
3652.00,0.0058
3649.00,0.0058
3646.00,0.0059
3643.00,0.0058
3640.00,0.0058
3637.00,0.0059
3634.00,0.0060
3631.00,0.0061
3628.00,0.0061
3625.00,0.0061
3622.00,0.0061
3619.00,0.0062
3616.00,0.0063
3613.00,0.0064
3610.00,0.0066
3607.00,0.0066
3604.00,0.0066
3601.00,0.0066
3598.00,0.0067
3595.00,0.0067
3592.00,0.0068
3589.00,0.0070
3586.00,0.0070
3583.00,0.0070
3580.00,0.0071
3577.00,0.0072
3574.00,0.0073
3571.00,0.0074
3568.00,0.0076
3565.00,0.0076
3562.00,0.0077
3559.00,0.0078
3556.00,0.0080
3553.00,0.0080
3550.00,0.0082
3547.00,0.0083
3544.00,0.0085
3541.00,0.0087
3538.00,0.0089
3535.00,0.0091
3532.00,0.0092
3529.00,0.0095
3526.00,0.0098
3523.00,0.0100
3520.00,0.0102
3517.00,0.0105
3514.00,0.0107
3511.00,0.0110
3508.00,0.0112
3505.00,0.0115
3502.00,0.0118
3499.00,0.0121
3496.00,0.0125
3493.00,0.0128
3490.00,0.0130
3487.00,0.0133
3484.00,0.0136
3481.00,0.0138
3478.00,0.0140
3475.00,0.0142
3472.00,0.0144
3469.00,0.0145
3466.00,0.0146
3463.00,0.0146
3460.00,0.0147
3457.00,0.0146
3454.00,0.0146
3451.00,0.0146
3448.00,0.0146
3445.00,0.0145
3442.00,0.0144
3439.00,0.0143
3436.00,0.0141
3433.00,0.0141
3430.00,0.0139
3427.00,0.0138
3424.00,0.0137
3421.00,0.0136
3418.00,0.0135
3415.00,0.0133
3412.00,0.0132
3409.00,0.0130
3406.00,0.0129
3403.00,0.0128
3400.00,0.0127
3397.00,0.0126
3394.00,0.0124
3391.00,0.0123
3388.00,0.0121
3385.00,0.0120
3382.00,0.0119
3379.00,0.0117
3376.00,0.0116
3373.00,0.0115
3370.00,0.0114
3367.00,0.0113
3364.00,0.0110
3361.00,0.0109
3358.00,0.0108
3355.00,0.0107
3352.00,0.0106
3349.00,0.0105
3346.00,0.0104
3343.00,0.0102
3340.00,0.0102
3337.00,0.0101
3334.00,0.0100
3331.00,0.0099
3328.00,0.0098
3325.00,0.0097
3322.00,0.0096
3319.00,0.0095
3316.00,0.0094
3313.00,0.0093
3310.00,0.0092
3307.00,0.0092
3304.00,0.0091
3301.00,0.0090
3298.00,0.0089
3295.00,0.0088
3292.00,0.0088
3289.00,0.0088
3286.00,0.0087
3283.00,0.0087
3280.00,0.0086
3277.00,0.0085
3274.00,0.0085
3271.00,0.0084
3268.00,0.0084
3265.00,0.0084
3262.00,0.0083
3259.00,0.0082
3256.00,0.0082
3253.00,0.0081
3250.00,0.0081
3247.00,0.0080
3244.00,0.0080
3241.00,0.0079
3238.00,0.0079
3235.00,0.0078
3232.00,0.0078
3229.00,0.0078
3226.00,0.0077
3223.00,0.0076
3220.00,0.0076
3217.00,0.0076
3214.00,0.0075
3211.00,0.0075
3208.00,0.0075
3205.00,0.0074
3202.00,0.0074
3199.00,0.0074
3196.00,0.0073
3193.00,0.0073
3190.00,0.0072
3187.00,0.0072
3184.00,0.0071
3181.00,0.0072
3178.00,0.0072
3175.00,0.0072
3172.00,0.0071
3169.00,0.0071
3166.00,0.0070
3163.00,0.0071
3160.00,0.0071
3157.00,0.0070
3154.00,0.0070
3151.00,0.0070
3148.00,0.0070
3145.00,0.0070
3142.00,0.0069
3139.00,0.0069
3136.00,0.0069
3133.00,0.0069
3130.00,0.0069
3127.00,0.0069
3124.00,0.0069
3121.00,0.0068
3118.00,0.0068
3115.00,0.0068
3112.00,0.0068
3109.00,0.0068
3106.00,0.0068
3103.00,0.0068
3100.00,0.0068
3097.00,0.0068
3094.00,0.0068
3091.00,0.0068
3088.00,0.0068
3085.00,0.0068
3082.00,0.0068
3079.00,0.0068
3076.00,0.0067
3073.00,0.0068
3070.00,0.0068
3067.00,0.0068
3064.00,0.0068
3061.00,0.0068
3058.00,0.0068
3055.00,0.0068
3052.00,0.0068
3049.00,0.0067
3046.00,0.0067
3043.00,0.0068
3040.00,0.0068
3037.00,0.0069
3034.00,0.0068
3031.00,0.0069
3028.00,0.0069
3025.00,0.0070
3022.00,0.0070
3019.00,0.0071
3016.00,0.0072
3013.00,0.0074
3010.00,0.0076
3007.00,0.0079
3004.00,0.0082
3001.00,0.0086
2998.00,0.0091
2995.00,0.0096
2992.00,0.0102
2989.00,0.0108
2986.00,0.0113
2983.00,0.0117
2980.00,0.0120
2977.00,0.0123
2974.00,0.0124
2971.00,0.0125
2968.00,0.0126
2965.00,0.0128
2962.00,0.0130
2959.00,0.0134
2956.00,0.0138
2953.00,0.0143
2950.00,0.0150
2947.00,0.0157
2944.00,0.0167
2941.00,0.0177
2938.00,0.0186
2935.00,0.0194
2932.00,0.0198
2929.00,0.0201
2926.00,0.0203
2923.00,0.0204
2920.00,0.0205
2917.00,0.0206
2914.00,0.0208
2911.00,0.0210
2908.00,0.0213
2905.00,0.0215
2902.00,0.0216
2899.00,0.0216
2896.00,0.0215
2893.00,0.0214
2890.00,0.0212
2887.00,0.0210
2884.00,0.0209
2881.00,0.0206
2878.00,0.0203
2875.00,0.0200
2872.00,0.0196
2869.00,0.0190
2866.00,0.0185
2863.00,0.0179
2860.00,0.0174
2857.00,0.0171
2854.00,0.0169
2851.00,0.0168
2848.00,0.0169
2845.00,0.0173
2842.00,0.0178
2839.00,0.0183
2836.00,0.0186
2833.00,0.0186
2830.00,0.0183
2827.00,0.0178
2824.00,0.0173
2821.00,0.0169
2818.00,0.0166
2815.00,0.0162
2812.00,0.0156
2809.00,0.0147
2806.00,0.0138
2803.00,0.0129
2800.00,0.0121
2797.00,0.0117
2794.00,0.0113
2791.00,0.0110
2788.00,0.0108
2785.00,0.0106
2782.00,0.0105
2779.00,0.0103
2776.00,0.0102
2773.00,0.0101
2770.00,0.0100
2767.00,0.0100
2764.00,0.0099
2761.00,0.0098
2758.00,0.0098
2755.00,0.0097
2752.00,0.0097
2749.00,0.0096
2746.00,0.0096
2743.00,0.0095
2740.00,0.0095
2737.00,0.0095
2734.00,0.0094
2731.00,0.0094
2728.00,0.0093
2725.00,0.0093
2722.00,0.0093
2719.00,0.0093
2716.00,0.0092
2713.00,0.0091
2710.00,0.0091
2707.00,0.0091
2704.00,0.0091
2701.00,0.0091
2698.00,0.0090
2695.00,0.0090
2692.00,0.0090
2689.00,0.0090
2686.00,0.0089
2683.00,0.0089
2680.00,0.0089
2677.00,0.0089
2674.00,0.0089
2671.00,0.0089
2668.00,0.0089
2665.00,0.0090
2662.00,0.0091
2659.00,0.0092
2656.00,0.0092
2653.00,0.0092
2650.00,0.0092
2647.00,0.0092
2644.00,0.0092
2641.00,0.0091
2638.00,0.0091
2635.00,0.0091
2632.00,0.0091
2629.00,0.0091
2626.00,0.0090
2623.00,0.0090
2620.00,0.0091
2617.00,0.0090
2614.00,0.0090
2611.00,0.0090
2608.00,0.0089
2605.00,0.0089
2602.00,0.0089
2599.00,0.0089
2596.00,0.0089
2593.00,0.0088
2590.00,0.0088
2587.00,0.0088
2584.00,0.0088
2581.00,0.0087
2578.00,0.0086
2575.00,0.0086
2572.00,0.0086
2569.00,0.0086
2566.00,0.0086
2563.00,0.0085
2560.00,0.0085
2557.00,0.0085
2554.00,0.0085
2551.00,0.0085
2548.00,0.0084
2545.00,0.0083
2542.00,0.0084
2539.00,0.0083
2536.00,0.0084
2533.00,0.0084
2530.00,0.0083
2527.00,0.0083
2524.00,0.0083
2521.00,0.0082
2518.00,0.0083
2515.00,0.0083
2512.00,0.0082
2509.00,0.0082
2506.00,0.0081
2503.00,0.0081
2500.00,0.0082
2497.00,0.0082
2494.00,0.0083
2491.00,0.0082
2488.00,0.0082
2485.00,0.0082
2482.00,0.0082
2479.00,0.0082
2476.00,0.0082
2473.00,0.0082
2470.00,0.0082
2467.00,0.0083
2464.00,0.0083
2461.00,0.0083
2458.00,0.0083
2455.00,0.0083
2452.00,0.0083
2449.00,0.0082
2446.00,0.0082
2443.00,0.0082
2440.00,0.0082
2437.00,0.0082
2434.00,0.0081
2431.00,0.0081
2428.00,0.0081
2425.00,0.0082
2422.00,0.0081
2419.00,0.0081
2416.00,0.0081
2413.00,0.0081
2410.00,0.0080
2407.00,0.0080
2404.00,0.0079
2401.00,0.0080
2398.00,0.0080
2395.00,0.0079
2392.00,0.0079
2389.00,0.0079
2386.00,0.0078
2383.00,0.0076
2380.00,0.0075
2377.00,0.0075
2374.00,0.0076
2371.00,0.0075
2368.00,0.0075
2365.00,0.0075
2362.00,0.0076
2359.00,0.0076
2356.00,0.0076
2353.00,0.0077
2350.00,0.0077
2347.00,0.0078
2344.00,0.0078
2341.00,0.0079
2338.00,0.0080
2335.00,0.0080
2332.00,0.0079
2329.00,0.0081
2326.00,0.0089
2323.00,0.0088
2320.00,0.0084
2317.00,0.0083
2314.00,0.0082
2311.00,0.0080
2308.00,0.0081
2305.00,0.0081
2302.00,0.0081
2299.00,0.0083
2296.00,0.0085
2293.00,0.0088
2290.00,0.0089
2287.00,0.0089
2284.00,0.0089
2281.00,0.0088
2278.00,0.0086
2275.00,0.0085
2272.00,0.0086
2269.00,0.0086
2266.00,0.0084
2263.00,0.0083
2260.00,0.0085
2257.00,0.0084
2254.00,0.0080
2251.00,0.0081
2248.00,0.0083
2245.00,0.0084
2242.00,0.0084
2239.00,0.0084
2236.00,0.0083
2233.00,0.0082
2230.00,0.0081
2227.00,0.0081
2224.00,0.0082
2221.00,0.0080
2218.00,0.0082
2215.00,0.0082
2212.00,0.0081
2209.00,0.0082
2206.00,0.0082
2203.00,0.0081
2200.00,0.0083
2197.00,0.0081
2194.00,0.0083
2191.00,0.0085
2188.00,0.0082
2185.00,0.0079
2182.00,0.0078
2179.00,0.0079
2176.00,0.0078
2173.00,0.0080
2170.00,0.0085
2167.00,0.0084
2164.00,0.0088
2161.00,0.0079
2158.00,0.0053
2155.00,0.0056
2152.00,0.0063
2149.00,0.0064
2146.00,0.0063
2143.00,0.0064
2140.00,0.0066
2137.00,0.0066
2134.00,0.0063
2131.00,0.0066
2128.00,0.0071
2125.00,0.0074
2122.00,0.0075
2119.00,0.0078
2116.00,0.0081
2113.00,0.0081
2110.00,0.0080
2107.00,0.0082
2104.00,0.0081
2101.00,0.0080
2098.00,0.0078
2095.00,0.0076
2092.00,0.0079
2089.00,0.0080
2086.00,0.0082
2083.00,0.0082
2080.00,0.0082
2077.00,0.0082
2074.00,0.0082
2071.00,0.0082
2068.00,0.0079
2065.00,0.0080
2062.00,0.0081
2059.00,0.0081
2056.00,0.0080
2053.00,0.0086
2050.00,0.0086
2047.00,0.0079
2044.00,0.0079
2041.00,0.0077
2038.00,0.0075
2035.00,0.0072
2032.00,0.0069
2029.00,0.0071
2026.00,0.0070
2023.00,0.0070
2020.00,0.0067
2017.00,0.0070
2014.00,0.0069
2011.00,0.0068
2008.00,0.0069
2005.00,0.0070
2002.00,0.0070
1999.00,0.0072
1996.00,0.0073
1993.00,0.0074
1990.00,0.0076
1987.00,0.0077
1984.00,0.0080
1981.00,0.0086
1978.00,0.0078
1975.00,0.0070
1972.00,0.0066
1969.00,0.0068
1966.00,0.0069
1963.00,0.0067
1960.00,0.0065
1957.00,0.0067
1954.00,0.0071
1951.00,0.0072
1948.00,0.0072
1945.00,0.0070
1942.00,0.0071
1939.00,0.0072
1936.00,0.0073
1933.00,0.0073
1930.00,0.0072
1927.00,0.0073
1924.00,0.0075
1921.00,0.0076
1918.00,0.0076
1915.00,0.0077
1912.00,0.0077
1909.00,0.0074
1906.00,0.0075
1903.00,0.0076
1900.00,0.0076
1897.00,0.0075
1894.00,0.0076
1891.00,0.0076
1888.00,0.0075
1885.00,0.0075
1882.00,0.0075
1879.00,0.0075
1876.00,0.0076
1873.00,0.0077
1870.00,0.0077
1867.00,0.0077
1864.00,0.0077
1861.00,0.0077
1858.00,0.0077
1855.00,0.0077
1852.00,0.0078
1849.00,0.0078
1846.00,0.0078
1843.00,0.0078
1840.00,0.0078
1837.00,0.0077
1834.00,0.0078
1831.00,0.0077
1828.00,0.0078
1825.00,0.0079
1822.00,0.0079
1819.00,0.0078
1816.00,0.0077
1813.00,0.0079
1810.00,0.0080
1807.00,0.0080
1804.00,0.0081
1801.00,0.0081
1798.00,0.0081
1795.00,0.0081
1792.00,0.0081
1789.00,0.0082
1786.00,0.0082
1783.00,0.0082
1780.00,0.0083
1777.00,0.0082
1774.00,0.0081
1771.00,0.0082
1768.00,0.0083
1765.00,0.0083
1762.00,0.0083
1759.00,0.0084
1756.00,0.0084
1753.00,0.0084
1750.00,0.0085
1747.00,0.0085
1744.00,0.0085
1741.00,0.0085
1738.00,0.0086
1735.00,0.0085
1732.00,0.0085
1729.00,0.0085
1726.00,0.0085
1723.00,0.0085
1720.00,0.0084
1717.00,0.0083
1714.00,0.0082
1711.00,0.0080
1708.00,0.0078
1705.00,0.0075
1702.00,0.0070
1699.00,0.0062
1696.00,0.0053
1693.00,0.0041
1690.00,0.0031
1687.00,0.0022
1684.00,0.0012
1681.00,0.0007
1678.00,0.0006
1675.00,0.0008
1672.00,0.0012
1669.00,0.0016
1666.00,0.0019
1663.00,0.0023
1660.00,0.0029
1657.00,0.0036
1654.00,0.0045
1651.00,0.0058
1648.00,0.0066
1645.00,0.0078
1642.00,0.0084
1639.00,0.0090
1636.00,0.0095
1633.00,0.0097
1630.00,0.0099
1627.00,0.0101
1624.00,0.0102
1621.00,0.0102
1618.00,0.0101
1615.00,0.0101
1612.00,0.0100
1609.00,0.0099
1606.00,0.0098
1603.00,0.0096
1600.00,0.0094
1597.00,0.0093
1594.00,0.0092
1591.00,0.0094
1588.00,0.0096
1585.00,0.0096
1582.00,0.0096
1579.00,0.0095
1576.00,0.0094
1573.00,0.0094
1570.00,0.0093
1567.00,0.0093
1564.00,0.0093
1561.00,0.0093
1558.00,0.0093
1555.00,0.0092
1552.00,0.0092
1549.00,0.0091
1546.00,0.0091
1543.00,0.0091
1540.00,0.0090
1537.00,0.0090
1534.00,0.0090
1531.00,0.0090
1528.00,0.0090
1525.00,0.0090
1522.00,0.0090
1519.00,0.0090
1516.00,0.0090
1513.00,0.0089
1510.00,0.0090
1507.00,0.0089
1504.00,0.0088
1501.00,0.0087
1498.00,0.0086
1495.00,0.0086
1492.00,0.0088
1489.00,0.0092
1486.00,0.0100
1483.00,0.0109
1480.00,0.0122
1477.00,0.0135
1474.00,0.0150
1471.00,0.0164
1468.00,0.0169
1465.00,0.0173
1462.00,0.0178
1459.00,0.0186
1456.00,0.0198
1453.00,0.0202
1450.00,0.0201
1447.00,0.0193
1444.00,0.0180
1441.00,0.0163
1438.00,0.0146
1435.00,0.0130
1432.00,0.0122
1429.00,0.0117
1426.00,0.0117
1423.00,0.0121
1420.00,0.0132
1417.00,0.0148
1414.00,0.0159
1411.00,0.0166
1408.00,0.0170
1405.00,0.0171
1402.00,0.0169
1399.00,0.0166
1396.00,0.0165
1393.00,0.0166
1390.00,0.0170
1387.00,0.0180
1384.00,0.0192
1381.00,0.0207
1378.00,0.0219
1375.00,0.0228
1372.00,0.0230
1369.00,0.0227
1366.00,0.0218
1363.00,0.0206
1360.00,0.0194
1357.00,0.0185
1354.00,0.0181
1351.00,0.0181
1348.00,0.0184
1345.00,0.0189
1342.00,0.0194
1339.00,0.0199
1336.00,0.0201
1333.00,0.0201
1330.00,0.0199
1327.00,0.0197
1324.00,0.0198
1321.00,0.0202
1318.00,0.0207
1315.00,0.0212
1312.00,0.0215
1309.00,0.0213
1306.00,0.0205
1303.00,0.0194
1300.00,0.0182
1297.00,0.0169
1294.00,0.0155
1291.00,0.0145
1288.00,0.0141
1285.00,0.0141
1282.00,0.0141
1279.00,0.0138
1276.00,0.0134
1273.00,0.0132
1270.00,0.0134
1267.00,0.0138
1264.00,0.0140
1261.00,0.0138
1258.00,0.0136
1255.00,0.0132
1252.00,0.0130
1249.00,0.0129
1246.00,0.0128
1243.00,0.0128
1240.00,0.0127
1237.00,0.0125
1234.00,0.0123
1231.00,0.0122
1228.00,0.0123
1225.00,0.0127
1222.00,0.0136
1219.00,0.0152
1216.00,0.0170
1213.00,0.0186
1210.00,0.0198
1207.00,0.0206
1204.00,0.0216
1201.00,0.0226
1198.00,0.0232
1195.00,0.0236
1192.00,0.0239
1189.00,0.0240
1186.00,0.0238
1183.00,0.0233
1180.00,0.0230
1177.00,0.0230
1174.00,0.0235
1171.00,0.0247
1168.00,0.0268
1165.00,0.0296
1162.00,0.0331
1159.00,0.0367
1156.00,0.0403
1153.00,0.0432
1150.00,0.0453
1147.00,0.0467
1144.00,0.0480
1141.00,0.0497
1138.00,0.0524
1135.00,0.0560
1132.00,0.0609
1129.00,0.0660
1126.00,0.0709
1123.00,0.0752
1120.00,0.0789
1117.00,0.0820
1114.00,0.0844
1111.00,0.0862
1108.00,0.0872
1105.00,0.0880
1102.00,0.0887
1099.00,0.0893
1096.00,0.0898
1093.00,0.0904
1090.00,0.0917
1087.00,0.0944
1084.00,0.0981
1081.00,0.1023
1078.00,0.1069
1075.00,0.1112
1072.00,0.1153
1069.00,0.1193
1066.00,0.1231
1063.00,0.1267
1060.00,0.1297
1057.00,0.1316
1054.00,0.1325
1051.00,0.1324
1048.00,0.1312
1045.00,0.1292
1042.00,0.1267
1039.00,0.1237
1036.00,0.1208
1033.00,0.1179
1030.00,0.1154
1027.00,0.1129
1024.00,0.1102
1021.00,0.1075
1018.00,0.1049
1015.00,0.1025
1012.00,0.1000
1009.00,0.0969
1006.00,0.0928
1003.00,0.0884
1000.00,0.0836
997.00,0.0789
994.00,0.0745
991.00,0.0701
988.00,0.0660
985.00,0.0623
982.00,0.0590
979.00,0.0563
976.00,0.0541
973.00,0.0524
970.00,0.0512
967.00,0.0514
964.00,0.0526
961.00,0.0548
958.00,0.0577
955.00,0.0607
952.00,0.0637
949.00,0.0664
946.00,0.0684
943.00,0.0689
940.00,0.0674
937.00,0.0645
934.00,0.0618
931.00,0.0602
928.00,0.0591
925.00,0.0579
922.00,0.0563
919.00,0.0544
916.00,0.0525
913.00,0.0509
910.00,0.0496
907.00,0.0483
904.00,0.0470
901.00,0.0457
898.00,0.0446
895.00,0.0442
892.00,0.0438
889.00,0.0432
886.00,0.0423
883.00,0.0406
880.00,0.0386
877.00,0.0368
874.00,0.0354
871.00,0.0344
868.00,0.0336
865.00,0.0331
862.00,0.0328
859.00,0.0327
856.00,0.0327
853.00,0.0326
850.00,0.0325
847.00,0.0322
844.00,0.0319
841.00,0.0316
838.00,0.0313
835.00,0.0308
832.00,0.0303
829.00,0.0300
826.00,0.0298
823.00,0.0299
820.00,0.0300
817.00,0.0298
814.00,0.0295
811.00,0.0292
808.00,0.0289
805.00,0.0287
802.00,0.0283
799.00,0.0280
796.00,0.0277
793.00,0.0276
790.00,0.0274
787.00,0.0273
784.00,0.0271
781.00,0.0269
778.00,0.0269
775.00,0.0269
772.00,0.0268
769.00,0.0266
766.00,0.0266
763.00,0.0266
760.00,0.0264
757.00,0.0263
754.00,0.0262
751.00,0.0263
748.00,0.0263
745.00,0.0264
742.00,0.0263
739.00,0.0262
736.00,0.0262
733.00,0.0263
730.00,0.0263
727.00,0.0264
724.00,0.0265
721.00,0.0268
718.00,0.0273
715.00,0.0277
712.00,0.0281
709.00,0.0282
706.00,0.0284
703.00,0.0285
700.00,0.0285
697.00,0.0284
694.00,0.0284
691.00,0.0284
688.00,0.0285
685.00,0.0289
682.00,0.0297
679.00,0.0311
676.00,0.0330
673.00,0.0350
670.00,0.0366
667.00,0.0387
664.00,0.0390
661.00,0.0394
658.00,0.0398
655.00,0.0398
652.00,0.0399
649.00,0.0397
646.00,0.0398
643.00,0.0399
640.00,0.0401
637.00,0.0405
634.00,0.0411
631.00,0.0419
628.00,0.0426
625.00,0.0436
622.00,0.0447
619.00,0.0456
616.00,0.0464
613.00,0.0472
610.00,0.0478
607.00,0.0481
604.00,0.0483
601.00,0.0484
598.00,0.0486
595.00,0.0490
592.00,0.0495
589.00,0.0497
586.00,0.0505
583.00,0.0513
580.00,0.0520
577.00,0.0528
574.00,0.0537
571.00,0.0545
568.00,0.0551
565.00,0.0554
562.00,0.0557
559.00,0.0556
556.00,0.0552
553.00,0.0554
550.00,0.0556
547.00,0.0555
544.00,0.0557
541.00,0.0555
538.00,0.0555
535.00,0.0558
532.00,0.0559
529.00,0.0561
526.00,0.0563
523.00,0.0564
520.00,0.0564
517.00,0.0567
514.00,0.0571
511.00,0.0572
508.00,0.0577
505.00,0.0580
502.00,0.0579
499.00,0.0583
496.00,0.0581
493.00,0.0584
490.00,0.0589
487.00,0.0590
484.00,0.0599
481.00,0.0603
478.00,0.0600
475.00,0.0612
472.00,0.0609
469.00,0.0605
466.00,0.0605
463.00,0.0605
460.00,0.0604
457.00,0.0595
454.00,0.0590
451.00,0.0589
448.00,0.0579
445.00,0.0574
442.00,0.0564
439.00,0.0563
436.00,0.0561
433.00,0.0556
430.00,0.0550
427.00,0.0549
424.00,0.0553
421.00,0.0543
418.00,0.0528
415.00,0.0529
412.00,0.0541
409.00,0.0532
406.00,0.0535
403.00,0.0532
400.00,0.0536