File: FTIR/Clancy/HPMC_polymer_v2600_5600_ECE_scan2.csv
Created as New Dataset,Sample 287 By YargerLab Date Saturday, October 18 2025
cm-1,A
4000.00,0.0075
3997.00,0.0075
3994.00,0.0075
3991.00,0.0075
3988.00,0.0075
3985.00,0.0075
3982.00,0.0075
3979.00,0.0075
3976.00,0.0075
3973.00,0.0075
3970.00,0.0074
3967.00,0.0075
3964.00,0.0075
3961.00,0.0075
3958.00,0.0075
3955.00,0.0075
3952.00,0.0075
3949.00,0.0074
3946.00,0.0075
3943.00,0.0075
3940.00,0.0074
3937.00,0.0074
3934.00,0.0074
3931.00,0.0074
3928.00,0.0074
3925.00,0.0074
3922.00,0.0074
3919.00,0.0073
3916.00,0.0073
3913.00,0.0074
3910.00,0.0074
3907.00,0.0074
3904.00,0.0073
3901.00,0.0073
3898.00,0.0073
3895.00,0.0073
3892.00,0.0073
3889.00,0.0073
3886.00,0.0073
3883.00,0.0073
3880.00,0.0073
3877.00,0.0073
3874.00,0.0073
3871.00,0.0072
3868.00,0.0073
3865.00,0.0072
3862.00,0.0072
3859.00,0.0072
3856.00,0.0072
3853.00,0.0073
3850.00,0.0073
3847.00,0.0073
3844.00,0.0072
3841.00,0.0072
3838.00,0.0072
3835.00,0.0072
3832.00,0.0072
3829.00,0.0072
3826.00,0.0073
3823.00,0.0072
3820.00,0.0072
3817.00,0.0072
3814.00,0.0072
3811.00,0.0072
3808.00,0.0072
3805.00,0.0072
3802.00,0.0073
3799.00,0.0072
3796.00,0.0072
3793.00,0.0072
3790.00,0.0072
3787.00,0.0072
3784.00,0.0072
3781.00,0.0073
3778.00,0.0072
3775.00,0.0072
3772.00,0.0072
3769.00,0.0071
3766.00,0.0071
3763.00,0.0072
3760.00,0.0072
3757.00,0.0072
3754.00,0.0072
3751.00,0.0072
3748.00,0.0072
3745.00,0.0071
3742.00,0.0071
3739.00,0.0071
3736.00,0.0071
3733.00,0.0070
3730.00,0.0070
3727.00,0.0070
3724.00,0.0070
3721.00,0.0071
3718.00,0.0071
3715.00,0.0071
3712.00,0.0070
3709.00,0.0070
3706.00,0.0070
3703.00,0.0070
3700.00,0.0070
3697.00,0.0069
3694.00,0.0070
3691.00,0.0070
3688.00,0.0070
3685.00,0.0069
3682.00,0.0069
3679.00,0.0070
3676.00,0.0070
3673.00,0.0070
3670.00,0.0070
3667.00,0.0071
3664.00,0.0072
3661.00,0.0072
3658.00,0.0072
3655.00,0.0072
3652.00,0.0073
3649.00,0.0072
3646.00,0.0073
3643.00,0.0074
3640.00,0.0075
3637.00,0.0075
3634.00,0.0076
3631.00,0.0076
3628.00,0.0077
3625.00,0.0077
3622.00,0.0078
3619.00,0.0079
3616.00,0.0081
3613.00,0.0082
3610.00,0.0083
3607.00,0.0085
3604.00,0.0084
3601.00,0.0085
3598.00,0.0086
3595.00,0.0087
3592.00,0.0089
3589.00,0.0089
3586.00,0.0091
3583.00,0.0092
3580.00,0.0094
3577.00,0.0095
3574.00,0.0096
3571.00,0.0097
3568.00,0.0098
3565.00,0.0101
3562.00,0.0102
3559.00,0.0104
3556.00,0.0106
3553.00,0.0108
3550.00,0.0110
3547.00,0.0112
3544.00,0.0115
3541.00,0.0118
3538.00,0.0120
3535.00,0.0123
3532.00,0.0126
3529.00,0.0129
3526.00,0.0133
3523.00,0.0136
3520.00,0.0140
3517.00,0.0143
3514.00,0.0147
3511.00,0.0152
3508.00,0.0156
3505.00,0.0160
3502.00,0.0164
3499.00,0.0169
3496.00,0.0174
3493.00,0.0179
3490.00,0.0182
3487.00,0.0187
3484.00,0.0191
3481.00,0.0194
3478.00,0.0197
3475.00,0.0199
3472.00,0.0202
3469.00,0.0203
3466.00,0.0204
3463.00,0.0205
3460.00,0.0205
3457.00,0.0205
3454.00,0.0204
3451.00,0.0203
3448.00,0.0202
3445.00,0.0201
3442.00,0.0200
3439.00,0.0198
3436.00,0.0196
3433.00,0.0194
3430.00,0.0192
3427.00,0.0190
3424.00,0.0188
3421.00,0.0186
3418.00,0.0184
3415.00,0.0182
3412.00,0.0179
3409.00,0.0177
3406.00,0.0176
3403.00,0.0174
3400.00,0.0171
3397.00,0.0169
3394.00,0.0167
3391.00,0.0165
3388.00,0.0163
3385.00,0.0161
3382.00,0.0159
3379.00,0.0157
3376.00,0.0155
3373.00,0.0153
3370.00,0.0151
3367.00,0.0148
3364.00,0.0146
3361.00,0.0144
3358.00,0.0142
3355.00,0.0140
3352.00,0.0139
3349.00,0.0137
3346.00,0.0135
3343.00,0.0133
3340.00,0.0132
3337.00,0.0130
3334.00,0.0129
3331.00,0.0127
3328.00,0.0126
3325.00,0.0124
3322.00,0.0123
3319.00,0.0122
3316.00,0.0120
3313.00,0.0118
3310.00,0.0117
3307.00,0.0116
3304.00,0.0115
3301.00,0.0114
3298.00,0.0113
3295.00,0.0112
3292.00,0.0111
3289.00,0.0110
3286.00,0.0110
3283.00,0.0109
3280.00,0.0108
3277.00,0.0107
3274.00,0.0106
3271.00,0.0106
3268.00,0.0105
3265.00,0.0104
3262.00,0.0103
3259.00,0.0102
3256.00,0.0101
3253.00,0.0101
3250.00,0.0100
3247.00,0.0099
3244.00,0.0099
3241.00,0.0098
3238.00,0.0097
3235.00,0.0096
3232.00,0.0095
3229.00,0.0095
3226.00,0.0094
3223.00,0.0094
3220.00,0.0093
3217.00,0.0093
3214.00,0.0092
3211.00,0.0092
3208.00,0.0091
3205.00,0.0091
3202.00,0.0090
3199.00,0.0089
3196.00,0.0089
3193.00,0.0089
3190.00,0.0088
3187.00,0.0088
3184.00,0.0088
3181.00,0.0087
3178.00,0.0087
3175.00,0.0087
3172.00,0.0087
3169.00,0.0087
3166.00,0.0086
3163.00,0.0086
3160.00,0.0086
3157.00,0.0085
3154.00,0.0085
3151.00,0.0085
3148.00,0.0085
3145.00,0.0084
3142.00,0.0084
3139.00,0.0084
3136.00,0.0084
3133.00,0.0084
3130.00,0.0084
3127.00,0.0084
3124.00,0.0084
3121.00,0.0083
3118.00,0.0083
3115.00,0.0083
3112.00,0.0083
3109.00,0.0083
3106.00,0.0083
3103.00,0.0083
3100.00,0.0083
3097.00,0.0084
3094.00,0.0084
3091.00,0.0083
3088.00,0.0083
3085.00,0.0083
3082.00,0.0083
3079.00,0.0083
3076.00,0.0083
3073.00,0.0084
3070.00,0.0083
3067.00,0.0084
3064.00,0.0084
3061.00,0.0084
3058.00,0.0084
3055.00,0.0084
3052.00,0.0084
3049.00,0.0084
3046.00,0.0084
3043.00,0.0084
3040.00,0.0084
3037.00,0.0085
3034.00,0.0085
3031.00,0.0086
3028.00,0.0086
3025.00,0.0087
3022.00,0.0088
3019.00,0.0089
3016.00,0.0091
3013.00,0.0094
3010.00,0.0097
3007.00,0.0101
3004.00,0.0107
3001.00,0.0112
2998.00,0.0119
2995.00,0.0128
2992.00,0.0136
2989.00,0.0145
2986.00,0.0152
2983.00,0.0157
2980.00,0.0162
2977.00,0.0166
2974.00,0.0168
2971.00,0.0169
2968.00,0.0170
2965.00,0.0172
2962.00,0.0176
2959.00,0.0181
2956.00,0.0188
2953.00,0.0196
2950.00,0.0206
2947.00,0.0218
2944.00,0.0232
2941.00,0.0246
2938.00,0.0258
2935.00,0.0268
2932.00,0.0273
2929.00,0.0276
2926.00,0.0279
2923.00,0.0281
2920.00,0.0283
2917.00,0.0287
2914.00,0.0291
2911.00,0.0294
2908.00,0.0298
2905.00,0.0301
2902.00,0.0303
2899.00,0.0303
2896.00,0.0302
2893.00,0.0300
2890.00,0.0298
2887.00,0.0295
2884.00,0.0291
2881.00,0.0287
2878.00,0.0283
2875.00,0.0277
2872.00,0.0270
2869.00,0.0261
2866.00,0.0252
2863.00,0.0243
2860.00,0.0235
2857.00,0.0229
2854.00,0.0226
2851.00,0.0227
2848.00,0.0230
2845.00,0.0236
2842.00,0.0245
2839.00,0.0252
2836.00,0.0256
2833.00,0.0256
2830.00,0.0250
2827.00,0.0243
2824.00,0.0236
2821.00,0.0230
2818.00,0.0224
2815.00,0.0217
2812.00,0.0207
2809.00,0.0195
2806.00,0.0181
2803.00,0.0167
2800.00,0.0156
2797.00,0.0149
2794.00,0.0144
2791.00,0.0140
2788.00,0.0136
2785.00,0.0134
2782.00,0.0132
2779.00,0.0130
2776.00,0.0128
2773.00,0.0127
2770.00,0.0126
2767.00,0.0125
2764.00,0.0124
2761.00,0.0123
2758.00,0.0122
2755.00,0.0121
2752.00,0.0121
2749.00,0.0120
2746.00,0.0120
2743.00,0.0119
2740.00,0.0119
2737.00,0.0118
2734.00,0.0117
2731.00,0.0117
2728.00,0.0116
2725.00,0.0115
2722.00,0.0115
2719.00,0.0115
2716.00,0.0114
2713.00,0.0113
2710.00,0.0112
2707.00,0.0112
2704.00,0.0112
2701.00,0.0111
2698.00,0.0110
2695.00,0.0110
2692.00,0.0110
2689.00,0.0110
2686.00,0.0110
2683.00,0.0109
2680.00,0.0109
2677.00,0.0109
2674.00,0.0108
2671.00,0.0109
2668.00,0.0109
2665.00,0.0111
2662.00,0.0111
2659.00,0.0112
2656.00,0.0112
2653.00,0.0112
2650.00,0.0113
2647.00,0.0112
2644.00,0.0112
2641.00,0.0112
2638.00,0.0111
2635.00,0.0111
2632.00,0.0111
2629.00,0.0111
2626.00,0.0111
2623.00,0.0110
2620.00,0.0110
2617.00,0.0110
2614.00,0.0110
2611.00,0.0109
2608.00,0.0109
2605.00,0.0109
2602.00,0.0109
2599.00,0.0109
2596.00,0.0108
2593.00,0.0108
2590.00,0.0108
2587.00,0.0107
2584.00,0.0107
2581.00,0.0106
2578.00,0.0105
2575.00,0.0105
2572.00,0.0105
2569.00,0.0104
2566.00,0.0104
2563.00,0.0104
2560.00,0.0104
2557.00,0.0103
2554.00,0.0103
2551.00,0.0103
2548.00,0.0102
2545.00,0.0102
2542.00,0.0101
2539.00,0.0101
2536.00,0.0101
2533.00,0.0101
2530.00,0.0101
2527.00,0.0101
2524.00,0.0100
2521.00,0.0100
2518.00,0.0100
2515.00,0.0101
2512.00,0.0100
2509.00,0.0100
2506.00,0.0099
2503.00,0.0100
2500.00,0.0099
2497.00,0.0100
2494.00,0.0100
2491.00,0.0100
2488.00,0.0099
2485.00,0.0099
2482.00,0.0099
2479.00,0.0099
2476.00,0.0099
2473.00,0.0099
2470.00,0.0099
2467.00,0.0100
2464.00,0.0100
2461.00,0.0100
2458.00,0.0100
2455.00,0.0101
2452.00,0.0100
2449.00,0.0100
2446.00,0.0100
2443.00,0.0099
2440.00,0.0099
2437.00,0.0099
2434.00,0.0098
2431.00,0.0098
2428.00,0.0098
2425.00,0.0099
2422.00,0.0098
2419.00,0.0098
2416.00,0.0098
2413.00,0.0098
2410.00,0.0098
2407.00,0.0097
2404.00,0.0097
2401.00,0.0097
2398.00,0.0097
2395.00,0.0096
2392.00,0.0097
2389.00,0.0096
2386.00,0.0094
2383.00,0.0092
2380.00,0.0091
2377.00,0.0091
2374.00,0.0092
2371.00,0.0092
2368.00,0.0091
2365.00,0.0091
2362.00,0.0092
2359.00,0.0094
2356.00,0.0094
2353.00,0.0093
2350.00,0.0093
2347.00,0.0093
2344.00,0.0095
2341.00,0.0096
2338.00,0.0096
2335.00,0.0097
2332.00,0.0096
2329.00,0.0098
2326.00,0.0108
2323.00,0.0106
2320.00,0.0102
2317.00,0.0100
2314.00,0.0098
2311.00,0.0097
2308.00,0.0098
2305.00,0.0099
2302.00,0.0099
2299.00,0.0100
2296.00,0.0103
2293.00,0.0106
2290.00,0.0108
2287.00,0.0108
2284.00,0.0106
2281.00,0.0105
2278.00,0.0104
2275.00,0.0102
2272.00,0.0102
2269.00,0.0102
2266.00,0.0100
2263.00,0.0099
2260.00,0.0101
2257.00,0.0101
2254.00,0.0098
2251.00,0.0098
2248.00,0.0097
2245.00,0.0099
2242.00,0.0100
2239.00,0.0099
2236.00,0.0098
2233.00,0.0097
2230.00,0.0097
2227.00,0.0099
2224.00,0.0099
2221.00,0.0097
2218.00,0.0097
2215.00,0.0098
2212.00,0.0098
2209.00,0.0098
2206.00,0.0097
2203.00,0.0098
2200.00,0.0097
2197.00,0.0096
2194.00,0.0099
2191.00,0.0100
2188.00,0.0099
2185.00,0.0095
2182.00,0.0092
2179.00,0.0094
2176.00,0.0091
2173.00,0.0096
2170.00,0.0102
2167.00,0.0102
2164.00,0.0105
2161.00,0.0090
2158.00,0.0062
2155.00,0.0070
2152.00,0.0079
2149.00,0.0078
2146.00,0.0076
2143.00,0.0079
2140.00,0.0081
2137.00,0.0080
2134.00,0.0078
2131.00,0.0081
2128.00,0.0087
2125.00,0.0090
2122.00,0.0091
2119.00,0.0094
2116.00,0.0097
2113.00,0.0098
2110.00,0.0096
2107.00,0.0097
2104.00,0.0098
2101.00,0.0097
2098.00,0.0096
2095.00,0.0094
2092.00,0.0096
2089.00,0.0097
2086.00,0.0098
2083.00,0.0097
2080.00,0.0099
2077.00,0.0099
2074.00,0.0098
2071.00,0.0097
2068.00,0.0095
2065.00,0.0095
2062.00,0.0096
2059.00,0.0097
2056.00,0.0096
2053.00,0.0104
2050.00,0.0104
2047.00,0.0095
2044.00,0.0094
2041.00,0.0092
2038.00,0.0091
2035.00,0.0086
2032.00,0.0082
2029.00,0.0083
2026.00,0.0081
2023.00,0.0079
2020.00,0.0081
2017.00,0.0084
2014.00,0.0082
2011.00,0.0080
2008.00,0.0081
2005.00,0.0081
2002.00,0.0084
1999.00,0.0088
1996.00,0.0088
1993.00,0.0087
1990.00,0.0089
1987.00,0.0091
1984.00,0.0095
1981.00,0.0102
1978.00,0.0091
1975.00,0.0081
1972.00,0.0081
1969.00,0.0083
1966.00,0.0081
1963.00,0.0081
1960.00,0.0079
1957.00,0.0084
1954.00,0.0089
1951.00,0.0086
1948.00,0.0086
1945.00,0.0085
1942.00,0.0085
1939.00,0.0088
1936.00,0.0087
1933.00,0.0087
1930.00,0.0087
1927.00,0.0088
1924.00,0.0090
1921.00,0.0092
1918.00,0.0090
1915.00,0.0090
1912.00,0.0090
1909.00,0.0089
1906.00,0.0089
1903.00,0.0090
1900.00,0.0091
1897.00,0.0090
1894.00,0.0090
1891.00,0.0090
1888.00,0.0090
1885.00,0.0090
1882.00,0.0091
1879.00,0.0090
1876.00,0.0090
1873.00,0.0091
1870.00,0.0091
1867.00,0.0092
1864.00,0.0093
1861.00,0.0092
1858.00,0.0092
1855.00,0.0093
1852.00,0.0093
1849.00,0.0092
1846.00,0.0093
1843.00,0.0093
1840.00,0.0093
1837.00,0.0093
1834.00,0.0092
1831.00,0.0093
1828.00,0.0094
1825.00,0.0095
1822.00,0.0094
1819.00,0.0093
1816.00,0.0093
1813.00,0.0094
1810.00,0.0095
1807.00,0.0097
1804.00,0.0097
1801.00,0.0096
1798.00,0.0097
1795.00,0.0097
1792.00,0.0097
1789.00,0.0097
1786.00,0.0097
1783.00,0.0097
1780.00,0.0098
1777.00,0.0097
1774.00,0.0097
1771.00,0.0098
1768.00,0.0098
1765.00,0.0098
1762.00,0.0098
1759.00,0.0099
1756.00,0.0099
1753.00,0.0098
1750.00,0.0098
1747.00,0.0099
1744.00,0.0099
1741.00,0.0100
1738.00,0.0100
1735.00,0.0100
1732.00,0.0101
1729.00,0.0101
1726.00,0.0101
1723.00,0.0100
1720.00,0.0099
1717.00,0.0097
1714.00,0.0097
1711.00,0.0096
1708.00,0.0093
1705.00,0.0090
1702.00,0.0085
1699.00,0.0076
1696.00,0.0065
1693.00,0.0051
1690.00,0.0038
1687.00,0.0026
1684.00,0.0014
1681.00,0.0009
1678.00,0.0007
1675.00,0.0009
1672.00,0.0011
1669.00,0.0013
1666.00,0.0015
1663.00,0.0019
1660.00,0.0025
1657.00,0.0034
1654.00,0.0045
1651.00,0.0062
1648.00,0.0073
1645.00,0.0088
1642.00,0.0098
1639.00,0.0105
1636.00,0.0111
1633.00,0.0115
1630.00,0.0117
1627.00,0.0118
1624.00,0.0119
1621.00,0.0119
1618.00,0.0117
1615.00,0.0117
1612.00,0.0117
1609.00,0.0116
1606.00,0.0115
1603.00,0.0113
1600.00,0.0111
1597.00,0.0109
1594.00,0.0108
1591.00,0.0110
1588.00,0.0112
1585.00,0.0112
1582.00,0.0112
1579.00,0.0112
1576.00,0.0111
1573.00,0.0111
1570.00,0.0111
1567.00,0.0111
1564.00,0.0111
1561.00,0.0111
1558.00,0.0110
1555.00,0.0110
1552.00,0.0108
1549.00,0.0108
1546.00,0.0108
1543.00,0.0108
1540.00,0.0108
1537.00,0.0108
1534.00,0.0107
1531.00,0.0107
1528.00,0.0107
1525.00,0.0107
1522.00,0.0107
1519.00,0.0107
1516.00,0.0107
1513.00,0.0107
1510.00,0.0107
1507.00,0.0107
1504.00,0.0106
1501.00,0.0104
1498.00,0.0103
1495.00,0.0104
1492.00,0.0107
1489.00,0.0115
1486.00,0.0126
1483.00,0.0140
1480.00,0.0159
1477.00,0.0179
1474.00,0.0200
1471.00,0.0221
1468.00,0.0228
1465.00,0.0233
1462.00,0.0241
1459.00,0.0249
1456.00,0.0269
1453.00,0.0273
1450.00,0.0270
1447.00,0.0258
1444.00,0.0239
1441.00,0.0214
1438.00,0.0190
1435.00,0.0169
1432.00,0.0156
1429.00,0.0150
1426.00,0.0150
1423.00,0.0158
1420.00,0.0172
1417.00,0.0196
1414.00,0.0209
1411.00,0.0218
1408.00,0.0223
1405.00,0.0223
1402.00,0.0221
1399.00,0.0217
1396.00,0.0216
1393.00,0.0219
1390.00,0.0225
1387.00,0.0239
1384.00,0.0258
1381.00,0.0278
1378.00,0.0295
1375.00,0.0306
1372.00,0.0311
1369.00,0.0305
1366.00,0.0290
1363.00,0.0272
1360.00,0.0255
1357.00,0.0243
1354.00,0.0238
1351.00,0.0239
1348.00,0.0244
1345.00,0.0251
1342.00,0.0258
1339.00,0.0266
1336.00,0.0270
1333.00,0.0269
1330.00,0.0266
1327.00,0.0264
1324.00,0.0266
1321.00,0.0271
1318.00,0.0279
1315.00,0.0286
1312.00,0.0290
1309.00,0.0285
1306.00,0.0274
1303.00,0.0258
1300.00,0.0240
1297.00,0.0221
1294.00,0.0204
1291.00,0.0192
1288.00,0.0187
1285.00,0.0187
1282.00,0.0186
1279.00,0.0181
1276.00,0.0176
1273.00,0.0173
1270.00,0.0176
1267.00,0.0181
1264.00,0.0183
1261.00,0.0180
1258.00,0.0176
1255.00,0.0171
1252.00,0.0168
1249.00,0.0166
1246.00,0.0165
1243.00,0.0165
1240.00,0.0164
1237.00,0.0162
1234.00,0.0160
1231.00,0.0159
1228.00,0.0161
1225.00,0.0168
1222.00,0.0183
1219.00,0.0205
1216.00,0.0233
1213.00,0.0256
1210.00,0.0273
1207.00,0.0286
1204.00,0.0300
1201.00,0.0314
1198.00,0.0323
1195.00,0.0327
1192.00,0.0330
1189.00,0.0332
1186.00,0.0329
1183.00,0.0323
1180.00,0.0318
1177.00,0.0319
1174.00,0.0328
1171.00,0.0346
1168.00,0.0376
1165.00,0.0417
1162.00,0.0465
1159.00,0.0517
1156.00,0.0567
1153.00,0.0609
1150.00,0.0639
1147.00,0.0659
1144.00,0.0677
1141.00,0.0703
1138.00,0.0741
1135.00,0.0794
1132.00,0.0862
1129.00,0.0935
1126.00,0.1005
1123.00,0.1066
1120.00,0.1121
1117.00,0.1167
1114.00,0.1203
1111.00,0.1229
1108.00,0.1247
1105.00,0.1259
1102.00,0.1269
1099.00,0.1277
1096.00,0.1283
1093.00,0.1292
1090.00,0.1311
1087.00,0.1348
1084.00,0.1401
1081.00,0.1464
1078.00,0.1529
1075.00,0.1592
1072.00,0.1652
1069.00,0.1709
1066.00,0.1765
1063.00,0.1817
1060.00,0.1859
1057.00,0.1887
1054.00,0.1899
1051.00,0.1896
1048.00,0.1880
1045.00,0.1849
1042.00,0.1809
1039.00,0.1763
1036.00,0.1719
1033.00,0.1677
1030.00,0.1636
1027.00,0.1596
1024.00,0.1558
1021.00,0.1518
1018.00,0.1481
1015.00,0.1444
1012.00,0.1404
1009.00,0.1355
1006.00,0.1292
1003.00,0.1222
1000.00,0.1151
997.00,0.1079
994.00,0.1011
991.00,0.0946
988.00,0.0886
985.00,0.0832
982.00,0.0784
979.00,0.0745
976.00,0.0713
973.00,0.0691
970.00,0.0677
967.00,0.0680
964.00,0.0702
961.00,0.0737
958.00,0.0780
955.00,0.0827
952.00,0.0870
949.00,0.0908
946.00,0.0935
943.00,0.0939
940.00,0.0915
937.00,0.0871
934.00,0.0830
931.00,0.0806
928.00,0.0790
925.00,0.0772
922.00,0.0748
919.00,0.0719
916.00,0.0690
913.00,0.0666
910.00,0.0647
907.00,0.0628
904.00,0.0608
901.00,0.0588
898.00,0.0573
895.00,0.0566
892.00,0.0561
889.00,0.0552
886.00,0.0536
883.00,0.0510
880.00,0.0480
877.00,0.0454
874.00,0.0433
871.00,0.0418
868.00,0.0408
865.00,0.0402
862.00,0.0398
859.00,0.0398
856.00,0.0398
853.00,0.0398
850.00,0.0396
847.00,0.0392
844.00,0.0387
841.00,0.0384
838.00,0.0381
835.00,0.0373
832.00,0.0365
829.00,0.0360
826.00,0.0359
823.00,0.0359
820.00,0.0360
817.00,0.0358
814.00,0.0354
811.00,0.0350
808.00,0.0347
805.00,0.0344
802.00,0.0339
799.00,0.0334
796.00,0.0331
793.00,0.0328
790.00,0.0326
787.00,0.0324
784.00,0.0322
781.00,0.0321
778.00,0.0319
775.00,0.0318
772.00,0.0317
769.00,0.0317
766.00,0.0316
763.00,0.0315
760.00,0.0314
757.00,0.0313
754.00,0.0312
751.00,0.0313
748.00,0.0312
745.00,0.0313
742.00,0.0313
739.00,0.0314
736.00,0.0314
733.00,0.0314
730.00,0.0316
727.00,0.0316
724.00,0.0319
721.00,0.0324
718.00,0.0331
715.00,0.0337
712.00,0.0344
709.00,0.0348
706.00,0.0349
703.00,0.0351
700.00,0.0352
697.00,0.0351
694.00,0.0350
691.00,0.0350
688.00,0.0353
685.00,0.0360
682.00,0.0373
679.00,0.0394
676.00,0.0425
673.00,0.0454
670.00,0.0474
667.00,0.0506
664.00,0.0511
661.00,0.0517
658.00,0.0520
655.00,0.0520
652.00,0.0520
649.00,0.0520
646.00,0.0519
643.00,0.0520
640.00,0.0523
637.00,0.0530
634.00,0.0538
631.00,0.0549
628.00,0.0559
625.00,0.0574
622.00,0.0587
619.00,0.0600
616.00,0.0615
613.00,0.0625
610.00,0.0631
607.00,0.0637
604.00,0.0639
601.00,0.0641
598.00,0.0645
595.00,0.0646
592.00,0.0653
589.00,0.0663
586.00,0.0671
583.00,0.0681
580.00,0.0691
577.00,0.0705
574.00,0.0719
571.00,0.0727
568.00,0.0734
565.00,0.0742
562.00,0.0742
559.00,0.0738
556.00,0.0734
553.00,0.0736
550.00,0.0735
547.00,0.0735
544.00,0.0739
541.00,0.0739
538.00,0.0735
535.00,0.0736
532.00,0.0740
529.00,0.0744
526.00,0.0743
523.00,0.0744
520.00,0.0750
517.00,0.0754
514.00,0.0756
511.00,0.0758
508.00,0.0763
505.00,0.0763
502.00,0.0766
499.00,0.0766
496.00,0.0768
493.00,0.0771
490.00,0.0771
487.00,0.0772
484.00,0.0788
481.00,0.0794
478.00,0.0793
475.00,0.0801
472.00,0.0804
469.00,0.0805
466.00,0.0801
463.00,0.0794
460.00,0.0786
457.00,0.0782
454.00,0.0770
451.00,0.0764
448.00,0.0750
445.00,0.0741
442.00,0.0726
439.00,0.0728
436.00,0.0726
433.00,0.0724
430.00,0.0717
427.00,0.0705
424.00,0.0708
421.00,0.0709
418.00,0.0701
415.00,0.0694
412.00,0.0689
409.00,0.0675
406.00,0.0671
403.00,0.0658
400.00,0.0685