File: FTIR/Mary/Jul3/2025_07_03_Polystyrene_Std_MEL_Scan1.csv
Created as New Dataset,Sample 760 By YargerLab Date Tuesday, July 01 2025
cm-1,A
4000.00,0.0018
3997.00,0.0018
3994.00,0.0018
3991.00,0.0018
3988.00,0.0018
3985.00,0.0018
3982.00,0.0018
3979.00,0.0018
3976.00,0.0018
3973.00,0.0018
3970.00,0.0018
3967.00,0.0017
3964.00,0.0018
3961.00,0.0018
3958.00,0.0018
3955.00,0.0018
3952.00,0.0018
3949.00,0.0019
3946.00,0.0019
3943.00,0.0018
3940.00,0.0018
3937.00,0.0019
3934.00,0.0020
3931.00,0.0019
3928.00,0.0019
3925.00,0.0018
3922.00,0.0020
3919.00,0.0022
3916.00,0.0021
3913.00,0.0019
3910.00,0.0018
3907.00,0.0018
3904.00,0.0022
3901.00,0.0024
3898.00,0.0021
3895.00,0.0021
3892.00,0.0021
3889.00,0.0022
3886.00,0.0023
3883.00,0.0021
3880.00,0.0021
3877.00,0.0022
3874.00,0.0020
3871.00,0.0024
3868.00,0.0025
3865.00,0.0025
3862.00,0.0024
3859.00,0.0023
3856.00,0.0019
3853.00,0.0022
3850.00,0.0023
3847.00,0.0023
3844.00,0.0022
3841.00,0.0024
3838.00,0.0024
3835.00,0.0024
3832.00,0.0024
3829.00,0.0023
3826.00,0.0022
3823.00,0.0024
3820.00,0.0024
3817.00,0.0025
3814.00,0.0021
3811.00,0.0021
3808.00,0.0022
3805.00,0.0024
3802.00,0.0023
3799.00,0.0023
3796.00,0.0022
3793.00,0.0020
3790.00,0.0019
3787.00,0.0019
3784.00,0.0019
3781.00,0.0019
3778.00,0.0020
3775.00,0.0020
3772.00,0.0020
3769.00,0.0021
3766.00,0.0022
3763.00,0.0022
3760.00,0.0022
3757.00,0.0023
3754.00,0.0025
3751.00,0.0030
3748.00,0.0031
3745.00,0.0029
3742.00,0.0028
3739.00,0.0030
3736.00,0.0031
3733.00,0.0030
3730.00,0.0026
3727.00,0.0025
3724.00,0.0024
3721.00,0.0023
3718.00,0.0021
3715.00,0.0022
3712.00,0.0023
3709.00,0.0023
3706.00,0.0021
3703.00,0.0020
3700.00,0.0019
3697.00,0.0020
3694.00,0.0021
3691.00,0.0021
3688.00,0.0024
3685.00,0.0022
3682.00,0.0022
3679.00,0.0022
3676.00,0.0024
3673.00,0.0027
3670.00,0.0027
3667.00,0.0023
3664.00,0.0021
3661.00,0.0020
3658.00,0.0022
3655.00,0.0024
3652.00,0.0027
3649.00,0.0030
3646.00,0.0027
3643.00,0.0024
3640.00,0.0022
3637.00,0.0022
3634.00,0.0023
3631.00,0.0026
3628.00,0.0028
3625.00,0.0027
3622.00,0.0025
3619.00,0.0025
3616.00,0.0028
3613.00,0.0029
3610.00,0.0031
3607.00,0.0027
3604.00,0.0025
3601.00,0.0024
3598.00,0.0025
3595.00,0.0026
3592.00,0.0027
3589.00,0.0028
3586.00,0.0026
3583.00,0.0026
3580.00,0.0024
3577.00,0.0024
3574.00,0.0024
3571.00,0.0026
3568.00,0.0029
3565.00,0.0029
3562.00,0.0028
3559.00,0.0026
3556.00,0.0026
3553.00,0.0026
3550.00,0.0028
3547.00,0.0030
3544.00,0.0029
3541.00,0.0028
3538.00,0.0028
3535.00,0.0028
3532.00,0.0029
3529.00,0.0029
3526.00,0.0030
3523.00,0.0030
3520.00,0.0029
3517.00,0.0029
3514.00,0.0030
3511.00,0.0030
3508.00,0.0030
3505.00,0.0030
3502.00,0.0030
3499.00,0.0030
3496.00,0.0030
3493.00,0.0031
3490.00,0.0031
3487.00,0.0032
3484.00,0.0031
3481.00,0.0031
3478.00,0.0032
3475.00,0.0032
3472.00,0.0032
3469.00,0.0032
3466.00,0.0032
3463.00,0.0032
3460.00,0.0032
3457.00,0.0031
3454.00,0.0032
3451.00,0.0032
3448.00,0.0032
3445.00,0.0033
3442.00,0.0034
3439.00,0.0034
3436.00,0.0034
3433.00,0.0033
3430.00,0.0032
3427.00,0.0032
3424.00,0.0033
3421.00,0.0033
3418.00,0.0033
3415.00,0.0033
3412.00,0.0033
3409.00,0.0033
3406.00,0.0033
3403.00,0.0034
3400.00,0.0034
3397.00,0.0034
3394.00,0.0034
3391.00,0.0034
3388.00,0.0033
3385.00,0.0034
3382.00,0.0034
3379.00,0.0033
3376.00,0.0033
3373.00,0.0033
3370.00,0.0034
3367.00,0.0033
3364.00,0.0033
3361.00,0.0033
3358.00,0.0033
3355.00,0.0033
3352.00,0.0032
3349.00,0.0032
3346.00,0.0032
3343.00,0.0032
3340.00,0.0032
3337.00,0.0031
3334.00,0.0031
3331.00,0.0030
3328.00,0.0031
3325.00,0.0031
3322.00,0.0031
3319.00,0.0030
3316.00,0.0030
3313.00,0.0030
3310.00,0.0031
3307.00,0.0031
3304.00,0.0030
3301.00,0.0030
3298.00,0.0030
3295.00,0.0030
3292.00,0.0030
3289.00,0.0030
3286.00,0.0030
3283.00,0.0029
3280.00,0.0029
3277.00,0.0029
3274.00,0.0030
3271.00,0.0029
3268.00,0.0029
3265.00,0.0029
3262.00,0.0029
3259.00,0.0029
3256.00,0.0028
3253.00,0.0028
3250.00,0.0028
3247.00,0.0029
3244.00,0.0028
3241.00,0.0028
3238.00,0.0028
3235.00,0.0028
3232.00,0.0028
3229.00,0.0027
3226.00,0.0027
3223.00,0.0027
3220.00,0.0027
3217.00,0.0027
3214.00,0.0027
3211.00,0.0027
3208.00,0.0027
3205.00,0.0026
3202.00,0.0026
3199.00,0.0026
3196.00,0.0026
3193.00,0.0026
3190.00,0.0026
3187.00,0.0025
3184.00,0.0025
3181.00,0.0025
3178.00,0.0025
3175.00,0.0025
3172.00,0.0025
3169.00,0.0025
3166.00,0.0025
3163.00,0.0025
3160.00,0.0025
3157.00,0.0025
3154.00,0.0025
3151.00,0.0024
3148.00,0.0024
3145.00,0.0024
3142.00,0.0023
3139.00,0.0024
3136.00,0.0023
3133.00,0.0023
3130.00,0.0023
3127.00,0.0023
3124.00,0.0024
3121.00,0.0024
3118.00,0.0025
3115.00,0.0026
3112.00,0.0028
3109.00,0.0031
3106.00,0.0034
3103.00,0.0036
3100.00,0.0036
3097.00,0.0035
3094.00,0.0035
3091.00,0.0040
3088.00,0.0050
3085.00,0.0062
3082.00,0.0068
3079.00,0.0063
3076.00,0.0055
3073.00,0.0052
3070.00,0.0055
3067.00,0.0063
3064.00,0.0074
3061.00,0.0085
3058.00,0.0085
3055.00,0.0074
3052.00,0.0063
3049.00,0.0055
3046.00,0.0051
3043.00,0.0051
3040.00,0.0056
3037.00,0.0066
3034.00,0.0083
3031.00,0.0110
3028.00,0.0140
3025.00,0.0154
3022.00,0.0138
3019.00,0.0102
3016.00,0.0072
3013.00,0.0056
3010.00,0.0048
3007.00,0.0047
3004.00,0.0050
3001.00,0.0052
2998.00,0.0048
2995.00,0.0041
2992.00,0.0035
2989.00,0.0032
2986.00,0.0032
2983.00,0.0032
2980.00,0.0032
2977.00,0.0033
2974.00,0.0034
2971.00,0.0035
2968.00,0.0037
2965.00,0.0040
2962.00,0.0043
2959.00,0.0046
2956.00,0.0050
2953.00,0.0056
2950.00,0.0063
2947.00,0.0072
2944.00,0.0083
2941.00,0.0095
2938.00,0.0111
2935.00,0.0128
2932.00,0.0148
2929.00,0.0165
2926.00,0.0178
2923.00,0.0186
2920.00,0.0186
2917.00,0.0181
2914.00,0.0171
2911.00,0.0159
2908.00,0.0145
2905.00,0.0132
2902.00,0.0119
2899.00,0.0106
2896.00,0.0094
2893.00,0.0086
2890.00,0.0079
2887.00,0.0074
2884.00,0.0070
2881.00,0.0066
2878.00,0.0062
2875.00,0.0059
2872.00,0.0057
2869.00,0.0056
2866.00,0.0057
2863.00,0.0061
2860.00,0.0066
2857.00,0.0074
2854.00,0.0081
2851.00,0.0087
2848.00,0.0088
2845.00,0.0081
2842.00,0.0070
2839.00,0.0056
2836.00,0.0044
2833.00,0.0037
2830.00,0.0033
2827.00,0.0030
2824.00,0.0029
2821.00,0.0027
2818.00,0.0027
2815.00,0.0026
2812.00,0.0026
2809.00,0.0026
2806.00,0.0025
2803.00,0.0025
2800.00,0.0025
2797.00,0.0024
2794.00,0.0023
2791.00,0.0023
2788.00,0.0023
2785.00,0.0022
2782.00,0.0023
2779.00,0.0023
2776.00,0.0022
2773.00,0.0022
2770.00,0.0021
2767.00,0.0021
2764.00,0.0021
2761.00,0.0021
2758.00,0.0021
2755.00,0.0020
2752.00,0.0020
2749.00,0.0020
2746.00,0.0021
2743.00,0.0020
2740.00,0.0020
2737.00,0.0021
2734.00,0.0020
2731.00,0.0020
2728.00,0.0020
2725.00,0.0020
2722.00,0.0020
2719.00,0.0020
2716.00,0.0020
2713.00,0.0020
2710.00,0.0020
2707.00,0.0020
2704.00,0.0020
2701.00,0.0020
2698.00,0.0020
2695.00,0.0020
2692.00,0.0020
2689.00,0.0020
2686.00,0.0020
2683.00,0.0020
2680.00,0.0020
2677.00,0.0020
2674.00,0.0020
2671.00,0.0020
2668.00,0.0020
2665.00,0.0020
2662.00,0.0021
2659.00,0.0022
2656.00,0.0022
2653.00,0.0023
2650.00,0.0023
2647.00,0.0023
2644.00,0.0022
2641.00,0.0023
2638.00,0.0023
2635.00,0.0023
2632.00,0.0023
2629.00,0.0022
2626.00,0.0022
2623.00,0.0022
2620.00,0.0021
2617.00,0.0021
2614.00,0.0021
2611.00,0.0020
2608.00,0.0021
2605.00,0.0021
2602.00,0.0020
2599.00,0.0020
2596.00,0.0020
2593.00,0.0019
2590.00,0.0019
2587.00,0.0019
2584.00,0.0019
2581.00,0.0018
2578.00,0.0017
2575.00,0.0018
2572.00,0.0017
2569.00,0.0017
2566.00,0.0016
2563.00,0.0017
2560.00,0.0017
2557.00,0.0016
2554.00,0.0016
2551.00,0.0017
2548.00,0.0016
2545.00,0.0016
2542.00,0.0015
2539.00,0.0015
2536.00,0.0015
2533.00,0.0015
2530.00,0.0015
2527.00,0.0015
2524.00,0.0014
2521.00,0.0014
2518.00,0.0015
2515.00,0.0015
2512.00,0.0015
2509.00,0.0014
2506.00,0.0014
2503.00,0.0014
2500.00,0.0015
2497.00,0.0015
2494.00,0.0014
2491.00,0.0014
2488.00,0.0013
2485.00,0.0015
2482.00,0.0014
2479.00,0.0013
2476.00,0.0013
2473.00,0.0013
2470.00,0.0013
2467.00,0.0013
2464.00,0.0013
2461.00,0.0013
2458.00,0.0013
2455.00,0.0014
2452.00,0.0014
2449.00,0.0014
2446.00,0.0013
2443.00,0.0012
2440.00,0.0012
2437.00,0.0012
2434.00,0.0012
2431.00,0.0011
2428.00,0.0011
2425.00,0.0011
2422.00,0.0011
2419.00,0.0011
2416.00,0.0011
2413.00,0.0011
2410.00,0.0010
2407.00,0.0009
2404.00,0.0009
2401.00,0.0009
2398.00,0.0009
2395.00,0.0009
2392.00,0.0010
2389.00,0.0010
2386.00,0.0010
2383.00,0.0009
2380.00,0.0009
2377.00,0.0009
2374.00,0.0009
2371.00,0.0008
2368.00,0.0008
2365.00,0.0011
2362.00,0.0011
2359.00,0.0011
2356.00,0.0010
2353.00,0.0011
2350.00,0.0012
2347.00,0.0014
2344.00,0.0014
2341.00,0.0013
2338.00,0.0015
2335.00,0.0015
2332.00,0.0014
2329.00,0.0015
2326.00,0.0022
2323.00,0.0021
2320.00,0.0018
2317.00,0.0016
2314.00,0.0017
2311.00,0.0018
2308.00,0.0017
2305.00,0.0016
2302.00,0.0016
2299.00,0.0017
2296.00,0.0017
2293.00,0.0018
2290.00,0.0019
2287.00,0.0020
2284.00,0.0019
2281.00,0.0017
2278.00,0.0015
2275.00,0.0015
2272.00,0.0014
2269.00,0.0014
2266.00,0.0013
2263.00,0.0013
2260.00,0.0015
2257.00,0.0012
2254.00,0.0010
2251.00,0.0012
2248.00,0.0012
2245.00,0.0010
2242.00,0.0009
2239.00,0.0010
2236.00,0.0009
2233.00,0.0011
2230.00,0.0009
2227.00,0.0010
2224.00,0.0010
2221.00,0.0011
2218.00,0.0012
2215.00,0.0010
2212.00,0.0011
2209.00,0.0012
2206.00,0.0011
2203.00,0.0009
2200.00,0.0010
2197.00,0.0012
2194.00,0.0011
2191.00,0.0011
2188.00,0.0009
2185.00,0.0007
2182.00,0.0003
2179.00,0.0006
2176.00,0.0003
2173.00,0.0008
2170.00,0.0015
2167.00,0.0016
2164.00,0.0017
2161.00,0.0011
2158.00,-0.0011
2155.00,-0.0012
2152.00,-0.0007
2149.00,-0.0006
2146.00,-0.0008
2143.00,-0.0007
2140.00,-0.0004
2137.00,-0.0005
2134.00,-0.0007
2131.00,-0.0005
2128.00,-0.0001
2125.00,0.0002
2122.00,0.0003
2119.00,0.0005
2116.00,0.0006
2113.00,0.0007
2110.00,0.0007
2107.00,0.0006
2104.00,0.0007
2101.00,0.0007
2098.00,0.0007
2095.00,0.0002
2092.00,0.0004
2089.00,0.0008
2086.00,0.0008
2083.00,0.0009
2080.00,0.0009
2077.00,0.0010
2074.00,0.0009
2071.00,0.0010
2068.00,0.0007
2065.00,0.0005
2062.00,0.0005
2059.00,0.0006
2056.00,0.0006
2053.00,0.0011
2050.00,0.0014
2047.00,0.0007
2044.00,0.0005
2041.00,0.0006
2038.00,0.0007
2035.00,0.0008
2032.00,0.0005
2029.00,-0.0000
2026.00,0.0003
2023.00,0.0005
2020.00,0.0003
2017.00,-0.0000
2014.00,-0.0001
2011.00,-0.0003
2008.00,-0.0001
2005.00,-0.0003
2002.00,-0.0000
1999.00,0.0003
1996.00,0.0007
1993.00,0.0009
1990.00,0.0008
1987.00,0.0013
1984.00,0.0014
1981.00,0.0017
1978.00,0.0007
1975.00,0.0001
1972.00,0.0003
1969.00,0.0002
1966.00,0.0003
1963.00,0.0009
1960.00,0.0007
1957.00,0.0008
1954.00,0.0013
1951.00,0.0016
1948.00,0.0020
1945.00,0.0021
1942.00,0.0023
1939.00,0.0022
1936.00,0.0018
1933.00,0.0014
1930.00,0.0010
1927.00,0.0008
1924.00,0.0006
1921.00,0.0007
1918.00,0.0009
1915.00,0.0007
1912.00,0.0008
1909.00,0.0007
1906.00,0.0008
1903.00,0.0009
1900.00,0.0010
1897.00,0.0010
1894.00,0.0012
1891.00,0.0015
1888.00,0.0017
1885.00,0.0019
1882.00,0.0020
1879.00,0.0020
1876.00,0.0021
1873.00,0.0023
1870.00,0.0025
1867.00,0.0022
1864.00,0.0021
1861.00,0.0018
1858.00,0.0015
1855.00,0.0013
1852.00,0.0011
1849.00,0.0011
1846.00,0.0012
1843.00,0.0013
1840.00,0.0011
1837.00,0.0010
1834.00,0.0011
1831.00,0.0011
1828.00,0.0014
1825.00,0.0016
1822.00,0.0017
1819.00,0.0016
1816.00,0.0018
1813.00,0.0021
1810.00,0.0025
1807.00,0.0028
1804.00,0.0029
1801.00,0.0030
1798.00,0.0030
1795.00,0.0027
1792.00,0.0026
1789.00,0.0023
1786.00,0.0021
1783.00,0.0020
1780.00,0.0020
1777.00,0.0022
1774.00,0.0021
1771.00,0.0022
1768.00,0.0024
1765.00,0.0024
1762.00,0.0024
1759.00,0.0027
1756.00,0.0031
1753.00,0.0035
1750.00,0.0040
1747.00,0.0041
1744.00,0.0041
1741.00,0.0043
1738.00,0.0044
1735.00,0.0046
1732.00,0.0043
1729.00,0.0040
1726.00,0.0038
1723.00,0.0037
1720.00,0.0037
1717.00,0.0039
1714.00,0.0037
1711.00,0.0034
1708.00,0.0033
1705.00,0.0031
1702.00,0.0032
1699.00,0.0033
1696.00,0.0030
1693.00,0.0033
1690.00,0.0032
1687.00,0.0032
1684.00,0.0032
1681.00,0.0034
1678.00,0.0035
1675.00,0.0036
1672.00,0.0037
1669.00,0.0034
1666.00,0.0035
1663.00,0.0035
1660.00,0.0034
1657.00,0.0032
1654.00,0.0027
1651.00,0.0030
1648.00,0.0032
1645.00,0.0032
1642.00,0.0032
1639.00,0.0031
1636.00,0.0030
1633.00,0.0030
1630.00,0.0031
1627.00,0.0031
1624.00,0.0032
1621.00,0.0032
1618.00,0.0032
1615.00,0.0036
1612.00,0.0043
1609.00,0.0060
1606.00,0.0098
1603.00,0.0148
1600.00,0.0160
1597.00,0.0118
1594.00,0.0079
1591.00,0.0060
1588.00,0.0054
1585.00,0.0067
1582.00,0.0071
1579.00,0.0050
1576.00,0.0035
1573.00,0.0031
1570.00,0.0028
1567.00,0.0028
1564.00,0.0026
1561.00,0.0023
1558.00,0.0029
1555.00,0.0031
1552.00,0.0031
1549.00,0.0032
1546.00,0.0036
1543.00,0.0037
1540.00,0.0035
1537.00,0.0033
1534.00,0.0032
1531.00,0.0029
1528.00,0.0028
1525.00,0.0029
1522.00,0.0029
1519.00,0.0028
1516.00,0.0030
1513.00,0.0034
1510.00,0.0034
1507.00,0.0036
1504.00,0.0046
1501.00,0.0064
1498.00,0.0127
1495.00,0.0304
1492.00,0.0401
1489.00,0.0246
1486.00,0.0130
1483.00,0.0084
1480.00,0.0063
1477.00,0.0057
1474.00,0.0057
1471.00,0.0056
1468.00,0.0056
1465.00,0.0062
1462.00,0.0072
1459.00,0.0098
1456.00,0.0236
1453.00,0.0387
1450.00,0.0387
1447.00,0.0293
1444.00,0.0232
1441.00,0.0182
1438.00,0.0147
1435.00,0.0107
1432.00,0.0084
1429.00,0.0067
1426.00,0.0059
1423.00,0.0054
1420.00,0.0051
1417.00,0.0050
1414.00,0.0048
1411.00,0.0046
1408.00,0.0046
1405.00,0.0046
1402.00,0.0046
1399.00,0.0047
1396.00,0.0049
1393.00,0.0053
1390.00,0.0059
1387.00,0.0068
1384.00,0.0076
1381.00,0.0083
1378.00,0.0090
1375.00,0.0096
1372.00,0.0099
1369.00,0.0098
1366.00,0.0096
1363.00,0.0093
1360.00,0.0090
1357.00,0.0087
1354.00,0.0085
1351.00,0.0084
1348.00,0.0083
1345.00,0.0081
1342.00,0.0077
1339.00,0.0074
1336.00,0.0076
1333.00,0.0080
1330.00,0.0085
1327.00,0.0086
1324.00,0.0083
1321.00,0.0080
1318.00,0.0080
1315.00,0.0083
1312.00,0.0084
1309.00,0.0083
1306.00,0.0079
1303.00,0.0075
1300.00,0.0072
1297.00,0.0069
1294.00,0.0068
1291.00,0.0067
1288.00,0.0065
1285.00,0.0064
1282.00,0.0064
1279.00,0.0064
1276.00,0.0061
1273.00,0.0058
1270.00,0.0056
1267.00,0.0055
1264.00,0.0054
1261.00,0.0053
1258.00,0.0053
1255.00,0.0053
1252.00,0.0053
1249.00,0.0053
1246.00,0.0054
1243.00,0.0054
1240.00,0.0053
1237.00,0.0053
1234.00,0.0052
1231.00,0.0052
1228.00,0.0053
1225.00,0.0053
1222.00,0.0052
1219.00,0.0052
1216.00,0.0052
1213.00,0.0054
1210.00,0.0057
1207.00,0.0060
1204.00,0.0064
1201.00,0.0070
1198.00,0.0074
1195.00,0.0075
1192.00,0.0076
1189.00,0.0078
1186.00,0.0084
1183.00,0.0097
1180.00,0.0099
1177.00,0.0084
1174.00,0.0071
1171.00,0.0066
1168.00,0.0065
1165.00,0.0066
1162.00,0.0071
1159.00,0.0084
1156.00,0.0102
1153.00,0.0103
1150.00,0.0082
1147.00,0.0067
1144.00,0.0059
1141.00,0.0055
1138.00,0.0051
1135.00,0.0049
1132.00,0.0049
1129.00,0.0050
1126.00,0.0051
1123.00,0.0053
1120.00,0.0057
1117.00,0.0063
1114.00,0.0067
1111.00,0.0068
1108.00,0.0069
1105.00,0.0068
1102.00,0.0070
1099.00,0.0073
1096.00,0.0076
1093.00,0.0079
1090.00,0.0082
1087.00,0.0087
1084.00,0.0095
1081.00,0.0103
1078.00,0.0112
1075.00,0.0125
1072.00,0.0140
1069.00,0.0149
1066.00,0.0142
1063.00,0.0128
1060.00,0.0115
1057.00,0.0105
1054.00,0.0098
1051.00,0.0093
1048.00,0.0089
1045.00,0.0087
1042.00,0.0088
1039.00,0.0094
1036.00,0.0118
1033.00,0.0172
1030.00,0.0230
1027.00,0.0242
1024.00,0.0203
1021.00,0.0165
1018.00,0.0142
1015.00,0.0127
1012.00,0.0117
1009.00,0.0111
1006.00,0.0113
1003.00,0.0119
1000.00,0.0105
997.00,0.0091
994.00,0.0088
991.00,0.0089
988.00,0.0091
985.00,0.0097
982.00,0.0103
979.00,0.0103
976.00,0.0098
973.00,0.0094
970.00,0.0097
967.00,0.0105
964.00,0.0110
961.00,0.0102
958.00,0.0089
955.00,0.0081
952.00,0.0079
949.00,0.0081
946.00,0.0084
943.00,0.0087
940.00,0.0084
937.00,0.0077
934.00,0.0069
931.00,0.0063
928.00,0.0061
925.00,0.0063
922.00,0.0067
919.00,0.0074
916.00,0.0088
913.00,0.0114
910.00,0.0145
907.00,0.0166
904.00,0.0158
901.00,0.0126
898.00,0.0093
895.00,0.0073
892.00,0.0065
889.00,0.0060
886.00,0.0057
883.00,0.0054
880.00,0.0053
877.00,0.0054
874.00,0.0051
871.00,0.0048
868.00,0.0047
865.00,0.0047
862.00,0.0046
859.00,0.0046
856.00,0.0047
853.00,0.0050
850.00,0.0060
847.00,0.0073
844.00,0.0085
841.00,0.0089
838.00,0.0080
835.00,0.0065
832.00,0.0053
829.00,0.0047
826.00,0.0045
823.00,0.0045
820.00,0.0046
817.00,0.0047
814.00,0.0048
811.00,0.0050
808.00,0.0050
805.00,0.0052
802.00,0.0054
799.00,0.0057
796.00,0.0065
793.00,0.0074
790.00,0.0086
787.00,0.0101
784.00,0.0118
781.00,0.0141
778.00,0.0177
775.00,0.0226
772.00,0.0291
769.00,0.0372
766.00,0.0454
763.00,0.0533
760.00,0.0618
757.00,0.0686
754.00,0.0706
751.00,0.0700
748.00,0.0693
745.00,0.0636
742.00,0.0505
739.00,0.0374
736.00,0.0272
733.00,0.0186
730.00,0.0128
727.00,0.0104
724.00,0.0095
721.00,0.0092
718.00,0.0097
715.00,0.0114
712.00,0.0164
709.00,0.0289
706.00,0.0547
703.00,0.0959
700.00,0.1476
697.00,0.1996
694.00,0.2180
691.00,0.1653
688.00,0.1064
685.00,0.0739
682.00,0.0564
679.00,0.0454
676.00,0.0385
673.00,0.0341
670.00,0.0307
667.00,0.0268
664.00,0.0248
661.00,0.0222
658.00,0.0195
655.00,0.0172
652.00,0.0153
649.00,0.0142
646.00,0.0132
643.00,0.0124
640.00,0.0125
637.00,0.0131
634.00,0.0140
631.00,0.0149
628.00,0.0157
625.00,0.0162
622.00,0.0170
619.00,0.0167
616.00,0.0152
613.00,0.0144
610.00,0.0135
607.00,0.0135
604.00,0.0136
601.00,0.0140
598.00,0.0145
595.00,0.0149
592.00,0.0154
589.00,0.0160
586.00,0.0168
583.00,0.0178
580.00,0.0193
577.00,0.0219
574.00,0.0248
571.00,0.0278
568.00,0.0309
565.00,0.0338
562.00,0.0367
559.00,0.0397
556.00,0.0425
553.00,0.0463
550.00,0.0507
547.00,0.0566
544.00,0.0642
541.00,0.0718
538.00,0.0759
535.00,0.0722
532.00,0.0623
529.00,0.0511
526.00,0.0419
523.00,0.0347
520.00,0.0304
517.00,0.0274
514.00,0.0250
511.00,0.0230
508.00,0.0216
505.00,0.0198
502.00,0.0187
499.00,0.0172
496.00,0.0171
493.00,0.0158
490.00,0.0151
487.00,0.0146
484.00,0.0141
481.00,0.0143
478.00,0.0139
475.00,0.0131
472.00,0.0127
469.00,0.0132
466.00,0.0130
463.00,0.0124
460.00,0.0127
457.00,0.0135
454.00,0.0127
451.00,0.0120
448.00,0.0123
445.00,0.0125
442.00,0.0124
439.00,0.0116
436.00,0.0112
433.00,0.0116
430.00,0.0116
427.00,0.0114
424.00,0.0104
421.00,0.0120
418.00,0.0122
415.00,0.0098
412.00,0.0098
409.00,0.0109
406.00,0.0127
403.00,0.0116
400.00,0.0089