File: FTIR/Mary/Jul3/2025_07_03_Polystyrene_Std_MEL_Scan3.csv
Created as New Dataset,Sample 762 By YargerLab Date Thursday, July 03 2025
cm-1,A
4000.00,0.0024
3997.00,0.0023
3994.00,0.0023
3991.00,0.0024
3988.00,0.0023
3985.00,0.0023
3982.00,0.0023
3979.00,0.0023
3976.00,0.0023
3973.00,0.0023
3970.00,0.0023
3967.00,0.0023
3964.00,0.0023
3961.00,0.0023
3958.00,0.0024
3955.00,0.0023
3952.00,0.0023
3949.00,0.0024
3946.00,0.0025
3943.00,0.0024
3940.00,0.0024
3937.00,0.0024
3934.00,0.0025
3931.00,0.0024
3928.00,0.0024
3925.00,0.0022
3922.00,0.0025
3919.00,0.0026
3916.00,0.0026
3913.00,0.0024
3910.00,0.0023
3907.00,0.0023
3904.00,0.0027
3901.00,0.0029
3898.00,0.0026
3895.00,0.0026
3892.00,0.0025
3889.00,0.0027
3886.00,0.0027
3883.00,0.0026
3880.00,0.0026
3877.00,0.0027
3874.00,0.0025
3871.00,0.0028
3868.00,0.0029
3865.00,0.0029
3862.00,0.0029
3859.00,0.0027
3856.00,0.0024
3853.00,0.0026
3850.00,0.0028
3847.00,0.0028
3844.00,0.0027
3841.00,0.0029
3838.00,0.0029
3835.00,0.0029
3832.00,0.0029
3829.00,0.0028
3826.00,0.0027
3823.00,0.0030
3820.00,0.0029
3817.00,0.0029
3814.00,0.0026
3811.00,0.0026
3808.00,0.0027
3805.00,0.0029
3802.00,0.0028
3799.00,0.0028
3796.00,0.0027
3793.00,0.0025
3790.00,0.0024
3787.00,0.0024
3784.00,0.0024
3781.00,0.0025
3778.00,0.0025
3775.00,0.0025
3772.00,0.0026
3769.00,0.0028
3766.00,0.0028
3763.00,0.0027
3760.00,0.0027
3757.00,0.0029
3754.00,0.0031
3751.00,0.0034
3748.00,0.0034
3745.00,0.0032
3742.00,0.0031
3739.00,0.0034
3736.00,0.0034
3733.00,0.0033
3730.00,0.0030
3727.00,0.0030
3724.00,0.0028
3721.00,0.0027
3718.00,0.0026
3715.00,0.0027
3712.00,0.0028
3709.00,0.0028
3706.00,0.0026
3703.00,0.0024
3700.00,0.0023
3697.00,0.0024
3694.00,0.0025
3691.00,0.0025
3688.00,0.0028
3685.00,0.0027
3682.00,0.0027
3679.00,0.0027
3676.00,0.0030
3673.00,0.0031
3670.00,0.0030
3667.00,0.0027
3664.00,0.0025
3661.00,0.0024
3658.00,0.0026
3655.00,0.0028
3652.00,0.0030
3649.00,0.0033
3646.00,0.0030
3643.00,0.0029
3640.00,0.0027
3637.00,0.0027
3634.00,0.0027
3631.00,0.0030
3628.00,0.0031
3625.00,0.0031
3622.00,0.0030
3619.00,0.0029
3616.00,0.0031
3613.00,0.0032
3610.00,0.0033
3607.00,0.0030
3604.00,0.0029
3601.00,0.0028
3598.00,0.0029
3595.00,0.0029
3592.00,0.0031
3589.00,0.0031
3586.00,0.0030
3583.00,0.0030
3580.00,0.0029
3577.00,0.0029
3574.00,0.0029
3571.00,0.0030
3568.00,0.0031
3565.00,0.0032
3562.00,0.0032
3559.00,0.0031
3556.00,0.0030
3553.00,0.0031
3550.00,0.0032
3547.00,0.0033
3544.00,0.0033
3541.00,0.0032
3538.00,0.0032
3535.00,0.0033
3532.00,0.0033
3529.00,0.0033
3526.00,0.0035
3523.00,0.0034
3520.00,0.0034
3517.00,0.0034
3514.00,0.0034
3511.00,0.0034
3508.00,0.0035
3505.00,0.0035
3502.00,0.0036
3499.00,0.0036
3496.00,0.0036
3493.00,0.0036
3490.00,0.0037
3487.00,0.0037
3484.00,0.0037
3481.00,0.0037
3478.00,0.0038
3475.00,0.0037
3472.00,0.0038
3469.00,0.0038
3466.00,0.0038
3463.00,0.0039
3460.00,0.0039
3457.00,0.0039
3454.00,0.0039
3451.00,0.0040
3448.00,0.0040
3445.00,0.0040
3442.00,0.0040
3439.00,0.0041
3436.00,0.0041
3433.00,0.0041
3430.00,0.0040
3427.00,0.0040
3424.00,0.0041
3421.00,0.0041
3418.00,0.0042
3415.00,0.0043
3412.00,0.0043
3409.00,0.0043
3406.00,0.0043
3403.00,0.0044
3400.00,0.0044
3397.00,0.0044
3394.00,0.0044
3391.00,0.0044
3388.00,0.0044
3385.00,0.0044
3382.00,0.0045
3379.00,0.0044
3376.00,0.0044
3373.00,0.0044
3370.00,0.0045
3367.00,0.0045
3364.00,0.0045
3361.00,0.0045
3358.00,0.0045
3355.00,0.0046
3352.00,0.0046
3349.00,0.0046
3346.00,0.0046
3343.00,0.0047
3340.00,0.0047
3337.00,0.0047
3334.00,0.0046
3331.00,0.0046
3328.00,0.0046
3325.00,0.0046
3322.00,0.0045
3319.00,0.0045
3316.00,0.0045
3313.00,0.0045
3310.00,0.0045
3307.00,0.0045
3304.00,0.0045
3301.00,0.0045
3298.00,0.0045
3295.00,0.0046
3292.00,0.0046
3289.00,0.0045
3286.00,0.0044
3283.00,0.0044
3280.00,0.0045
3277.00,0.0044
3274.00,0.0045
3271.00,0.0044
3268.00,0.0043
3265.00,0.0043
3262.00,0.0043
3259.00,0.0042
3256.00,0.0042
3253.00,0.0041
3250.00,0.0041
3247.00,0.0041
3244.00,0.0041
3241.00,0.0040
3238.00,0.0039
3235.00,0.0040
3232.00,0.0040
3229.00,0.0038
3226.00,0.0038
3223.00,0.0038
3220.00,0.0038
3217.00,0.0037
3214.00,0.0037
3211.00,0.0037
3208.00,0.0037
3205.00,0.0036
3202.00,0.0036
3199.00,0.0036
3196.00,0.0036
3193.00,0.0036
3190.00,0.0035
3187.00,0.0034
3184.00,0.0034
3181.00,0.0034
3178.00,0.0034
3175.00,0.0034
3172.00,0.0034
3169.00,0.0034
3166.00,0.0033
3163.00,0.0033
3160.00,0.0033
3157.00,0.0033
3154.00,0.0033
3151.00,0.0032
3148.00,0.0032
3145.00,0.0032
3142.00,0.0031
3139.00,0.0031
3136.00,0.0031
3133.00,0.0031
3130.00,0.0031
3127.00,0.0031
3124.00,0.0031
3121.00,0.0032
3118.00,0.0032
3115.00,0.0033
3112.00,0.0034
3109.00,0.0037
3106.00,0.0040
3103.00,0.0042
3100.00,0.0041
3097.00,0.0040
3094.00,0.0041
3091.00,0.0046
3088.00,0.0054
3085.00,0.0064
3082.00,0.0069
3079.00,0.0065
3076.00,0.0059
3073.00,0.0056
3070.00,0.0058
3067.00,0.0065
3064.00,0.0075
3061.00,0.0085
3058.00,0.0085
3055.00,0.0076
3052.00,0.0065
3049.00,0.0058
3046.00,0.0054
3043.00,0.0054
3040.00,0.0058
3037.00,0.0067
3034.00,0.0082
3031.00,0.0107
3028.00,0.0134
3025.00,0.0147
3022.00,0.0132
3019.00,0.0101
3016.00,0.0074
3013.00,0.0059
3010.00,0.0052
3007.00,0.0050
3004.00,0.0053
3001.00,0.0055
2998.00,0.0051
2995.00,0.0044
2992.00,0.0039
2989.00,0.0037
2986.00,0.0036
2983.00,0.0037
2980.00,0.0037
2977.00,0.0038
2974.00,0.0039
2971.00,0.0040
2968.00,0.0041
2965.00,0.0044
2962.00,0.0047
2959.00,0.0049
2956.00,0.0053
2953.00,0.0059
2950.00,0.0065
2947.00,0.0073
2944.00,0.0083
2941.00,0.0094
2938.00,0.0108
2935.00,0.0124
2932.00,0.0142
2929.00,0.0158
2926.00,0.0170
2923.00,0.0178
2920.00,0.0178
2917.00,0.0173
2914.00,0.0164
2911.00,0.0153
2908.00,0.0141
2905.00,0.0129
2902.00,0.0117
2899.00,0.0106
2896.00,0.0095
2893.00,0.0087
2890.00,0.0081
2887.00,0.0077
2884.00,0.0072
2881.00,0.0069
2878.00,0.0066
2875.00,0.0063
2872.00,0.0061
2869.00,0.0061
2866.00,0.0061
2863.00,0.0064
2860.00,0.0070
2857.00,0.0078
2854.00,0.0085
2851.00,0.0090
2848.00,0.0090
2845.00,0.0083
2842.00,0.0073
2839.00,0.0060
2836.00,0.0050
2833.00,0.0043
2830.00,0.0039
2827.00,0.0037
2824.00,0.0036
2821.00,0.0034
2818.00,0.0034
2815.00,0.0033
2812.00,0.0033
2809.00,0.0033
2806.00,0.0032
2803.00,0.0032
2800.00,0.0032
2797.00,0.0031
2794.00,0.0031
2791.00,0.0030
2788.00,0.0030
2785.00,0.0030
2782.00,0.0030
2779.00,0.0030
2776.00,0.0029
2773.00,0.0029
2770.00,0.0029
2767.00,0.0028
2764.00,0.0028
2761.00,0.0028
2758.00,0.0028
2755.00,0.0028
2752.00,0.0028
2749.00,0.0028
2746.00,0.0028
2743.00,0.0028
2740.00,0.0028
2737.00,0.0028
2734.00,0.0027
2731.00,0.0028
2728.00,0.0027
2725.00,0.0027
2722.00,0.0027
2719.00,0.0027
2716.00,0.0027
2713.00,0.0027
2710.00,0.0027
2707.00,0.0027
2704.00,0.0027
2701.00,0.0027
2698.00,0.0027
2695.00,0.0027
2692.00,0.0027
2689.00,0.0027
2686.00,0.0027
2683.00,0.0027
2680.00,0.0027
2677.00,0.0026
2674.00,0.0027
2671.00,0.0027
2668.00,0.0027
2665.00,0.0027
2662.00,0.0029
2659.00,0.0029
2656.00,0.0030
2653.00,0.0030
2650.00,0.0030
2647.00,0.0030
2644.00,0.0030
2641.00,0.0030
2638.00,0.0030
2635.00,0.0030
2632.00,0.0030
2629.00,0.0030
2626.00,0.0030
2623.00,0.0029
2620.00,0.0028
2617.00,0.0028
2614.00,0.0027
2611.00,0.0027
2608.00,0.0028
2605.00,0.0028
2602.00,0.0027
2599.00,0.0027
2596.00,0.0026
2593.00,0.0025
2590.00,0.0026
2587.00,0.0026
2584.00,0.0026
2581.00,0.0025
2578.00,0.0025
2575.00,0.0025
2572.00,0.0024
2569.00,0.0024
2566.00,0.0024
2563.00,0.0024
2560.00,0.0023
2557.00,0.0023
2554.00,0.0023
2551.00,0.0024
2548.00,0.0023
2545.00,0.0024
2542.00,0.0023
2539.00,0.0023
2536.00,0.0023
2533.00,0.0023
2530.00,0.0023
2527.00,0.0022
2524.00,0.0022
2521.00,0.0022
2518.00,0.0022
2515.00,0.0022
2512.00,0.0022
2509.00,0.0021
2506.00,0.0022
2503.00,0.0022
2500.00,0.0022
2497.00,0.0022
2494.00,0.0022
2491.00,0.0021
2488.00,0.0021
2485.00,0.0021
2482.00,0.0021
2479.00,0.0019
2476.00,0.0020
2473.00,0.0020
2470.00,0.0021
2467.00,0.0021
2464.00,0.0020
2461.00,0.0020
2458.00,0.0020
2455.00,0.0020
2452.00,0.0021
2449.00,0.0022
2446.00,0.0020
2443.00,0.0020
2440.00,0.0019
2437.00,0.0019
2434.00,0.0019
2431.00,0.0019
2428.00,0.0018
2425.00,0.0018
2422.00,0.0018
2419.00,0.0018
2416.00,0.0018
2413.00,0.0018
2410.00,0.0017
2407.00,0.0016
2404.00,0.0016
2401.00,0.0016
2398.00,0.0017
2395.00,0.0017
2392.00,0.0017
2389.00,0.0017
2386.00,0.0016
2383.00,0.0015
2380.00,0.0015
2377.00,0.0015
2374.00,0.0015
2371.00,0.0014
2368.00,0.0013
2365.00,0.0015
2362.00,0.0016
2359.00,0.0016
2356.00,0.0015
2353.00,0.0016
2350.00,0.0016
2347.00,0.0019
2344.00,0.0019
2341.00,0.0018
2338.00,0.0019
2335.00,0.0019
2332.00,0.0019
2329.00,0.0020
2326.00,0.0027
2323.00,0.0027
2320.00,0.0023
2317.00,0.0022
2314.00,0.0022
2311.00,0.0023
2308.00,0.0022
2305.00,0.0022
2302.00,0.0022
2299.00,0.0022
2296.00,0.0023
2293.00,0.0024
2290.00,0.0026
2287.00,0.0027
2284.00,0.0026
2281.00,0.0025
2278.00,0.0024
2275.00,0.0022
2272.00,0.0022
2269.00,0.0021
2266.00,0.0019
2263.00,0.0020
2260.00,0.0021
2257.00,0.0019
2254.00,0.0018
2251.00,0.0018
2248.00,0.0017
2245.00,0.0017
2242.00,0.0017
2239.00,0.0019
2236.00,0.0019
2233.00,0.0019
2230.00,0.0019
2227.00,0.0018
2224.00,0.0017
2221.00,0.0017
2218.00,0.0018
2215.00,0.0018
2212.00,0.0016
2209.00,0.0016
2206.00,0.0018
2203.00,0.0017
2200.00,0.0017
2197.00,0.0019
2194.00,0.0019
2191.00,0.0017
2188.00,0.0017
2185.00,0.0016
2182.00,0.0011
2179.00,0.0013
2176.00,0.0013
2173.00,0.0015
2170.00,0.0021
2167.00,0.0024
2164.00,0.0023
2161.00,0.0016
2158.00,-0.0006
2155.00,-0.0004
2152.00,0.0001
2149.00,0.0002
2146.00,-0.0000
2143.00,0.0001
2140.00,0.0002
2137.00,-0.0000
2134.00,-0.0001
2131.00,0.0002
2128.00,0.0007
2125.00,0.0009
2122.00,0.0009
2119.00,0.0012
2116.00,0.0014
2113.00,0.0014
2110.00,0.0013
2107.00,0.0012
2104.00,0.0014
2101.00,0.0014
2098.00,0.0012
2095.00,0.0010
2092.00,0.0011
2089.00,0.0016
2086.00,0.0017
2083.00,0.0017
2080.00,0.0016
2077.00,0.0016
2074.00,0.0014
2071.00,0.0015
2068.00,0.0014
2065.00,0.0014
2062.00,0.0014
2059.00,0.0015
2056.00,0.0014
2053.00,0.0018
2050.00,0.0022
2047.00,0.0014
2044.00,0.0015
2041.00,0.0015
2038.00,0.0015
2035.00,0.0013
2032.00,0.0009
2029.00,0.0010
2026.00,0.0009
2023.00,0.0009
2020.00,0.0005
2017.00,0.0005
2014.00,0.0006
2011.00,0.0006
2008.00,0.0004
2005.00,0.0004
2002.00,0.0008
1999.00,0.0010
1996.00,0.0010
1993.00,0.0012
1990.00,0.0013
1987.00,0.0016
1984.00,0.0018
1981.00,0.0027
1978.00,0.0018
1975.00,0.0009
1972.00,0.0009
1969.00,0.0010
1966.00,0.0009
1963.00,0.0012
1960.00,0.0012
1957.00,0.0014
1954.00,0.0018
1951.00,0.0020
1948.00,0.0023
1945.00,0.0024
1942.00,0.0026
1939.00,0.0026
1936.00,0.0022
1933.00,0.0018
1930.00,0.0016
1927.00,0.0013
1924.00,0.0012
1921.00,0.0015
1918.00,0.0015
1915.00,0.0013
1912.00,0.0013
1909.00,0.0013
1906.00,0.0014
1903.00,0.0015
1900.00,0.0015
1897.00,0.0016
1894.00,0.0017
1891.00,0.0020
1888.00,0.0021
1885.00,0.0023
1882.00,0.0024
1879.00,0.0025
1876.00,0.0026
1873.00,0.0028
1870.00,0.0029
1867.00,0.0027
1864.00,0.0026
1861.00,0.0022
1858.00,0.0021
1855.00,0.0018
1852.00,0.0017
1849.00,0.0017
1846.00,0.0018
1843.00,0.0018
1840.00,0.0017
1837.00,0.0016
1834.00,0.0017
1831.00,0.0018
1828.00,0.0019
1825.00,0.0021
1822.00,0.0022
1819.00,0.0021
1816.00,0.0023
1813.00,0.0026
1810.00,0.0028
1807.00,0.0032
1804.00,0.0033
1801.00,0.0034
1798.00,0.0033
1795.00,0.0031
1792.00,0.0030
1789.00,0.0027
1786.00,0.0026
1783.00,0.0024
1780.00,0.0024
1777.00,0.0025
1774.00,0.0026
1771.00,0.0027
1768.00,0.0029
1765.00,0.0028
1762.00,0.0028
1759.00,0.0031
1756.00,0.0035
1753.00,0.0039
1750.00,0.0043
1747.00,0.0043
1744.00,0.0044
1741.00,0.0045
1738.00,0.0046
1735.00,0.0050
1732.00,0.0047
1729.00,0.0043
1726.00,0.0042
1723.00,0.0041
1720.00,0.0041
1717.00,0.0043
1714.00,0.0042
1711.00,0.0039
1708.00,0.0038
1705.00,0.0036
1702.00,0.0037
1699.00,0.0039
1696.00,0.0036
1693.00,0.0038
1690.00,0.0037
1687.00,0.0038
1684.00,0.0038
1681.00,0.0039
1678.00,0.0041
1675.00,0.0043
1672.00,0.0044
1669.00,0.0041
1666.00,0.0042
1663.00,0.0043
1660.00,0.0043
1657.00,0.0042
1654.00,0.0040
1651.00,0.0041
1648.00,0.0044
1645.00,0.0045
1642.00,0.0044
1639.00,0.0044
1636.00,0.0043
1633.00,0.0043
1630.00,0.0044
1627.00,0.0043
1624.00,0.0044
1621.00,0.0044
1618.00,0.0044
1615.00,0.0046
1612.00,0.0052
1609.00,0.0066
1606.00,0.0098
1603.00,0.0142
1600.00,0.0153
1597.00,0.0117
1594.00,0.0081
1591.00,0.0064
1588.00,0.0059
1585.00,0.0070
1582.00,0.0074
1579.00,0.0057
1576.00,0.0044
1573.00,0.0040
1570.00,0.0038
1567.00,0.0038
1564.00,0.0037
1561.00,0.0036
1558.00,0.0040
1555.00,0.0042
1552.00,0.0043
1549.00,0.0045
1546.00,0.0049
1543.00,0.0050
1540.00,0.0049
1537.00,0.0045
1534.00,0.0045
1531.00,0.0042
1528.00,0.0041
1525.00,0.0042
1522.00,0.0042
1519.00,0.0042
1516.00,0.0041
1513.00,0.0045
1510.00,0.0045
1507.00,0.0047
1504.00,0.0055
1501.00,0.0071
1498.00,0.0124
1495.00,0.0277
1492.00,0.0367
1489.00,0.0232
1486.00,0.0129
1483.00,0.0089
1480.00,0.0070
1477.00,0.0064
1474.00,0.0065
1471.00,0.0064
1468.00,0.0063
1465.00,0.0068
1462.00,0.0077
1459.00,0.0100
1456.00,0.0218
1453.00,0.0351
1450.00,0.0353
1447.00,0.0270
1444.00,0.0217
1441.00,0.0174
1438.00,0.0144
1435.00,0.0109
1432.00,0.0089
1429.00,0.0074
1426.00,0.0067
1423.00,0.0063
1420.00,0.0062
1417.00,0.0060
1414.00,0.0058
1411.00,0.0057
1408.00,0.0057
1405.00,0.0057
1402.00,0.0058
1399.00,0.0059
1396.00,0.0060
1393.00,0.0063
1390.00,0.0068
1387.00,0.0076
1384.00,0.0083
1381.00,0.0089
1378.00,0.0096
1375.00,0.0101
1372.00,0.0104
1369.00,0.0103
1366.00,0.0101
1363.00,0.0099
1360.00,0.0095
1357.00,0.0092
1354.00,0.0090
1351.00,0.0089
1348.00,0.0088
1345.00,0.0086
1342.00,0.0083
1339.00,0.0080
1336.00,0.0082
1333.00,0.0086
1330.00,0.0091
1327.00,0.0091
1324.00,0.0089
1321.00,0.0088
1318.00,0.0088
1315.00,0.0090
1312.00,0.0091
1309.00,0.0088
1306.00,0.0084
1303.00,0.0079
1300.00,0.0075
1297.00,0.0072
1294.00,0.0070
1291.00,0.0069
1288.00,0.0067
1285.00,0.0067
1282.00,0.0068
1279.00,0.0067
1276.00,0.0064
1273.00,0.0061
1270.00,0.0058
1267.00,0.0057
1264.00,0.0057
1261.00,0.0056
1258.00,0.0055
1255.00,0.0055
1252.00,0.0056
1249.00,0.0057
1246.00,0.0058
1243.00,0.0057
1240.00,0.0056
1237.00,0.0056
1234.00,0.0055
1231.00,0.0055
1228.00,0.0054
1225.00,0.0054
1222.00,0.0054
1219.00,0.0054
1216.00,0.0054
1213.00,0.0056
1210.00,0.0059
1207.00,0.0062
1204.00,0.0066
1201.00,0.0071
1198.00,0.0074
1195.00,0.0075
1192.00,0.0076
1189.00,0.0077
1186.00,0.0083
1183.00,0.0095
1180.00,0.0097
1177.00,0.0083
1174.00,0.0072
1171.00,0.0070
1168.00,0.0070
1165.00,0.0073
1162.00,0.0079
1159.00,0.0089
1156.00,0.0105
1153.00,0.0105
1150.00,0.0087
1147.00,0.0073
1144.00,0.0065
1141.00,0.0060
1138.00,0.0057
1135.00,0.0055
1132.00,0.0056
1129.00,0.0057
1126.00,0.0060
1123.00,0.0063
1120.00,0.0067
1117.00,0.0073
1114.00,0.0079
1111.00,0.0083
1108.00,0.0083
1105.00,0.0082
1102.00,0.0082
1099.00,0.0083
1096.00,0.0084
1093.00,0.0086
1090.00,0.0088
1087.00,0.0093
1084.00,0.0098
1081.00,0.0106
1078.00,0.0113
1075.00,0.0125
1072.00,0.0140
1069.00,0.0149
1066.00,0.0147
1063.00,0.0136
1060.00,0.0128
1057.00,0.0121
1054.00,0.0116
1051.00,0.0111
1048.00,0.0106
1045.00,0.0102
1042.00,0.0101
1039.00,0.0107
1036.00,0.0130
1033.00,0.0178
1030.00,0.0229
1027.00,0.0241
1024.00,0.0206
1021.00,0.0170
1018.00,0.0149
1015.00,0.0136
1012.00,0.0127
1009.00,0.0123
1006.00,0.0125
1003.00,0.0130
1000.00,0.0119
997.00,0.0107
994.00,0.0103
991.00,0.0104
988.00,0.0106
985.00,0.0112
982.00,0.0117
979.00,0.0117
976.00,0.0111
973.00,0.0106
970.00,0.0108
967.00,0.0114
964.00,0.0117
961.00,0.0111
958.00,0.0098
955.00,0.0090
952.00,0.0087
949.00,0.0088
946.00,0.0091
943.00,0.0093
940.00,0.0089
937.00,0.0082
934.00,0.0076
931.00,0.0070
928.00,0.0069
925.00,0.0070
922.00,0.0073
919.00,0.0079
916.00,0.0091
913.00,0.0113
910.00,0.0140
907.00,0.0158
904.00,0.0151
901.00,0.0123
898.00,0.0095
895.00,0.0077
892.00,0.0069
889.00,0.0065
886.00,0.0061
883.00,0.0058
880.00,0.0057
877.00,0.0057
874.00,0.0056
871.00,0.0055
868.00,0.0056
865.00,0.0057
862.00,0.0057
859.00,0.0056
856.00,0.0056
853.00,0.0058
850.00,0.0065
847.00,0.0075
844.00,0.0084
841.00,0.0087
838.00,0.0080
835.00,0.0067
832.00,0.0057
829.00,0.0050
826.00,0.0048
823.00,0.0047
820.00,0.0048
817.00,0.0048
814.00,0.0049
811.00,0.0051
808.00,0.0051
805.00,0.0053
802.00,0.0055
799.00,0.0058
796.00,0.0065
793.00,0.0073
790.00,0.0083
787.00,0.0096
784.00,0.0112
781.00,0.0132
778.00,0.0162
775.00,0.0205
772.00,0.0259
769.00,0.0327
766.00,0.0397
763.00,0.0463
760.00,0.0534
757.00,0.0591
754.00,0.0608
751.00,0.0603
748.00,0.0598
745.00,0.0551
742.00,0.0441
739.00,0.0330
736.00,0.0243
733.00,0.0171
730.00,0.0122
727.00,0.0102
724.00,0.0095
721.00,0.0093
718.00,0.0098
715.00,0.0112
712.00,0.0153
709.00,0.0258
706.00,0.0472
703.00,0.0811
700.00,0.1232
697.00,0.1650
694.00,0.1798
691.00,0.1378
688.00,0.0901
685.00,0.0636
682.00,0.0491
679.00,0.0399
676.00,0.0340
673.00,0.0305
670.00,0.0278
667.00,0.0244
664.00,0.0228
661.00,0.0207
658.00,0.0184
655.00,0.0165
652.00,0.0150
649.00,0.0140
646.00,0.0129
643.00,0.0123
640.00,0.0124
637.00,0.0130
634.00,0.0139
631.00,0.0146
628.00,0.0151
625.00,0.0158
622.00,0.0166
619.00,0.0164
616.00,0.0153
613.00,0.0147
610.00,0.0141
607.00,0.0138
604.00,0.0139
601.00,0.0142
598.00,0.0145
595.00,0.0150
592.00,0.0153
589.00,0.0159
586.00,0.0165
583.00,0.0175
580.00,0.0190
577.00,0.0211
574.00,0.0233
571.00,0.0258
568.00,0.0286
565.00,0.0312
562.00,0.0337
559.00,0.0364
556.00,0.0389
553.00,0.0420
550.00,0.0455
547.00,0.0505
544.00,0.0567
541.00,0.0633
538.00,0.0668
535.00,0.0636
532.00,0.0555
529.00,0.0464
526.00,0.0385
523.00,0.0323
520.00,0.0288
517.00,0.0260
514.00,0.0239
511.00,0.0225
508.00,0.0212
505.00,0.0193
502.00,0.0182
499.00,0.0172
496.00,0.0170
493.00,0.0164
490.00,0.0153
487.00,0.0149
484.00,0.0148
481.00,0.0148
478.00,0.0147
475.00,0.0139
472.00,0.0134
469.00,0.0134
466.00,0.0136
463.00,0.0130
460.00,0.0131
457.00,0.0138
454.00,0.0133
451.00,0.0123
448.00,0.0129
445.00,0.0134
442.00,0.0127
439.00,0.0120
436.00,0.0120
433.00,0.0124
430.00,0.0119
427.00,0.0117
424.00,0.0119
421.00,0.0124
418.00,0.0120
415.00,0.0115
412.00,0.0115
409.00,0.0116
406.00,0.0134
403.00,0.0115
400.00,0.0169