File: FTIR/Mary/Jul3/2025_07_03_Polystyrene_Std_MEL_Scan2.csv
Created as New Dataset,Sample 761 By YargerLab Date Thursday, July 03 2025
cm-1,A
4000.00,0.0016
3997.00,0.0016
3994.00,0.0016
3991.00,0.0016
3988.00,0.0016
3985.00,0.0016
3982.00,0.0016
3979.00,0.0016
3976.00,0.0016
3973.00,0.0016
3970.00,0.0015
3967.00,0.0015
3964.00,0.0016
3961.00,0.0016
3958.00,0.0016
3955.00,0.0016
3952.00,0.0016
3949.00,0.0017
3946.00,0.0017
3943.00,0.0015
3940.00,0.0016
3937.00,0.0017
3934.00,0.0018
3931.00,0.0017
3928.00,0.0016
3925.00,0.0016
3922.00,0.0018
3919.00,0.0019
3916.00,0.0018
3913.00,0.0017
3910.00,0.0016
3907.00,0.0016
3904.00,0.0020
3901.00,0.0022
3898.00,0.0019
3895.00,0.0018
3892.00,0.0018
3889.00,0.0019
3886.00,0.0020
3883.00,0.0018
3880.00,0.0018
3877.00,0.0019
3874.00,0.0017
3871.00,0.0020
3868.00,0.0021
3865.00,0.0021
3862.00,0.0021
3859.00,0.0020
3856.00,0.0016
3853.00,0.0019
3850.00,0.0020
3847.00,0.0020
3844.00,0.0019
3841.00,0.0020
3838.00,0.0021
3835.00,0.0021
3832.00,0.0021
3829.00,0.0020
3826.00,0.0019
3823.00,0.0021
3820.00,0.0021
3817.00,0.0021
3814.00,0.0018
3811.00,0.0018
3808.00,0.0019
3805.00,0.0020
3802.00,0.0021
3799.00,0.0020
3796.00,0.0019
3793.00,0.0018
3790.00,0.0017
3787.00,0.0016
3784.00,0.0016
3781.00,0.0016
3778.00,0.0016
3775.00,0.0017
3772.00,0.0018
3769.00,0.0020
3766.00,0.0019
3763.00,0.0019
3760.00,0.0019
3757.00,0.0020
3754.00,0.0023
3751.00,0.0026
3748.00,0.0027
3745.00,0.0026
3742.00,0.0023
3739.00,0.0027
3736.00,0.0027
3733.00,0.0026
3730.00,0.0022
3727.00,0.0022
3724.00,0.0020
3721.00,0.0019
3718.00,0.0018
3715.00,0.0019
3712.00,0.0020
3709.00,0.0020
3706.00,0.0018
3703.00,0.0017
3700.00,0.0016
3697.00,0.0017
3694.00,0.0018
3691.00,0.0017
3688.00,0.0020
3685.00,0.0020
3682.00,0.0019
3679.00,0.0019
3676.00,0.0021
3673.00,0.0023
3670.00,0.0023
3667.00,0.0019
3664.00,0.0017
3661.00,0.0016
3658.00,0.0018
3655.00,0.0020
3652.00,0.0023
3649.00,0.0025
3646.00,0.0022
3643.00,0.0020
3640.00,0.0018
3637.00,0.0019
3634.00,0.0019
3631.00,0.0022
3628.00,0.0023
3625.00,0.0021
3622.00,0.0021
3619.00,0.0020
3616.00,0.0022
3613.00,0.0022
3610.00,0.0023
3607.00,0.0021
3604.00,0.0019
3601.00,0.0018
3598.00,0.0019
3595.00,0.0020
3592.00,0.0021
3589.00,0.0022
3586.00,0.0020
3583.00,0.0019
3580.00,0.0018
3577.00,0.0018
3574.00,0.0018
3571.00,0.0019
3568.00,0.0021
3565.00,0.0020
3562.00,0.0020
3559.00,0.0019
3556.00,0.0019
3553.00,0.0019
3550.00,0.0020
3547.00,0.0021
3544.00,0.0020
3541.00,0.0019
3538.00,0.0019
3535.00,0.0019
3532.00,0.0019
3529.00,0.0019
3526.00,0.0020
3523.00,0.0020
3520.00,0.0019
3517.00,0.0019
3514.00,0.0019
3511.00,0.0019
3508.00,0.0019
3505.00,0.0019
3502.00,0.0019
3499.00,0.0019
3496.00,0.0019
3493.00,0.0019
3490.00,0.0019
3487.00,0.0018
3484.00,0.0018
3481.00,0.0019
3478.00,0.0019
3475.00,0.0018
3472.00,0.0018
3469.00,0.0018
3466.00,0.0018
3463.00,0.0018
3460.00,0.0018
3457.00,0.0017
3454.00,0.0017
3451.00,0.0017
3448.00,0.0017
3445.00,0.0017
3442.00,0.0017
3439.00,0.0017
3436.00,0.0017
3433.00,0.0016
3430.00,0.0016
3427.00,0.0016
3424.00,0.0016
3421.00,0.0015
3418.00,0.0016
3415.00,0.0016
3412.00,0.0016
3409.00,0.0016
3406.00,0.0015
3403.00,0.0015
3400.00,0.0015
3397.00,0.0015
3394.00,0.0015
3391.00,0.0015
3388.00,0.0014
3385.00,0.0014
3382.00,0.0014
3379.00,0.0014
3376.00,0.0013
3373.00,0.0013
3370.00,0.0014
3367.00,0.0014
3364.00,0.0013
3361.00,0.0013
3358.00,0.0013
3355.00,0.0012
3352.00,0.0012
3349.00,0.0012
3346.00,0.0011
3343.00,0.0011
3340.00,0.0011
3337.00,0.0011
3334.00,0.0011
3331.00,0.0011
3328.00,0.0011
3325.00,0.0011
3322.00,0.0010
3319.00,0.0010
3316.00,0.0011
3313.00,0.0011
3310.00,0.0011
3307.00,0.0011
3304.00,0.0011
3301.00,0.0011
3298.00,0.0011
3295.00,0.0011
3292.00,0.0011
3289.00,0.0011
3286.00,0.0011
3283.00,0.0011
3280.00,0.0010
3277.00,0.0010
3274.00,0.0011
3271.00,0.0011
3268.00,0.0011
3265.00,0.0011
3262.00,0.0010
3259.00,0.0011
3256.00,0.0012
3253.00,0.0011
3250.00,0.0011
3247.00,0.0012
3244.00,0.0011
3241.00,0.0011
3238.00,0.0011
3235.00,0.0012
3232.00,0.0012
3229.00,0.0012
3226.00,0.0011
3223.00,0.0011
3220.00,0.0012
3217.00,0.0012
3214.00,0.0012
3211.00,0.0012
3208.00,0.0013
3205.00,0.0012
3202.00,0.0012
3199.00,0.0012
3196.00,0.0012
3193.00,0.0012
3190.00,0.0012
3187.00,0.0012
3184.00,0.0012
3181.00,0.0012
3178.00,0.0012
3175.00,0.0012
3172.00,0.0013
3169.00,0.0012
3166.00,0.0012
3163.00,0.0013
3160.00,0.0013
3157.00,0.0013
3154.00,0.0013
3151.00,0.0013
3148.00,0.0013
3145.00,0.0012
3142.00,0.0013
3139.00,0.0013
3136.00,0.0013
3133.00,0.0013
3130.00,0.0013
3127.00,0.0013
3124.00,0.0013
3121.00,0.0014
3118.00,0.0014
3115.00,0.0015
3112.00,0.0016
3109.00,0.0018
3106.00,0.0021
3103.00,0.0022
3100.00,0.0022
3097.00,0.0021
3094.00,0.0021
3091.00,0.0025
3088.00,0.0031
3085.00,0.0039
3082.00,0.0043
3079.00,0.0040
3076.00,0.0035
3073.00,0.0033
3070.00,0.0035
3067.00,0.0040
3064.00,0.0047
3061.00,0.0054
3058.00,0.0055
3055.00,0.0048
3052.00,0.0041
3049.00,0.0036
3046.00,0.0033
3043.00,0.0033
3040.00,0.0036
3037.00,0.0042
3034.00,0.0053
3031.00,0.0071
3028.00,0.0091
3025.00,0.0101
3022.00,0.0091
3019.00,0.0068
3016.00,0.0048
3013.00,0.0037
3010.00,0.0031
3007.00,0.0031
3004.00,0.0033
3001.00,0.0034
2998.00,0.0031
2995.00,0.0026
2992.00,0.0022
2989.00,0.0020
2986.00,0.0020
2983.00,0.0020
2980.00,0.0020
2977.00,0.0021
2974.00,0.0021
2971.00,0.0022
2968.00,0.0022
2965.00,0.0024
2962.00,0.0026
2959.00,0.0028
2956.00,0.0030
2953.00,0.0034
2950.00,0.0038
2947.00,0.0044
2944.00,0.0051
2941.00,0.0059
2938.00,0.0068
2935.00,0.0079
2932.00,0.0092
2929.00,0.0103
2926.00,0.0112
2923.00,0.0117
2920.00,0.0117
2917.00,0.0114
2914.00,0.0108
2911.00,0.0100
2908.00,0.0090
2905.00,0.0081
2902.00,0.0073
2899.00,0.0064
2896.00,0.0057
2893.00,0.0051
2890.00,0.0047
2887.00,0.0044
2884.00,0.0041
2881.00,0.0039
2878.00,0.0037
2875.00,0.0035
2872.00,0.0033
2869.00,0.0033
2866.00,0.0033
2863.00,0.0035
2860.00,0.0039
2857.00,0.0045
2854.00,0.0050
2851.00,0.0054
2848.00,0.0055
2845.00,0.0051
2842.00,0.0044
2839.00,0.0036
2836.00,0.0028
2833.00,0.0023
2830.00,0.0020
2827.00,0.0019
2824.00,0.0018
2821.00,0.0017
2818.00,0.0016
2815.00,0.0016
2812.00,0.0016
2809.00,0.0016
2806.00,0.0016
2803.00,0.0016
2800.00,0.0016
2797.00,0.0016
2794.00,0.0015
2791.00,0.0014
2788.00,0.0014
2785.00,0.0014
2782.00,0.0014
2779.00,0.0015
2776.00,0.0014
2773.00,0.0014
2770.00,0.0014
2767.00,0.0014
2764.00,0.0014
2761.00,0.0014
2758.00,0.0013
2755.00,0.0014
2752.00,0.0014
2749.00,0.0013
2746.00,0.0013
2743.00,0.0013
2740.00,0.0013
2737.00,0.0013
2734.00,0.0013
2731.00,0.0013
2728.00,0.0013
2725.00,0.0013
2722.00,0.0014
2719.00,0.0014
2716.00,0.0013
2713.00,0.0013
2710.00,0.0013
2707.00,0.0013
2704.00,0.0013
2701.00,0.0013
2698.00,0.0013
2695.00,0.0013
2692.00,0.0013
2689.00,0.0013
2686.00,0.0013
2683.00,0.0013
2680.00,0.0013
2677.00,0.0013
2674.00,0.0013
2671.00,0.0013
2668.00,0.0013
2665.00,0.0014
2662.00,0.0015
2659.00,0.0015
2656.00,0.0016
2653.00,0.0016
2650.00,0.0016
2647.00,0.0017
2644.00,0.0016
2641.00,0.0016
2638.00,0.0016
2635.00,0.0017
2632.00,0.0016
2629.00,0.0016
2626.00,0.0016
2623.00,0.0015
2620.00,0.0015
2617.00,0.0015
2614.00,0.0015
2611.00,0.0014
2608.00,0.0014
2605.00,0.0014
2602.00,0.0014
2599.00,0.0014
2596.00,0.0014
2593.00,0.0013
2590.00,0.0013
2587.00,0.0013
2584.00,0.0012
2581.00,0.0012
2578.00,0.0011
2575.00,0.0011
2572.00,0.0011
2569.00,0.0011
2566.00,0.0011
2563.00,0.0011
2560.00,0.0011
2557.00,0.0010
2554.00,0.0011
2551.00,0.0012
2548.00,0.0011
2545.00,0.0011
2542.00,0.0011
2539.00,0.0010
2536.00,0.0010
2533.00,0.0010
2530.00,0.0010
2527.00,0.0010
2524.00,0.0009
2521.00,0.0009
2518.00,0.0009
2515.00,0.0010
2512.00,0.0010
2509.00,0.0008
2506.00,0.0009
2503.00,0.0009
2500.00,0.0010
2497.00,0.0009
2494.00,0.0009
2491.00,0.0009
2488.00,0.0009
2485.00,0.0010
2482.00,0.0009
2479.00,0.0008
2476.00,0.0008
2473.00,0.0008
2470.00,0.0008
2467.00,0.0009
2464.00,0.0009
2461.00,0.0009
2458.00,0.0010
2455.00,0.0010
2452.00,0.0009
2449.00,0.0009
2446.00,0.0009
2443.00,0.0008
2440.00,0.0008
2437.00,0.0008
2434.00,0.0007
2431.00,0.0007
2428.00,0.0007
2425.00,0.0006
2422.00,0.0007
2419.00,0.0007
2416.00,0.0006
2413.00,0.0006
2410.00,0.0006
2407.00,0.0005
2404.00,0.0005
2401.00,0.0005
2398.00,0.0005
2395.00,0.0006
2392.00,0.0006
2389.00,0.0005
2386.00,0.0005
2383.00,0.0004
2380.00,0.0004
2377.00,0.0004
2374.00,0.0003
2371.00,0.0001
2368.00,0.0002
2365.00,0.0003
2362.00,0.0003
2359.00,0.0004
2356.00,0.0003
2353.00,0.0003
2350.00,-0.0001
2347.00,0.0005
2344.00,0.0007
2341.00,0.0005
2338.00,0.0006
2335.00,0.0006
2332.00,0.0005
2329.00,0.0008
2326.00,0.0015
2323.00,0.0015
2320.00,0.0012
2317.00,0.0010
2314.00,0.0011
2311.00,0.0011
2308.00,0.0011
2305.00,0.0011
2302.00,0.0011
2299.00,0.0011
2296.00,0.0013
2293.00,0.0014
2290.00,0.0015
2287.00,0.0016
2284.00,0.0015
2281.00,0.0013
2278.00,0.0011
2275.00,0.0011
2272.00,0.0011
2269.00,0.0010
2266.00,0.0008
2263.00,0.0009
2260.00,0.0010
2257.00,0.0008
2254.00,0.0006
2251.00,0.0008
2248.00,0.0008
2245.00,0.0008
2242.00,0.0007
2239.00,0.0007
2236.00,0.0008
2233.00,0.0010
2230.00,0.0008
2227.00,0.0006
2224.00,0.0007
2221.00,0.0008
2218.00,0.0006
2215.00,0.0006
2212.00,0.0005
2209.00,0.0005
2206.00,0.0007
2203.00,0.0006
2200.00,0.0007
2197.00,0.0009
2194.00,0.0008
2191.00,0.0006
2188.00,0.0007
2185.00,0.0006
2182.00,0.0001
2179.00,0.0001
2176.00,0.0003
2173.00,0.0005
2170.00,0.0009
2167.00,0.0012
2164.00,0.0013
2161.00,0.0007
2158.00,-0.0013
2155.00,-0.0013
2152.00,-0.0008
2149.00,-0.0008
2146.00,-0.0012
2143.00,-0.0009
2140.00,-0.0006
2137.00,-0.0007
2134.00,-0.0010
2131.00,-0.0007
2128.00,-0.0003
2125.00,-0.0002
2122.00,-0.0000
2119.00,0.0001
2116.00,0.0004
2113.00,0.0004
2110.00,0.0003
2107.00,0.0004
2104.00,0.0004
2101.00,0.0003
2098.00,0.0002
2095.00,0.0000
2092.00,0.0002
2089.00,0.0005
2086.00,0.0005
2083.00,0.0005
2080.00,0.0006
2077.00,0.0006
2074.00,0.0005
2071.00,0.0006
2068.00,0.0004
2065.00,0.0004
2062.00,0.0004
2059.00,0.0003
2056.00,0.0004
2053.00,0.0009
2050.00,0.0012
2047.00,0.0004
2044.00,0.0004
2041.00,0.0005
2038.00,0.0006
2035.00,0.0006
2032.00,-0.0000
2029.00,-0.0003
2026.00,-0.0003
2023.00,-0.0001
2020.00,-0.0001
2017.00,-0.0003
2014.00,-0.0005
2011.00,-0.0003
2008.00,-0.0004
2005.00,-0.0006
2002.00,0.0000
1999.00,0.0000
1996.00,0.0003
1993.00,0.0005
1990.00,0.0005
1987.00,0.0010
1984.00,0.0012
1981.00,0.0017
1978.00,0.0007
1975.00,0.0000
1972.00,0.0002
1969.00,0.0001
1966.00,0.0002
1963.00,0.0004
1960.00,0.0001
1957.00,0.0002
1954.00,0.0006
1951.00,0.0008
1948.00,0.0011
1945.00,0.0011
1942.00,0.0012
1939.00,0.0013
1936.00,0.0010
1933.00,0.0007
1930.00,0.0006
1927.00,0.0003
1924.00,0.0002
1921.00,0.0005
1918.00,0.0005
1915.00,0.0002
1912.00,0.0003
1909.00,0.0002
1906.00,0.0003
1903.00,0.0003
1900.00,0.0004
1897.00,0.0005
1894.00,0.0007
1891.00,0.0008
1888.00,0.0010
1885.00,0.0011
1882.00,0.0011
1879.00,0.0012
1876.00,0.0012
1873.00,0.0013
1870.00,0.0015
1867.00,0.0014
1864.00,0.0013
1861.00,0.0010
1858.00,0.0009
1855.00,0.0008
1852.00,0.0006
1849.00,0.0006
1846.00,0.0007
1843.00,0.0008
1840.00,0.0007
1837.00,0.0005
1834.00,0.0006
1831.00,0.0006
1828.00,0.0007
1825.00,0.0010
1822.00,0.0010
1819.00,0.0009
1816.00,0.0010
1813.00,0.0012
1810.00,0.0015
1807.00,0.0018
1804.00,0.0019
1801.00,0.0020
1798.00,0.0019
1795.00,0.0018
1792.00,0.0018
1789.00,0.0015
1786.00,0.0014
1783.00,0.0012
1780.00,0.0012
1777.00,0.0013
1774.00,0.0013
1771.00,0.0015
1768.00,0.0017
1765.00,0.0015
1762.00,0.0015
1759.00,0.0017
1756.00,0.0020
1753.00,0.0023
1750.00,0.0027
1747.00,0.0026
1744.00,0.0025
1741.00,0.0026
1738.00,0.0027
1735.00,0.0029
1732.00,0.0027
1729.00,0.0024
1726.00,0.0023
1723.00,0.0022
1720.00,0.0022
1717.00,0.0025
1714.00,0.0023
1711.00,0.0021
1708.00,0.0020
1705.00,0.0019
1702.00,0.0020
1699.00,0.0021
1696.00,0.0018
1693.00,0.0020
1690.00,0.0019
1687.00,0.0019
1684.00,0.0019
1681.00,0.0020
1678.00,0.0021
1675.00,0.0022
1672.00,0.0022
1669.00,0.0019
1666.00,0.0019
1663.00,0.0020
1660.00,0.0019
1657.00,0.0018
1654.00,0.0014
1651.00,0.0016
1648.00,0.0019
1645.00,0.0020
1642.00,0.0019
1639.00,0.0019
1636.00,0.0018
1633.00,0.0018
1630.00,0.0019
1627.00,0.0019
1624.00,0.0020
1621.00,0.0020
1618.00,0.0019
1615.00,0.0022
1612.00,0.0026
1609.00,0.0037
1606.00,0.0061
1603.00,0.0094
1600.00,0.0103
1597.00,0.0076
1594.00,0.0050
1591.00,0.0037
1588.00,0.0033
1585.00,0.0041
1582.00,0.0045
1579.00,0.0031
1576.00,0.0021
1573.00,0.0020
1570.00,0.0018
1567.00,0.0019
1564.00,0.0017
1561.00,0.0014
1558.00,0.0021
1555.00,0.0022
1552.00,0.0022
1549.00,0.0023
1546.00,0.0026
1543.00,0.0027
1540.00,0.0026
1537.00,0.0023
1534.00,0.0023
1531.00,0.0020
1528.00,0.0020
1525.00,0.0021
1522.00,0.0021
1519.00,0.0020
1516.00,0.0020
1513.00,0.0023
1510.00,0.0022
1507.00,0.0023
1504.00,0.0031
1501.00,0.0043
1498.00,0.0083
1495.00,0.0198
1492.00,0.0270
1489.00,0.0167
1486.00,0.0086
1483.00,0.0055
1480.00,0.0041
1477.00,0.0036
1474.00,0.0036
1471.00,0.0035
1468.00,0.0034
1465.00,0.0037
1462.00,0.0043
1459.00,0.0059
1456.00,0.0147
1453.00,0.0249
1450.00,0.0253
1447.00,0.0190
1444.00,0.0148
1441.00,0.0114
1438.00,0.0092
1435.00,0.0063
1432.00,0.0047
1429.00,0.0035
1426.00,0.0030
1423.00,0.0027
1420.00,0.0027
1417.00,0.0026
1414.00,0.0025
1411.00,0.0024
1408.00,0.0025
1405.00,0.0025
1402.00,0.0025
1399.00,0.0027
1396.00,0.0028
1393.00,0.0030
1390.00,0.0034
1387.00,0.0039
1384.00,0.0044
1381.00,0.0048
1378.00,0.0053
1375.00,0.0056
1372.00,0.0057
1369.00,0.0056
1366.00,0.0056
1363.00,0.0053
1360.00,0.0051
1357.00,0.0049
1354.00,0.0048
1351.00,0.0048
1348.00,0.0047
1345.00,0.0045
1342.00,0.0042
1339.00,0.0039
1336.00,0.0040
1333.00,0.0043
1330.00,0.0047
1327.00,0.0047
1324.00,0.0045
1321.00,0.0043
1318.00,0.0042
1315.00,0.0043
1312.00,0.0044
1309.00,0.0044
1306.00,0.0042
1303.00,0.0040
1300.00,0.0037
1297.00,0.0036
1294.00,0.0036
1291.00,0.0035
1288.00,0.0034
1285.00,0.0033
1282.00,0.0033
1279.00,0.0033
1276.00,0.0031
1273.00,0.0029
1270.00,0.0027
1267.00,0.0026
1264.00,0.0026
1261.00,0.0025
1258.00,0.0026
1255.00,0.0026
1252.00,0.0026
1249.00,0.0027
1246.00,0.0027
1243.00,0.0027
1240.00,0.0027
1237.00,0.0027
1234.00,0.0027
1231.00,0.0027
1228.00,0.0028
1225.00,0.0028
1222.00,0.0028
1219.00,0.0028
1216.00,0.0029
1213.00,0.0030
1210.00,0.0031
1207.00,0.0033
1204.00,0.0036
1201.00,0.0039
1198.00,0.0043
1195.00,0.0045
1192.00,0.0046
1189.00,0.0047
1186.00,0.0052
1183.00,0.0062
1180.00,0.0062
1177.00,0.0050
1174.00,0.0040
1171.00,0.0036
1168.00,0.0034
1165.00,0.0033
1162.00,0.0035
1159.00,0.0044
1156.00,0.0057
1153.00,0.0059
1150.00,0.0046
1147.00,0.0036
1144.00,0.0031
1141.00,0.0028
1138.00,0.0026
1135.00,0.0025
1132.00,0.0024
1129.00,0.0024
1126.00,0.0023
1123.00,0.0024
1120.00,0.0025
1117.00,0.0028
1114.00,0.0029
1111.00,0.0029
1108.00,0.0028
1105.00,0.0028
1102.00,0.0029
1099.00,0.0031
1096.00,0.0034
1093.00,0.0036
1090.00,0.0038
1087.00,0.0042
1084.00,0.0047
1081.00,0.0052
1078.00,0.0057
1075.00,0.0065
1072.00,0.0075
1069.00,0.0080
1066.00,0.0074
1063.00,0.0062
1060.00,0.0050
1057.00,0.0043
1054.00,0.0039
1051.00,0.0035
1048.00,0.0032
1045.00,0.0030
1042.00,0.0031
1039.00,0.0035
1036.00,0.0049
1033.00,0.0086
1030.00,0.0126
1027.00,0.0136
1024.00,0.0109
1021.00,0.0084
1018.00,0.0069
1015.00,0.0059
1012.00,0.0052
1009.00,0.0049
1006.00,0.0051
1003.00,0.0055
1000.00,0.0047
997.00,0.0036
994.00,0.0035
991.00,0.0037
988.00,0.0038
985.00,0.0042
982.00,0.0048
979.00,0.0051
976.00,0.0050
973.00,0.0048
970.00,0.0051
967.00,0.0059
964.00,0.0062
961.00,0.0058
958.00,0.0050
955.00,0.0045
952.00,0.0044
949.00,0.0045
946.00,0.0049
943.00,0.0051
940.00,0.0049
937.00,0.0044
934.00,0.0039
931.00,0.0035
928.00,0.0034
925.00,0.0035
922.00,0.0038
919.00,0.0044
916.00,0.0054
913.00,0.0071
910.00,0.0093
907.00,0.0109
904.00,0.0102
901.00,0.0078
898.00,0.0055
895.00,0.0041
892.00,0.0034
889.00,0.0031
886.00,0.0030
883.00,0.0028
880.00,0.0026
877.00,0.0026
874.00,0.0025
871.00,0.0025
868.00,0.0024
865.00,0.0023
862.00,0.0023
859.00,0.0023
856.00,0.0023
853.00,0.0026
850.00,0.0033
847.00,0.0043
844.00,0.0051
841.00,0.0053
838.00,0.0047
835.00,0.0037
832.00,0.0028
829.00,0.0023
826.00,0.0022
823.00,0.0022
820.00,0.0021
817.00,0.0022
814.00,0.0023
811.00,0.0024
808.00,0.0024
805.00,0.0025
802.00,0.0027
799.00,0.0031
796.00,0.0036
793.00,0.0043
790.00,0.0052
787.00,0.0062
784.00,0.0074
781.00,0.0091
778.00,0.0115
775.00,0.0151
772.00,0.0196
769.00,0.0251
766.00,0.0310
763.00,0.0365
760.00,0.0426
757.00,0.0474
754.00,0.0489
751.00,0.0487
748.00,0.0482
745.00,0.0442
742.00,0.0350
739.00,0.0256
736.00,0.0183
733.00,0.0121
730.00,0.0079
727.00,0.0061
724.00,0.0054
721.00,0.0051
718.00,0.0055
715.00,0.0067
712.00,0.0101
709.00,0.0188
706.00,0.0370
703.00,0.0662
700.00,0.1021
697.00,0.1378
694.00,0.1527
691.00,0.1189
688.00,0.0772
685.00,0.0534
682.00,0.0403
679.00,0.0319
676.00,0.0265
673.00,0.0231
670.00,0.0205
667.00,0.0173
664.00,0.0159
661.00,0.0140
658.00,0.0120
655.00,0.0103
652.00,0.0089
649.00,0.0081
646.00,0.0071
643.00,0.0067
640.00,0.0067
637.00,0.0071
634.00,0.0079
631.00,0.0084
628.00,0.0088
625.00,0.0092
622.00,0.0097
619.00,0.0095
616.00,0.0085
613.00,0.0078
610.00,0.0072
607.00,0.0072
604.00,0.0071
601.00,0.0073
598.00,0.0076
595.00,0.0080
592.00,0.0082
589.00,0.0087
586.00,0.0095
583.00,0.0103
580.00,0.0113
577.00,0.0127
574.00,0.0153
571.00,0.0176
568.00,0.0199
565.00,0.0217
562.00,0.0238
559.00,0.0259
556.00,0.0282
553.00,0.0310
550.00,0.0344
547.00,0.0391
544.00,0.0447
541.00,0.0504
538.00,0.0538
535.00,0.0515
532.00,0.0442
529.00,0.0360
526.00,0.0289
523.00,0.0233
520.00,0.0200
517.00,0.0174
514.00,0.0158
511.00,0.0147
508.00,0.0133
505.00,0.0119
502.00,0.0114
499.00,0.0100
496.00,0.0098
493.00,0.0091
490.00,0.0088
487.00,0.0090
484.00,0.0086
481.00,0.0084
478.00,0.0086
475.00,0.0084
472.00,0.0072
469.00,0.0074
466.00,0.0075
463.00,0.0071
460.00,0.0076
457.00,0.0076
454.00,0.0071
451.00,0.0070
448.00,0.0071
445.00,0.0070
442.00,0.0071
439.00,0.0066
436.00,0.0055
433.00,0.0049
430.00,0.0055
427.00,0.0061
424.00,0.0067
421.00,0.0067
418.00,0.0066
415.00,0.0065
412.00,0.0072
409.00,0.0061
406.00,0.0084
403.00,0.0087
400.00,0.0058