File: FTIR/Mary/2024_07_27_HIFaFilm_Unstretched_5.csv
Created as New Dataset,Sample 288 By YargerLab Date Saturday, July 27 2024
cm-1,A
4000.00,-0.0005
3997.00,-0.0005
3994.00,-0.0005
3991.00,-0.0005
3988.00,-0.0005
3985.00,-0.0005
3982.00,-0.0005
3979.00,-0.0005
3976.00,-0.0006
3973.00,-0.0005
3970.00,-0.0005
3967.00,-0.0005
3964.00,-0.0005
3961.00,-0.0006
3958.00,-0.0006
3955.00,-0.0006
3952.00,-0.0006
3949.00,-0.0006
3946.00,-0.0006
3943.00,-0.0006
3940.00,-0.0006
3937.00,-0.0006
3934.00,-0.0006
3931.00,-0.0005
3928.00,-0.0006
3925.00,-0.0006
3922.00,-0.0006
3919.00,-0.0006
3916.00,-0.0006
3913.00,-0.0006
3910.00,-0.0006
3907.00,-0.0006
3904.00,-0.0006
3901.00,-0.0007
3898.00,-0.0006
3895.00,-0.0006
3892.00,-0.0007
3889.00,-0.0006
3886.00,-0.0006
3883.00,-0.0007
3880.00,-0.0006
3877.00,-0.0006
3874.00,-0.0006
3871.00,-0.0007
3868.00,-0.0007
3865.00,-0.0007
3862.00,-0.0006
3859.00,-0.0006
3856.00,-0.0007
3853.00,-0.0007
3850.00,-0.0007
3847.00,-0.0007
3844.00,-0.0006
3841.00,-0.0006
3838.00,-0.0007
3835.00,-0.0007
3832.00,-0.0007
3829.00,-0.0007
3826.00,-0.0006
3823.00,-0.0007
3820.00,-0.0007
3817.00,-0.0007
3814.00,-0.0006
3811.00,-0.0006
3808.00,-0.0006
3805.00,-0.0006
3802.00,-0.0007
3799.00,-0.0007
3796.00,-0.0007
3793.00,-0.0007
3790.00,-0.0006
3787.00,-0.0006
3784.00,-0.0006
3781.00,-0.0006
3778.00,-0.0006
3775.00,-0.0006
3772.00,-0.0006
3769.00,-0.0006
3766.00,-0.0006
3763.00,-0.0006
3760.00,-0.0006
3757.00,-0.0006
3754.00,-0.0006
3751.00,-0.0006
3748.00,-0.0007
3745.00,-0.0007
3742.00,-0.0006
3739.00,-0.0006
3736.00,-0.0006
3733.00,-0.0007
3730.00,-0.0006
3727.00,-0.0006
3724.00,-0.0006
3721.00,-0.0006
3718.00,-0.0006
3715.00,-0.0006
3712.00,-0.0006
3709.00,-0.0006
3706.00,-0.0005
3703.00,-0.0005
3700.00,-0.0005
3697.00,-0.0005
3694.00,-0.0005
3691.00,-0.0005
3688.00,-0.0005
3685.00,-0.0005
3682.00,-0.0004
3679.00,-0.0004
3676.00,-0.0005
3673.00,-0.0004
3670.00,-0.0004
3667.00,-0.0003
3664.00,-0.0002
3661.00,-0.0002
3658.00,-0.0002
3655.00,-0.0002
3652.00,-0.0002
3649.00,-0.0001
3646.00,-0.0001
3643.00,0.0000
3640.00,0.0001
3637.00,0.0001
3634.00,0.0002
3631.00,0.0001
3628.00,0.0002
3625.00,0.0002
3622.00,0.0003
3619.00,0.0004
3616.00,0.0004
3613.00,0.0004
3610.00,0.0005
3607.00,0.0006
3604.00,0.0007
3601.00,0.0008
3598.00,0.0008
3595.00,0.0009
3592.00,0.0009
3589.00,0.0010
3586.00,0.0009
3583.00,0.0011
3580.00,0.0012
3577.00,0.0012
3574.00,0.0013
3571.00,0.0013
3568.00,0.0014
3565.00,0.0014
3562.00,0.0015
3559.00,0.0016
3556.00,0.0016
3553.00,0.0017
3550.00,0.0018
3547.00,0.0018
3544.00,0.0018
3541.00,0.0019
3538.00,0.0020
3535.00,0.0021
3532.00,0.0021
3529.00,0.0022
3526.00,0.0022
3523.00,0.0023
3520.00,0.0023
3517.00,0.0024
3514.00,0.0025
3511.00,0.0025
3508.00,0.0026
3505.00,0.0027
3502.00,0.0027
3499.00,0.0027
3496.00,0.0028
3493.00,0.0029
3490.00,0.0029
3487.00,0.0030
3484.00,0.0031
3481.00,0.0031
3478.00,0.0032
3475.00,0.0032
3472.00,0.0033
3469.00,0.0034
3466.00,0.0034
3463.00,0.0035
3460.00,0.0035
3457.00,0.0036
3454.00,0.0036
3451.00,0.0037
3448.00,0.0038
3445.00,0.0038
3442.00,0.0039
3439.00,0.0039
3436.00,0.0040
3433.00,0.0040
3430.00,0.0041
3427.00,0.0042
3424.00,0.0042
3421.00,0.0042
3418.00,0.0043
3415.00,0.0044
3412.00,0.0045
3409.00,0.0045
3406.00,0.0045
3403.00,0.0046
3400.00,0.0047
3397.00,0.0047
3394.00,0.0048
3391.00,0.0048
3388.00,0.0049
3385.00,0.0049
3382.00,0.0050
3379.00,0.0050
3376.00,0.0051
3373.00,0.0052
3370.00,0.0053
3367.00,0.0054
3364.00,0.0055
3361.00,0.0055
3358.00,0.0056
3355.00,0.0057
3352.00,0.0058
3349.00,0.0059
3346.00,0.0060
3343.00,0.0061
3340.00,0.0062
3337.00,0.0063
3334.00,0.0065
3331.00,0.0066
3328.00,0.0068
3325.00,0.0069
3322.00,0.0071
3319.00,0.0072
3316.00,0.0074
3313.00,0.0076
3310.00,0.0078
3307.00,0.0080
3304.00,0.0082
3301.00,0.0084
3298.00,0.0086
3295.00,0.0088
3292.00,0.0090
3289.00,0.0092
3286.00,0.0094
3283.00,0.0095
3280.00,0.0096
3277.00,0.0097
3274.00,0.0097
3271.00,0.0098
3268.00,0.0097
3265.00,0.0095
3262.00,0.0094
3259.00,0.0092
3256.00,0.0091
3253.00,0.0089
3250.00,0.0087
3247.00,0.0085
3244.00,0.0083
3241.00,0.0081
3238.00,0.0080
3235.00,0.0079
3232.00,0.0077
3229.00,0.0075
3226.00,0.0074
3223.00,0.0073
3220.00,0.0072
3217.00,0.0071
3214.00,0.0070
3211.00,0.0069
3208.00,0.0068
3205.00,0.0067
3202.00,0.0066
3199.00,0.0065
3196.00,0.0063
3193.00,0.0063
3190.00,0.0062
3187.00,0.0061
3184.00,0.0060
3181.00,0.0059
3178.00,0.0058
3175.00,0.0056
3172.00,0.0056
3169.00,0.0055
3166.00,0.0054
3163.00,0.0053
3160.00,0.0052
3157.00,0.0051
3154.00,0.0050
3151.00,0.0049
3148.00,0.0049
3145.00,0.0048
3142.00,0.0047
3139.00,0.0047
3136.00,0.0046
3133.00,0.0046
3130.00,0.0045
3127.00,0.0045
3124.00,0.0045
3121.00,0.0044
3118.00,0.0044
3115.00,0.0044
3112.00,0.0044
3109.00,0.0044
3106.00,0.0044
3103.00,0.0044
3100.00,0.0044
3097.00,0.0045
3094.00,0.0045
3091.00,0.0045
3088.00,0.0045
3085.00,0.0045
3082.00,0.0045
3079.00,0.0045
3076.00,0.0045
3073.00,0.0045
3070.00,0.0045
3067.00,0.0044
3064.00,0.0044
3061.00,0.0043
3058.00,0.0043
3055.00,0.0042
3052.00,0.0041
3049.00,0.0040
3046.00,0.0039
3043.00,0.0038
3040.00,0.0037
3037.00,0.0037
3034.00,0.0036
3031.00,0.0035
3028.00,0.0035
3025.00,0.0034
3022.00,0.0033
3019.00,0.0033
3016.00,0.0032
3013.00,0.0031
3010.00,0.0031
3007.00,0.0031
3004.00,0.0031
3001.00,0.0031
2998.00,0.0031
2995.00,0.0031
2992.00,0.0032
2989.00,0.0033
2986.00,0.0034
2983.00,0.0036
2980.00,0.0037
2977.00,0.0039
2974.00,0.0040
2971.00,0.0042
2968.00,0.0043
2965.00,0.0044
2962.00,0.0044
2959.00,0.0044
2956.00,0.0043
2953.00,0.0042
2950.00,0.0041
2947.00,0.0040
2944.00,0.0041
2941.00,0.0042
2938.00,0.0043
2935.00,0.0044
2932.00,0.0044
2929.00,0.0044
2926.00,0.0043
2923.00,0.0042
2920.00,0.0041
2917.00,0.0039
2914.00,0.0038
2911.00,0.0036
2908.00,0.0035
2905.00,0.0034
2902.00,0.0033
2899.00,0.0032
2896.00,0.0031
2893.00,0.0030
2890.00,0.0030
2887.00,0.0031
2884.00,0.0031
2881.00,0.0031
2878.00,0.0032
2875.00,0.0032
2872.00,0.0031
2869.00,0.0030
2866.00,0.0029
2863.00,0.0028
2860.00,0.0027
2857.00,0.0026
2854.00,0.0026
2851.00,0.0025
2848.00,0.0024
2845.00,0.0023
2842.00,0.0021
2839.00,0.0020
2836.00,0.0020
2833.00,0.0020
2830.00,0.0019
2827.00,0.0019
2824.00,0.0019
2821.00,0.0018
2818.00,0.0018
2815.00,0.0018
2812.00,0.0018
2809.00,0.0018
2806.00,0.0017
2803.00,0.0017
2800.00,0.0017
2797.00,0.0017
2794.00,0.0016
2791.00,0.0016
2788.00,0.0016
2785.00,0.0015
2782.00,0.0015
2779.00,0.0015
2776.00,0.0014
2773.00,0.0014
2770.00,0.0014
2767.00,0.0013
2764.00,0.0013
2761.00,0.0012
2758.00,0.0012
2755.00,0.0012
2752.00,0.0011
2749.00,0.0011
2746.00,0.0011
2743.00,0.0011
2740.00,0.0010
2737.00,0.0010
2734.00,0.0010
2731.00,0.0010
2728.00,0.0009
2725.00,0.0009
2722.00,0.0009
2719.00,0.0008
2716.00,0.0008
2713.00,0.0008
2710.00,0.0008
2707.00,0.0008
2704.00,0.0008
2701.00,0.0008
2698.00,0.0007
2695.00,0.0007
2692.00,0.0007
2689.00,0.0007
2686.00,0.0007
2683.00,0.0006
2680.00,0.0006
2677.00,0.0006
2674.00,0.0006
2671.00,0.0006
2668.00,0.0006
2665.00,0.0005
2662.00,0.0005
2659.00,0.0005
2656.00,0.0004
2653.00,0.0004
2650.00,0.0004
2647.00,0.0004
2644.00,0.0004
2641.00,0.0004
2638.00,0.0004
2635.00,0.0004
2632.00,0.0004
2629.00,0.0004
2626.00,0.0003
2623.00,0.0004
2620.00,0.0003
2617.00,0.0003
2614.00,0.0003
2611.00,0.0003
2608.00,0.0003
2605.00,0.0003
2602.00,0.0003
2599.00,0.0003
2596.00,0.0003
2593.00,0.0003
2590.00,0.0003
2587.00,0.0003
2584.00,0.0002
2581.00,0.0002
2578.00,0.0002
2575.00,0.0002
2572.00,0.0002
2569.00,0.0002
2566.00,0.0002
2563.00,0.0002
2560.00,0.0001
2557.00,0.0002
2554.00,0.0002
2551.00,0.0002
2548.00,0.0001
2545.00,0.0001
2542.00,0.0001
2539.00,0.0001
2536.00,0.0001
2533.00,0.0001
2530.00,0.0001
2527.00,0.0001
2524.00,0.0001
2521.00,0.0000
2518.00,0.0000
2515.00,0.0001
2512.00,0.0000
2509.00,0.0000
2506.00,0.0000
2503.00,0.0000
2500.00,-0.0000
2497.00,-0.0000
2494.00,-0.0000
2491.00,-0.0001
2488.00,-0.0001
2485.00,-0.0000
2482.00,-0.0001
2479.00,-0.0001
2476.00,-0.0001
2473.00,-0.0001
2470.00,-0.0001
2467.00,-0.0001
2464.00,-0.0001
2461.00,-0.0001
2458.00,-0.0001
2455.00,-0.0001
2452.00,-0.0001
2449.00,-0.0002
2446.00,-0.0002
2443.00,-0.0001
2440.00,-0.0002
2437.00,-0.0002
2434.00,-0.0002
2431.00,-0.0002
2428.00,-0.0002
2425.00,-0.0002
2422.00,-0.0002
2419.00,-0.0002
2416.00,-0.0002
2413.00,-0.0002
2410.00,-0.0002
2407.00,-0.0002
2404.00,-0.0002
2401.00,-0.0002
2398.00,-0.0002
2395.00,-0.0003
2392.00,-0.0003
2389.00,-0.0003
2386.00,-0.0003
2383.00,-0.0003
2380.00,-0.0003
2377.00,-0.0003
2374.00,-0.0003
2371.00,-0.0003
2368.00,-0.0003
2365.00,-0.0003
2362.00,-0.0003
2359.00,-0.0003
2356.00,-0.0003
2353.00,-0.0003
2350.00,-0.0003
2347.00,-0.0003
2344.00,-0.0003
2341.00,-0.0003
2338.00,-0.0003
2335.00,-0.0004
2332.00,-0.0003
2329.00,-0.0004
2326.00,-0.0005
2323.00,-0.0005
2320.00,-0.0005
2317.00,-0.0004
2314.00,-0.0004
2311.00,-0.0004
2308.00,-0.0004
2305.00,-0.0004
2302.00,-0.0004
2299.00,-0.0004
2296.00,-0.0004
2293.00,-0.0005
2290.00,-0.0005
2287.00,-0.0005
2284.00,-0.0004
2281.00,-0.0004
2278.00,-0.0005
2275.00,-0.0005
2272.00,-0.0004
2269.00,-0.0004
2266.00,-0.0004
2263.00,-0.0004
2260.00,-0.0004
2257.00,-0.0004
2254.00,-0.0004
2251.00,-0.0004
2248.00,-0.0005
2245.00,-0.0004
2242.00,-0.0004
2239.00,-0.0003
2236.00,-0.0003
2233.00,-0.0003
2230.00,-0.0004
2227.00,-0.0004
2224.00,-0.0003
2221.00,-0.0003
2218.00,-0.0003
2215.00,-0.0003
2212.00,-0.0004
2209.00,-0.0004
2206.00,-0.0004
2203.00,-0.0004
2200.00,-0.0004
2197.00,-0.0005
2194.00,-0.0004
2191.00,-0.0004
2188.00,-0.0004
2185.00,-0.0004
2182.00,-0.0002
2179.00,-0.0002
2176.00,-0.0002
2173.00,-0.0005
2170.00,-0.0006
2167.00,-0.0004
2164.00,-0.0005
2161.00,-0.0006
2158.00,-0.0001
2155.00,0.0001
2152.00,-0.0002
2149.00,-0.0003
2146.00,-0.0003
2143.00,-0.0003
2140.00,-0.0001
2137.00,-0.0002
2134.00,-0.0001
2131.00,-0.0002
2128.00,-0.0004
2125.00,-0.0003
2122.00,-0.0003
2119.00,-0.0003
2116.00,-0.0003
2113.00,-0.0004
2110.00,-0.0004
2107.00,-0.0004
2104.00,-0.0004
2101.00,-0.0004
2098.00,-0.0003
2095.00,-0.0003
2092.00,-0.0004
2089.00,-0.0004
2086.00,-0.0003
2083.00,-0.0004
2080.00,-0.0004
2077.00,-0.0005
2074.00,-0.0004
2071.00,-0.0004
2068.00,-0.0004
2065.00,-0.0004
2062.00,-0.0003
2059.00,-0.0005
2056.00,-0.0005
2053.00,-0.0005
2050.00,-0.0005
2047.00,-0.0005
2044.00,-0.0006
2041.00,-0.0005
2038.00,-0.0003
2035.00,-0.0002
2032.00,-0.0006
2029.00,-0.0005
2026.00,-0.0003
2023.00,-0.0003
2020.00,-0.0004
2017.00,-0.0004
2014.00,-0.0004
2011.00,-0.0003
2008.00,-0.0004
2005.00,-0.0003
2002.00,-0.0003
1999.00,-0.0003
1996.00,-0.0004
1993.00,-0.0005
1990.00,-0.0005
1987.00,-0.0004
1984.00,-0.0005
1981.00,-0.0005
1978.00,-0.0002
1975.00,-0.0002
1972.00,-0.0004
1969.00,-0.0005
1966.00,-0.0006
1963.00,-0.0005
1960.00,-0.0004
1957.00,-0.0004
1954.00,-0.0004
1951.00,-0.0004
1948.00,-0.0005
1945.00,-0.0006
1942.00,-0.0004
1939.00,-0.0004
1936.00,-0.0004
1933.00,-0.0005
1930.00,-0.0006
1927.00,-0.0006
1924.00,-0.0005
1921.00,-0.0005
1918.00,-0.0005
1915.00,-0.0006
1912.00,-0.0005
1909.00,-0.0005
1906.00,-0.0005
1903.00,-0.0006
1900.00,-0.0005
1897.00,-0.0006
1894.00,-0.0005
1891.00,-0.0005
1888.00,-0.0005
1885.00,-0.0005
1882.00,-0.0005
1879.00,-0.0005
1876.00,-0.0005
1873.00,-0.0006
1870.00,-0.0006
1867.00,-0.0006
1864.00,-0.0006
1861.00,-0.0005
1858.00,-0.0005
1855.00,-0.0005
1852.00,-0.0006
1849.00,-0.0005
1846.00,-0.0005
1843.00,-0.0004
1840.00,-0.0006
1837.00,-0.0006
1834.00,-0.0006
1831.00,-0.0007
1828.00,-0.0006
1825.00,-0.0005
1822.00,-0.0006
1819.00,-0.0005
1816.00,-0.0005
1813.00,-0.0006
1810.00,-0.0005
1807.00,-0.0005
1804.00,-0.0006
1801.00,-0.0006
1798.00,-0.0005
1795.00,-0.0006
1792.00,-0.0004
1789.00,-0.0005
1786.00,-0.0004
1783.00,-0.0005
1780.00,-0.0004
1777.00,-0.0005
1774.00,-0.0005
1771.00,-0.0003
1768.00,-0.0002
1765.00,-0.0004
1762.00,-0.0003
1759.00,-0.0003
1756.00,-0.0001
1753.00,-0.0001
1750.00,-0.0001
1747.00,-0.0001
1744.00,0.0000
1741.00,0.0001
1738.00,0.0003
1735.00,0.0005
1732.00,0.0005
1729.00,0.0005
1726.00,0.0006
1723.00,0.0008
1720.00,0.0008
1717.00,0.0011
1714.00,0.0013
1711.00,0.0016
1708.00,0.0019
1705.00,0.0026
1702.00,0.0037
1699.00,0.0052
1696.00,0.0062
1693.00,0.0067
1690.00,0.0070
1687.00,0.0076
1684.00,0.0082
1681.00,0.0088
1678.00,0.0096
1675.00,0.0103
1672.00,0.0108
1669.00,0.0115
1666.00,0.0123
1663.00,0.0130
1660.00,0.0137
1657.00,0.0147
1654.00,0.0155
1651.00,0.0155
1648.00,0.0160
1645.00,0.0161
1642.00,0.0165
1639.00,0.0169
1636.00,0.0171
1633.00,0.0174
1630.00,0.0182
1627.00,0.0189
1624.00,0.0198
1621.00,0.0205
1618.00,0.0212
1615.00,0.0206
1612.00,0.0201
1609.00,0.0188
1606.00,0.0172
1603.00,0.0158
1600.00,0.0145
1597.00,0.0135
1594.00,0.0127
1591.00,0.0121
1588.00,0.0116
1585.00,0.0113
1582.00,0.0111
1579.00,0.0111
1576.00,0.0112
1573.00,0.0114
1570.00,0.0117
1567.00,0.0121
1564.00,0.0127
1561.00,0.0137
1558.00,0.0139
1555.00,0.0146
1552.00,0.0154
1549.00,0.0159
1546.00,0.0167
1543.00,0.0171
1540.00,0.0172
1537.00,0.0177
1534.00,0.0182
1531.00,0.0185
1528.00,0.0189
1525.00,0.0190
1522.00,0.0191
1519.00,0.0190
1516.00,0.0189
1513.00,0.0189
1510.00,0.0184
1507.00,0.0170
1504.00,0.0158
1501.00,0.0152
1498.00,0.0143
1495.00,0.0130
1492.00,0.0121
1489.00,0.0109
1486.00,0.0100
1483.00,0.0095
1480.00,0.0090
1477.00,0.0089
1474.00,0.0090
1471.00,0.0092
1468.00,0.0094
1465.00,0.0095
1462.00,0.0096
1459.00,0.0099
1456.00,0.0103
1453.00,0.0103
1450.00,0.0103
1447.00,0.0102
1444.00,0.0100
1441.00,0.0098
1438.00,0.0098
1435.00,0.0092
1432.00,0.0087
1429.00,0.0084
1426.00,0.0083
1423.00,0.0084
1420.00,0.0088
1417.00,0.0090
1414.00,0.0093
1411.00,0.0096
1408.00,0.0099
1405.00,0.0101
1402.00,0.0102
1399.00,0.0104
1396.00,0.0104
1393.00,0.0105
1390.00,0.0106
1387.00,0.0105
1384.00,0.0102
1381.00,0.0099
1378.00,0.0096
1375.00,0.0093
1372.00,0.0091
1369.00,0.0089
1366.00,0.0085
1363.00,0.0081
1360.00,0.0079
1357.00,0.0079
1354.00,0.0080
1351.00,0.0082
1348.00,0.0083
1345.00,0.0083
1342.00,0.0082
1339.00,0.0080
1336.00,0.0079
1333.00,0.0077
1330.00,0.0076
1327.00,0.0076
1324.00,0.0075
1321.00,0.0075
1318.00,0.0075
1315.00,0.0075
1312.00,0.0074
1309.00,0.0074
1306.00,0.0073
1303.00,0.0073
1300.00,0.0072
1297.00,0.0072
1294.00,0.0073
1291.00,0.0073
1288.00,0.0074
1285.00,0.0074
1282.00,0.0074
1279.00,0.0075
1276.00,0.0074
1273.00,0.0075
1270.00,0.0075
1267.00,0.0077
1264.00,0.0079
1261.00,0.0082
1258.00,0.0085
1255.00,0.0087
1252.00,0.0090
1249.00,0.0093
1246.00,0.0096
1243.00,0.0098
1240.00,0.0100
1237.00,0.0100
1234.00,0.0101
1231.00,0.0100
1228.00,0.0099
1225.00,0.0097
1222.00,0.0095
1219.00,0.0092
1216.00,0.0088
1213.00,0.0084
1210.00,0.0079
1207.00,0.0074
1204.00,0.0070
1201.00,0.0067
1198.00,0.0064
1195.00,0.0062
1192.00,0.0060
1189.00,0.0059
1186.00,0.0059
1183.00,0.0058
1180.00,0.0058
1177.00,0.0060
1174.00,0.0062
1171.00,0.0064
1168.00,0.0065
1165.00,0.0066
1162.00,0.0066
1159.00,0.0066
1156.00,0.0066
1153.00,0.0065
1150.00,0.0064
1147.00,0.0063
1144.00,0.0061
1141.00,0.0061
1138.00,0.0061
1135.00,0.0061
1132.00,0.0062
1129.00,0.0064
1126.00,0.0066
1123.00,0.0067
1120.00,0.0068
1117.00,0.0069
1114.00,0.0070
1111.00,0.0071
1108.00,0.0072
1105.00,0.0073
1102.00,0.0073
1099.00,0.0074
1096.00,0.0077
1093.00,0.0079
1090.00,0.0083
1087.00,0.0088
1084.00,0.0092
1081.00,0.0096
1078.00,0.0099
1075.00,0.0101
1072.00,0.0102
1069.00,0.0102
1066.00,0.0102
1063.00,0.0101
1060.00,0.0099
1057.00,0.0097
1054.00,0.0095
1051.00,0.0092
1048.00,0.0090
1045.00,0.0087
1042.00,0.0084
1039.00,0.0081
1036.00,0.0078
1033.00,0.0076
1030.00,0.0074
1027.00,0.0071
1024.00,0.0068
1021.00,0.0064
1018.00,0.0060
1015.00,0.0057
1012.00,0.0053
1009.00,0.0049
1006.00,0.0046
1003.00,0.0043
1000.00,0.0041
997.00,0.0039
994.00,0.0038
991.00,0.0037
988.00,0.0037
985.00,0.0038
982.00,0.0038
979.00,0.0040
976.00,0.0042
973.00,0.0042
970.00,0.0042
967.00,0.0042
964.00,0.0040
961.00,0.0040
958.00,0.0039
955.00,0.0038
952.00,0.0038
949.00,0.0038
946.00,0.0038
943.00,0.0038
940.00,0.0038
937.00,0.0039
934.00,0.0039
931.00,0.0038
928.00,0.0037
925.00,0.0036
922.00,0.0034
919.00,0.0033
916.00,0.0032
913.00,0.0031
910.00,0.0030
907.00,0.0030
904.00,0.0031
901.00,0.0031
898.00,0.0031
895.00,0.0030
892.00,0.0030
889.00,0.0031
886.00,0.0031
883.00,0.0031
880.00,0.0030
877.00,0.0030
874.00,0.0030
871.00,0.0030
868.00,0.0030
865.00,0.0030
862.00,0.0030
859.00,0.0032
856.00,0.0034
853.00,0.0035
850.00,0.0036
847.00,0.0037
844.00,0.0037
841.00,0.0039
838.00,0.0041
835.00,0.0043
832.00,0.0046
829.00,0.0048
826.00,0.0048
823.00,0.0048
820.00,0.0049
817.00,0.0050
814.00,0.0052
811.00,0.0053
808.00,0.0054
805.00,0.0056
802.00,0.0057
799.00,0.0059
796.00,0.0060
793.00,0.0063
790.00,0.0067
787.00,0.0069
784.00,0.0072
781.00,0.0074
778.00,0.0076
775.00,0.0078
772.00,0.0080
769.00,0.0081
766.00,0.0083
763.00,0.0084
760.00,0.0085
757.00,0.0086
754.00,0.0088
751.00,0.0090
748.00,0.0092
745.00,0.0093
742.00,0.0095
739.00,0.0095
736.00,0.0097
733.00,0.0100
730.00,0.0103
727.00,0.0107
724.00,0.0112
721.00,0.0117
718.00,0.0122
715.00,0.0126
712.00,0.0130
709.00,0.0133
706.00,0.0139
703.00,0.0143
700.00,0.0147
697.00,0.0149
694.00,0.0149
691.00,0.0149
688.00,0.0150
685.00,0.0152
682.00,0.0152
679.00,0.0153
676.00,0.0154
673.00,0.0155
670.00,0.0156
667.00,0.0155
664.00,0.0157
661.00,0.0158
658.00,0.0159
655.00,0.0161
652.00,0.0162
649.00,0.0163
646.00,0.0164
643.00,0.0166
640.00,0.0167
637.00,0.0169
634.00,0.0170
631.00,0.0171
628.00,0.0173
625.00,0.0175
622.00,0.0176
619.00,0.0177
616.00,0.0177
613.00,0.0176
610.00,0.0178
607.00,0.0178
604.00,0.0177
601.00,0.0178
598.00,0.0179
595.00,0.0179
592.00,0.0180
589.00,0.0181
586.00,0.0182
583.00,0.0183
580.00,0.0184
577.00,0.0186
574.00,0.0188
571.00,0.0189
568.00,0.0191
565.00,0.0192
562.00,0.0193
559.00,0.0195
556.00,0.0197
553.00,0.0201
550.00,0.0202
547.00,0.0202
544.00,0.0204
541.00,0.0206
538.00,0.0208
535.00,0.0209
532.00,0.0211
529.00,0.0214
526.00,0.0216
523.00,0.0216
520.00,0.0219
517.00,0.0221
514.00,0.0222
511.00,0.0224
508.00,0.0224
505.00,0.0224
502.00,0.0228
499.00,0.0230
496.00,0.0232
493.00,0.0232
490.00,0.0232
487.00,0.0234
484.00,0.0236
481.00,0.0236
478.00,0.0237
475.00,0.0237
472.00,0.0236
469.00,0.0240
466.00,0.0238
463.00,0.0239
460.00,0.0242
457.00,0.0241
454.00,0.0241
451.00,0.0238
448.00,0.0238
445.00,0.0237
442.00,0.0232
439.00,0.0229
436.00,0.0227
433.00,0.0223
430.00,0.0221
427.00,0.0222
424.00,0.0227
421.00,0.0230
418.00,0.0230
415.00,0.0223
412.00,0.0230
409.00,0.0234
406.00,0.0218
403.00,0.0205
400.00,0.0208