File: FTIR/Mary/2024_07_27_HIFaFilm_Unstretched_3.csv
Created as New Dataset,Sample 286 By YargerLab Date Saturday, July 27 2024
cm-1,A
4000.00,0.0005
3997.00,0.0005
3994.00,0.0005
3991.00,0.0005
3988.00,0.0005
3985.00,0.0005
3982.00,0.0005
3979.00,0.0005
3976.00,0.0005
3973.00,0.0005
3970.00,0.0006
3967.00,0.0006
3964.00,0.0005
3961.00,0.0005
3958.00,0.0005
3955.00,0.0005
3952.00,0.0005
3949.00,0.0005
3946.00,0.0005
3943.00,0.0005
3940.00,0.0005
3937.00,0.0005
3934.00,0.0005
3931.00,0.0005
3928.00,0.0005
3925.00,0.0005
3922.00,0.0005
3919.00,0.0005
3916.00,0.0005
3913.00,0.0005
3910.00,0.0005
3907.00,0.0006
3904.00,0.0006
3901.00,0.0006
3898.00,0.0005
3895.00,0.0005
3892.00,0.0005
3889.00,0.0005
3886.00,0.0005
3883.00,0.0005
3880.00,0.0005
3877.00,0.0005
3874.00,0.0005
3871.00,0.0006
3868.00,0.0006
3865.00,0.0005
3862.00,0.0005
3859.00,0.0005
3856.00,0.0007
3853.00,0.0006
3850.00,0.0006
3847.00,0.0005
3844.00,0.0005
3841.00,0.0006
3838.00,0.0006
3835.00,0.0006
3832.00,0.0005
3829.00,0.0004
3826.00,0.0005
3823.00,0.0006
3820.00,0.0005
3817.00,0.0005
3814.00,0.0005
3811.00,0.0005
3808.00,0.0005
3805.00,0.0005
3802.00,0.0005
3799.00,0.0005
3796.00,0.0004
3793.00,0.0004
3790.00,0.0004
3787.00,0.0004
3784.00,0.0005
3781.00,0.0005
3778.00,0.0005
3775.00,0.0004
3772.00,0.0005
3769.00,0.0005
3766.00,0.0005
3763.00,0.0005
3760.00,0.0005
3757.00,0.0005
3754.00,0.0006
3751.00,0.0007
3748.00,0.0007
3745.00,0.0006
3742.00,0.0007
3739.00,0.0007
3736.00,0.0007
3733.00,0.0006
3730.00,0.0005
3727.00,0.0005
3724.00,0.0005
3721.00,0.0005
3718.00,0.0005
3715.00,0.0006
3712.00,0.0006
3709.00,0.0006
3706.00,0.0006
3703.00,0.0005
3700.00,0.0005
3697.00,0.0005
3694.00,0.0006
3691.00,0.0007
3688.00,0.0007
3685.00,0.0007
3682.00,0.0007
3679.00,0.0009
3676.00,0.0009
3673.00,0.0010
3670.00,0.0009
3667.00,0.0010
3664.00,0.0010
3661.00,0.0010
3658.00,0.0011
3655.00,0.0012
3652.00,0.0014
3649.00,0.0014
3646.00,0.0015
3643.00,0.0015
3640.00,0.0015
3637.00,0.0016
3634.00,0.0018
3631.00,0.0020
3628.00,0.0019
3625.00,0.0020
3622.00,0.0021
3619.00,0.0022
3616.00,0.0023
3613.00,0.0024
3610.00,0.0024
3607.00,0.0025
3604.00,0.0027
3601.00,0.0028
3598.00,0.0029
3595.00,0.0029
3592.00,0.0031
3589.00,0.0032
3586.00,0.0032
3583.00,0.0033
3580.00,0.0035
3577.00,0.0036
3574.00,0.0037
3571.00,0.0039
3568.00,0.0040
3565.00,0.0040
3562.00,0.0041
3559.00,0.0042
3556.00,0.0044
3553.00,0.0045
3550.00,0.0046
3547.00,0.0047
3544.00,0.0048
3541.00,0.0049
3538.00,0.0050
3535.00,0.0051
3532.00,0.0053
3529.00,0.0054
3526.00,0.0055
3523.00,0.0055
3520.00,0.0056
3517.00,0.0057
3514.00,0.0058
3511.00,0.0060
3508.00,0.0061
3505.00,0.0062
3502.00,0.0063
3499.00,0.0064
3496.00,0.0065
3493.00,0.0066
3490.00,0.0067
3487.00,0.0069
3484.00,0.0070
3481.00,0.0071
3478.00,0.0072
3475.00,0.0073
3472.00,0.0074
3469.00,0.0075
3466.00,0.0076
3463.00,0.0078
3460.00,0.0079
3457.00,0.0079
3454.00,0.0080
3451.00,0.0082
3448.00,0.0083
3445.00,0.0084
3442.00,0.0085
3439.00,0.0086
3436.00,0.0087
3433.00,0.0088
3430.00,0.0089
3427.00,0.0091
3424.00,0.0092
3421.00,0.0093
3418.00,0.0094
3415.00,0.0095
3412.00,0.0096
3409.00,0.0097
3406.00,0.0098
3403.00,0.0099
3400.00,0.0101
3397.00,0.0101
3394.00,0.0102
3391.00,0.0103
3388.00,0.0104
3385.00,0.0105
3382.00,0.0106
3379.00,0.0108
3376.00,0.0109
3373.00,0.0111
3370.00,0.0112
3367.00,0.0114
3364.00,0.0115
3361.00,0.0117
3358.00,0.0118
3355.00,0.0120
3352.00,0.0122
3349.00,0.0124
3346.00,0.0126
3343.00,0.0128
3340.00,0.0130
3337.00,0.0133
3334.00,0.0135
3331.00,0.0137
3328.00,0.0141
3325.00,0.0143
3322.00,0.0146
3319.00,0.0149
3316.00,0.0153
3313.00,0.0156
3310.00,0.0160
3307.00,0.0164
3304.00,0.0168
3301.00,0.0172
3298.00,0.0176
3295.00,0.0180
3292.00,0.0184
3289.00,0.0187
3286.00,0.0190
3283.00,0.0193
3280.00,0.0196
3277.00,0.0198
3274.00,0.0199
3271.00,0.0199
3268.00,0.0198
3265.00,0.0196
3262.00,0.0193
3259.00,0.0190
3256.00,0.0187
3253.00,0.0183
3250.00,0.0179
3247.00,0.0176
3244.00,0.0172
3241.00,0.0168
3238.00,0.0165
3235.00,0.0162
3232.00,0.0159
3229.00,0.0157
3226.00,0.0154
3223.00,0.0152
3220.00,0.0149
3217.00,0.0148
3214.00,0.0146
3211.00,0.0144
3208.00,0.0141
3205.00,0.0139
3202.00,0.0138
3199.00,0.0136
3196.00,0.0134
3193.00,0.0132
3190.00,0.0130
3187.00,0.0128
3184.00,0.0126
3181.00,0.0124
3178.00,0.0122
3175.00,0.0120
3172.00,0.0118
3169.00,0.0116
3166.00,0.0115
3163.00,0.0113
3160.00,0.0111
3157.00,0.0109
3154.00,0.0108
3151.00,0.0107
3148.00,0.0105
3145.00,0.0104
3142.00,0.0103
3139.00,0.0101
3136.00,0.0100
3133.00,0.0099
3130.00,0.0099
3127.00,0.0098
3124.00,0.0097
3121.00,0.0097
3118.00,0.0096
3115.00,0.0096
3112.00,0.0096
3109.00,0.0096
3106.00,0.0096
3103.00,0.0097
3100.00,0.0097
3097.00,0.0097
3094.00,0.0098
3091.00,0.0098
3088.00,0.0099
3085.00,0.0099
3082.00,0.0099
3079.00,0.0099
3076.00,0.0099
3073.00,0.0098
3070.00,0.0098
3067.00,0.0097
3064.00,0.0096
3061.00,0.0095
3058.00,0.0094
3055.00,0.0092
3052.00,0.0091
3049.00,0.0089
3046.00,0.0088
3043.00,0.0086
3040.00,0.0085
3037.00,0.0083
3034.00,0.0082
3031.00,0.0081
3028.00,0.0080
3025.00,0.0078
3022.00,0.0077
3019.00,0.0076
3016.00,0.0074
3013.00,0.0073
3010.00,0.0073
3007.00,0.0073
3004.00,0.0072
3001.00,0.0072
2998.00,0.0073
2995.00,0.0073
2992.00,0.0075
2989.00,0.0077
2986.00,0.0079
2983.00,0.0081
2980.00,0.0084
2977.00,0.0088
2974.00,0.0090
2971.00,0.0093
2968.00,0.0096
2965.00,0.0097
2962.00,0.0098
2959.00,0.0098
2956.00,0.0096
2953.00,0.0094
2950.00,0.0092
2947.00,0.0091
2944.00,0.0092
2941.00,0.0094
2938.00,0.0096
2935.00,0.0098
2932.00,0.0098
2929.00,0.0099
2926.00,0.0098
2923.00,0.0097
2920.00,0.0095
2917.00,0.0092
2914.00,0.0089
2911.00,0.0085
2908.00,0.0082
2905.00,0.0080
2902.00,0.0078
2899.00,0.0076
2896.00,0.0075
2893.00,0.0074
2890.00,0.0073
2887.00,0.0073
2884.00,0.0074
2881.00,0.0075
2878.00,0.0076
2875.00,0.0076
2872.00,0.0076
2869.00,0.0074
2866.00,0.0071
2863.00,0.0069
2860.00,0.0067
2857.00,0.0066
2854.00,0.0066
2851.00,0.0065
2848.00,0.0063
2845.00,0.0059
2842.00,0.0057
2839.00,0.0055
2836.00,0.0054
2833.00,0.0053
2830.00,0.0052
2827.00,0.0052
2824.00,0.0051
2821.00,0.0051
2818.00,0.0050
2815.00,0.0050
2812.00,0.0049
2809.00,0.0049
2806.00,0.0049
2803.00,0.0048
2800.00,0.0048
2797.00,0.0047
2794.00,0.0047
2791.00,0.0046
2788.00,0.0046
2785.00,0.0045
2782.00,0.0045
2779.00,0.0044
2776.00,0.0043
2773.00,0.0043
2770.00,0.0042
2767.00,0.0041
2764.00,0.0041
2761.00,0.0040
2758.00,0.0039
2755.00,0.0039
2752.00,0.0038
2749.00,0.0038
2746.00,0.0038
2743.00,0.0037
2740.00,0.0037
2737.00,0.0036
2734.00,0.0036
2731.00,0.0035
2728.00,0.0035
2725.00,0.0034
2722.00,0.0034
2719.00,0.0033
2716.00,0.0033
2713.00,0.0033
2710.00,0.0032
2707.00,0.0032
2704.00,0.0032
2701.00,0.0032
2698.00,0.0031
2695.00,0.0031
2692.00,0.0030
2689.00,0.0030
2686.00,0.0030
2683.00,0.0030
2680.00,0.0029
2677.00,0.0029
2674.00,0.0029
2671.00,0.0029
2668.00,0.0028
2665.00,0.0028
2662.00,0.0028
2659.00,0.0027
2656.00,0.0027
2653.00,0.0027
2650.00,0.0027
2647.00,0.0026
2644.00,0.0026
2641.00,0.0026
2638.00,0.0026
2635.00,0.0026
2632.00,0.0025
2629.00,0.0025
2626.00,0.0025
2623.00,0.0025
2620.00,0.0025
2617.00,0.0025
2614.00,0.0024
2611.00,0.0024
2608.00,0.0024
2605.00,0.0024
2602.00,0.0023
2599.00,0.0023
2596.00,0.0023
2593.00,0.0023
2590.00,0.0023
2587.00,0.0022
2584.00,0.0022
2581.00,0.0022
2578.00,0.0022
2575.00,0.0022
2572.00,0.0022
2569.00,0.0021
2566.00,0.0021
2563.00,0.0021
2560.00,0.0021
2557.00,0.0021
2554.00,0.0020
2551.00,0.0020
2548.00,0.0020
2545.00,0.0020
2542.00,0.0020
2539.00,0.0020
2536.00,0.0019
2533.00,0.0019
2530.00,0.0019
2527.00,0.0019
2524.00,0.0018
2521.00,0.0019
2518.00,0.0018
2515.00,0.0018
2512.00,0.0018
2509.00,0.0018
2506.00,0.0018
2503.00,0.0018
2500.00,0.0017
2497.00,0.0017
2494.00,0.0017
2491.00,0.0017
2488.00,0.0017
2485.00,0.0017
2482.00,0.0016
2479.00,0.0016
2476.00,0.0016
2473.00,0.0016
2470.00,0.0016
2467.00,0.0015
2464.00,0.0015
2461.00,0.0016
2458.00,0.0015
2455.00,0.0015
2452.00,0.0015
2449.00,0.0015
2446.00,0.0015
2443.00,0.0015
2440.00,0.0014
2437.00,0.0014
2434.00,0.0014
2431.00,0.0014
2428.00,0.0014
2425.00,0.0014
2422.00,0.0013
2419.00,0.0013
2416.00,0.0013
2413.00,0.0013
2410.00,0.0013
2407.00,0.0013
2404.00,0.0013
2401.00,0.0012
2398.00,0.0012
2395.00,0.0012
2392.00,0.0012
2389.00,0.0012
2386.00,0.0011
2383.00,0.0011
2380.00,0.0011
2377.00,0.0011
2374.00,0.0011
2371.00,0.0011
2368.00,0.0011
2365.00,0.0011
2362.00,0.0011
2359.00,0.0011
2356.00,0.0010
2353.00,0.0010
2350.00,0.0010
2347.00,0.0011
2344.00,0.0011
2341.00,0.0011
2338.00,0.0010
2335.00,0.0010
2332.00,0.0010
2329.00,0.0011
2326.00,0.0011
2323.00,0.0010
2320.00,0.0010
2317.00,0.0010
2314.00,0.0010
2311.00,0.0010
2308.00,0.0010
2305.00,0.0010
2302.00,0.0010
2299.00,0.0010
2296.00,0.0011
2293.00,0.0010
2290.00,0.0011
2287.00,0.0011
2284.00,0.0011
2281.00,0.0011
2278.00,0.0011
2275.00,0.0011
2272.00,0.0011
2269.00,0.0011
2266.00,0.0011
2263.00,0.0011
2260.00,0.0011
2257.00,0.0011
2254.00,0.0011
2251.00,0.0011
2248.00,0.0010
2245.00,0.0009
2242.00,0.0010
2239.00,0.0011
2236.00,0.0012
2233.00,0.0011
2230.00,0.0011
2227.00,0.0011
2224.00,0.0011
2221.00,0.0011
2218.00,0.0011
2215.00,0.0010
2212.00,0.0010
2209.00,0.0010
2206.00,0.0011
2203.00,0.0011
2200.00,0.0011
2197.00,0.0011
2194.00,0.0011
2191.00,0.0011
2188.00,0.0010
2185.00,0.0011
2182.00,0.0011
2179.00,0.0011
2176.00,0.0011
2173.00,0.0011
2170.00,0.0012
2167.00,0.0011
2164.00,0.0012
2161.00,0.0011
2158.00,0.0009
2155.00,0.0011
2152.00,0.0009
2149.00,0.0009
2146.00,0.0009
2143.00,0.0009
2140.00,0.0010
2137.00,0.0009
2134.00,0.0008
2131.00,0.0009
2128.00,0.0009
2125.00,0.0010
2122.00,0.0010
2119.00,0.0011
2116.00,0.0010
2113.00,0.0010
2110.00,0.0010
2107.00,0.0010
2104.00,0.0010
2101.00,0.0010
2098.00,0.0010
2095.00,0.0010
2092.00,0.0010
2089.00,0.0010
2086.00,0.0010
2083.00,0.0011
2080.00,0.0010
2077.00,0.0009
2074.00,0.0009
2071.00,0.0009
2068.00,0.0009
2065.00,0.0009
2062.00,0.0010
2059.00,0.0009
2056.00,0.0008
2053.00,0.0009
2050.00,0.0008
2047.00,0.0009
2044.00,0.0008
2041.00,0.0008
2038.00,0.0010
2035.00,0.0009
2032.00,0.0008
2029.00,0.0007
2026.00,0.0008
2023.00,0.0007
2020.00,0.0006
2017.00,0.0007
2014.00,0.0008
2011.00,0.0008
2008.00,0.0006
2005.00,0.0007
2002.00,0.0008
1999.00,0.0008
1996.00,0.0009
1993.00,0.0006
1990.00,0.0008
1987.00,0.0010
1984.00,0.0008
1981.00,0.0008
1978.00,0.0008
1975.00,0.0009
1972.00,0.0008
1969.00,0.0004
1966.00,0.0005
1963.00,0.0006
1960.00,0.0006
1957.00,0.0006
1954.00,0.0006
1951.00,0.0007
1948.00,0.0006
1945.00,0.0004
1942.00,0.0005
1939.00,0.0007
1936.00,0.0006
1933.00,0.0006
1930.00,0.0006
1927.00,0.0006
1924.00,0.0006
1921.00,0.0006
1918.00,0.0006
1915.00,0.0006
1912.00,0.0006
1909.00,0.0006
1906.00,0.0006
1903.00,0.0006
1900.00,0.0006
1897.00,0.0005
1894.00,0.0005
1891.00,0.0004
1888.00,0.0006
1885.00,0.0005
1882.00,0.0005
1879.00,0.0005
1876.00,0.0006
1873.00,0.0005
1870.00,0.0005
1867.00,0.0004
1864.00,0.0005
1861.00,0.0005
1858.00,0.0005
1855.00,0.0005
1852.00,0.0005
1849.00,0.0005
1846.00,0.0005
1843.00,0.0004
1840.00,0.0005
1837.00,0.0005
1834.00,0.0005
1831.00,0.0005
1828.00,0.0005
1825.00,0.0004
1822.00,0.0005
1819.00,0.0005
1816.00,0.0005
1813.00,0.0005
1810.00,0.0005
1807.00,0.0005
1804.00,0.0006
1801.00,0.0006
1798.00,0.0006
1795.00,0.0003
1792.00,0.0006
1789.00,0.0007
1786.00,0.0005
1783.00,0.0007
1780.00,0.0007
1777.00,0.0008
1774.00,0.0008
1771.00,0.0007
1768.00,0.0008
1765.00,0.0009
1762.00,0.0009
1759.00,0.0010
1756.00,0.0011
1753.00,0.0013
1750.00,0.0013
1747.00,0.0014
1744.00,0.0017
1741.00,0.0018
1738.00,0.0020
1735.00,0.0023
1732.00,0.0021
1729.00,0.0024
1726.00,0.0026
1723.00,0.0028
1720.00,0.0025
1717.00,0.0035
1714.00,0.0039
1711.00,0.0042
1708.00,0.0051
1705.00,0.0061
1702.00,0.0080
1699.00,0.0102
1696.00,0.0125
1693.00,0.0139
1690.00,0.0142
1687.00,0.0150
1684.00,0.0169
1681.00,0.0174
1678.00,0.0187
1675.00,0.0204
1672.00,0.0215
1669.00,0.0227
1666.00,0.0241
1663.00,0.0257
1660.00,0.0270
1657.00,0.0287
1654.00,0.0308
1651.00,0.0312
1648.00,0.0315
1645.00,0.0315
1642.00,0.0321
1639.00,0.0331
1636.00,0.0337
1633.00,0.0341
1630.00,0.0356
1627.00,0.0371
1624.00,0.0389
1621.00,0.0401
1618.00,0.0420
1615.00,0.0407
1612.00,0.0394
1609.00,0.0369
1606.00,0.0338
1603.00,0.0310
1600.00,0.0286
1597.00,0.0267
1594.00,0.0250
1591.00,0.0238
1588.00,0.0229
1585.00,0.0223
1582.00,0.0219
1579.00,0.0219
1576.00,0.0225
1573.00,0.0225
1570.00,0.0231
1567.00,0.0238
1564.00,0.0249
1561.00,0.0269
1558.00,0.0274
1555.00,0.0282
1552.00,0.0296
1549.00,0.0306
1546.00,0.0322
1543.00,0.0333
1540.00,0.0338
1537.00,0.0345
1534.00,0.0354
1531.00,0.0356
1528.00,0.0365
1525.00,0.0367
1522.00,0.0371
1519.00,0.0367
1516.00,0.0362
1513.00,0.0362
1510.00,0.0354
1507.00,0.0329
1504.00,0.0311
1501.00,0.0298
1498.00,0.0281
1495.00,0.0259
1492.00,0.0241
1489.00,0.0215
1486.00,0.0202
1483.00,0.0193
1480.00,0.0184
1477.00,0.0181
1474.00,0.0180
1471.00,0.0188
1468.00,0.0191
1465.00,0.0194
1462.00,0.0195
1459.00,0.0198
1456.00,0.0206
1453.00,0.0207
1450.00,0.0208
1447.00,0.0206
1444.00,0.0204
1441.00,0.0201
1438.00,0.0196
1435.00,0.0188
1432.00,0.0180
1429.00,0.0174
1426.00,0.0172
1423.00,0.0173
1420.00,0.0178
1417.00,0.0182
1414.00,0.0189
1411.00,0.0195
1408.00,0.0200
1405.00,0.0203
1402.00,0.0206
1399.00,0.0208
1396.00,0.0207
1393.00,0.0209
1390.00,0.0211
1387.00,0.0209
1384.00,0.0206
1381.00,0.0201
1378.00,0.0195
1375.00,0.0189
1372.00,0.0185
1369.00,0.0182
1366.00,0.0176
1363.00,0.0167
1360.00,0.0163
1357.00,0.0164
1354.00,0.0166
1351.00,0.0169
1348.00,0.0171
1345.00,0.0171
1342.00,0.0168
1339.00,0.0162
1336.00,0.0161
1333.00,0.0161
1330.00,0.0160
1327.00,0.0158
1324.00,0.0158
1321.00,0.0157
1318.00,0.0157
1315.00,0.0157
1312.00,0.0156
1309.00,0.0157
1306.00,0.0156
1303.00,0.0155
1300.00,0.0154
1297.00,0.0154
1294.00,0.0154
1291.00,0.0155
1288.00,0.0156
1285.00,0.0158
1282.00,0.0159
1279.00,0.0159
1276.00,0.0158
1273.00,0.0159
1270.00,0.0160
1267.00,0.0162
1264.00,0.0166
1261.00,0.0171
1258.00,0.0176
1255.00,0.0181
1252.00,0.0186
1249.00,0.0192
1246.00,0.0196
1243.00,0.0200
1240.00,0.0203
1237.00,0.0205
1234.00,0.0205
1231.00,0.0205
1228.00,0.0203
1225.00,0.0200
1222.00,0.0195
1219.00,0.0190
1216.00,0.0183
1213.00,0.0176
1210.00,0.0167
1207.00,0.0159
1204.00,0.0152
1201.00,0.0146
1198.00,0.0142
1195.00,0.0138
1192.00,0.0136
1189.00,0.0134
1186.00,0.0132
1183.00,0.0131
1180.00,0.0132
1177.00,0.0134
1174.00,0.0139
1171.00,0.0143
1168.00,0.0145
1165.00,0.0145
1162.00,0.0146
1159.00,0.0147
1156.00,0.0147
1153.00,0.0146
1150.00,0.0143
1147.00,0.0141
1144.00,0.0138
1141.00,0.0136
1138.00,0.0136
1135.00,0.0137
1132.00,0.0139
1129.00,0.0142
1126.00,0.0145
1123.00,0.0147
1120.00,0.0149
1117.00,0.0151
1114.00,0.0152
1111.00,0.0154
1108.00,0.0155
1105.00,0.0157
1102.00,0.0158
1099.00,0.0160
1096.00,0.0163
1093.00,0.0168
1090.00,0.0175
1087.00,0.0182
1084.00,0.0189
1081.00,0.0197
1078.00,0.0202
1075.00,0.0206
1072.00,0.0208
1069.00,0.0208
1066.00,0.0208
1063.00,0.0207
1060.00,0.0204
1057.00,0.0201
1054.00,0.0198
1051.00,0.0194
1048.00,0.0190
1045.00,0.0186
1042.00,0.0180
1039.00,0.0175
1036.00,0.0170
1033.00,0.0167
1030.00,0.0164
1027.00,0.0159
1024.00,0.0153
1021.00,0.0147
1018.00,0.0140
1015.00,0.0134
1012.00,0.0128
1009.00,0.0121
1006.00,0.0115
1003.00,0.0110
1000.00,0.0107
997.00,0.0104
994.00,0.0102
991.00,0.0100
988.00,0.0098
985.00,0.0099
982.00,0.0099
979.00,0.0101
976.00,0.0104
973.00,0.0105
970.00,0.0105
967.00,0.0103
964.00,0.0101
961.00,0.0100
958.00,0.0098
955.00,0.0097
952.00,0.0096
949.00,0.0096
946.00,0.0096
943.00,0.0097
940.00,0.0097
937.00,0.0098
934.00,0.0098
931.00,0.0097
928.00,0.0095
925.00,0.0093
922.00,0.0090
919.00,0.0088
916.00,0.0086
913.00,0.0084
910.00,0.0084
907.00,0.0084
904.00,0.0084
901.00,0.0084
898.00,0.0085
895.00,0.0084
892.00,0.0083
889.00,0.0084
886.00,0.0084
883.00,0.0084
880.00,0.0083
877.00,0.0083
874.00,0.0083
871.00,0.0082
868.00,0.0082
865.00,0.0082
862.00,0.0084
859.00,0.0085
856.00,0.0088
853.00,0.0091
850.00,0.0092
847.00,0.0093
844.00,0.0094
841.00,0.0097
838.00,0.0100
835.00,0.0104
832.00,0.0108
829.00,0.0111
826.00,0.0112
823.00,0.0113
820.00,0.0114
817.00,0.0116
814.00,0.0118
811.00,0.0120
808.00,0.0122
805.00,0.0124
802.00,0.0127
799.00,0.0130
796.00,0.0132
793.00,0.0137
790.00,0.0142
787.00,0.0147
784.00,0.0152
781.00,0.0155
778.00,0.0158
775.00,0.0161
772.00,0.0164
769.00,0.0167
766.00,0.0169
763.00,0.0171
760.00,0.0172
757.00,0.0174
754.00,0.0177
751.00,0.0180
748.00,0.0184
745.00,0.0186
742.00,0.0188
739.00,0.0190
736.00,0.0192
733.00,0.0197
730.00,0.0202
727.00,0.0209
724.00,0.0217
721.00,0.0226
718.00,0.0234
715.00,0.0241
712.00,0.0248
709.00,0.0254
706.00,0.0263
703.00,0.0270
700.00,0.0276
697.00,0.0280
694.00,0.0281
691.00,0.0280
688.00,0.0281
685.00,0.0282
682.00,0.0283
679.00,0.0285
676.00,0.0287
673.00,0.0287
670.00,0.0291
667.00,0.0287
664.00,0.0292
661.00,0.0294
658.00,0.0296
655.00,0.0297
652.00,0.0299
649.00,0.0301
646.00,0.0302
643.00,0.0304
640.00,0.0306
637.00,0.0308
634.00,0.0310
631.00,0.0312
628.00,0.0315
625.00,0.0318
622.00,0.0320
619.00,0.0321
616.00,0.0321
613.00,0.0322
610.00,0.0322
607.00,0.0323
604.00,0.0323
601.00,0.0324
598.00,0.0324
595.00,0.0325
592.00,0.0326
589.00,0.0328
586.00,0.0330
583.00,0.0331
580.00,0.0333
577.00,0.0335
574.00,0.0338
571.00,0.0339
568.00,0.0342
565.00,0.0345
562.00,0.0348
559.00,0.0351
556.00,0.0354
553.00,0.0357
550.00,0.0360
547.00,0.0362
544.00,0.0365
541.00,0.0369
538.00,0.0372
535.00,0.0374
532.00,0.0376
529.00,0.0379
526.00,0.0382
523.00,0.0386
520.00,0.0387
517.00,0.0388
514.00,0.0391
511.00,0.0393
508.00,0.0394
505.00,0.0394
502.00,0.0398
499.00,0.0402
496.00,0.0404
493.00,0.0407
490.00,0.0407
487.00,0.0409
484.00,0.0411
481.00,0.0414
478.00,0.0416
475.00,0.0418
472.00,0.0417
469.00,0.0416
466.00,0.0416
463.00,0.0420
460.00,0.0423
457.00,0.0419
454.00,0.0419
451.00,0.0415
448.00,0.0411
445.00,0.0408
442.00,0.0400
439.00,0.0394
436.00,0.0387
433.00,0.0381
430.00,0.0379
427.00,0.0376
424.00,0.0369
421.00,0.0368
418.00,0.0372
415.00,0.0378
412.00,0.0379
409.00,0.0379
406.00,0.0367
403.00,0.0373
400.00,0.0370