File: FTIR/Mary/2024_11_01_THCa_powder_Scan1.csv
Created as New Dataset,Sample 024 By YargerLab Date Friday, November 01 2024
cm-1,A
4000.00,0.0075
3997.00,0.0075
3994.00,0.0075
3991.00,0.0075
3988.00,0.0075
3985.00,0.0075
3982.00,0.0075
3979.00,0.0075
3976.00,0.0075
3973.00,0.0075
3970.00,0.0075
3967.00,0.0075
3964.00,0.0075
3961.00,0.0075
3958.00,0.0075
3955.00,0.0074
3952.00,0.0074
3949.00,0.0074
3946.00,0.0074
3943.00,0.0074
3940.00,0.0074
3937.00,0.0074
3934.00,0.0074
3931.00,0.0074
3928.00,0.0074
3925.00,0.0074
3922.00,0.0074
3919.00,0.0074
3916.00,0.0074
3913.00,0.0074
3910.00,0.0074
3907.00,0.0073
3904.00,0.0074
3901.00,0.0074
3898.00,0.0074
3895.00,0.0073
3892.00,0.0074
3889.00,0.0073
3886.00,0.0073
3883.00,0.0073
3880.00,0.0073
3877.00,0.0073
3874.00,0.0072
3871.00,0.0073
3868.00,0.0072
3865.00,0.0073
3862.00,0.0073
3859.00,0.0073
3856.00,0.0071
3853.00,0.0072
3850.00,0.0072
3847.00,0.0073
3844.00,0.0072
3841.00,0.0072
3838.00,0.0072
3835.00,0.0072
3832.00,0.0072
3829.00,0.0072
3826.00,0.0072
3823.00,0.0072
3820.00,0.0071
3817.00,0.0072
3814.00,0.0071
3811.00,0.0071
3808.00,0.0071
3805.00,0.0070
3802.00,0.0071
3799.00,0.0071
3796.00,0.0071
3793.00,0.0071
3790.00,0.0071
3787.00,0.0071
3784.00,0.0071
3781.00,0.0071
3778.00,0.0071
3775.00,0.0071
3772.00,0.0070
3769.00,0.0070
3766.00,0.0070
3763.00,0.0070
3760.00,0.0070
3757.00,0.0070
3754.00,0.0069
3751.00,0.0069
3748.00,0.0069
3745.00,0.0070
3742.00,0.0070
3739.00,0.0070
3736.00,0.0070
3733.00,0.0071
3730.00,0.0071
3727.00,0.0071
3724.00,0.0072
3721.00,0.0071
3718.00,0.0071
3715.00,0.0070
3712.00,0.0070
3709.00,0.0070
3706.00,0.0070
3703.00,0.0070
3700.00,0.0070
3697.00,0.0070
3694.00,0.0069
3691.00,0.0068
3688.00,0.0068
3685.00,0.0069
3682.00,0.0068
3679.00,0.0066
3676.00,0.0066
3673.00,0.0065
3670.00,0.0066
3667.00,0.0066
3664.00,0.0065
3661.00,0.0065
3658.00,0.0064
3655.00,0.0064
3652.00,0.0064
3649.00,0.0065
3646.00,0.0065
3643.00,0.0066
3640.00,0.0066
3637.00,0.0066
3634.00,0.0067
3631.00,0.0068
3628.00,0.0068
3625.00,0.0069
3622.00,0.0069
3619.00,0.0069
3616.00,0.0069
3613.00,0.0069
3610.00,0.0069
3607.00,0.0069
3604.00,0.0069
3601.00,0.0069
3598.00,0.0069
3595.00,0.0069
3592.00,0.0069
3589.00,0.0069
3586.00,0.0069
3583.00,0.0069
3580.00,0.0069
3577.00,0.0069
3574.00,0.0068
3571.00,0.0068
3568.00,0.0069
3565.00,0.0069
3562.00,0.0069
3559.00,0.0069
3556.00,0.0069
3553.00,0.0069
3550.00,0.0069
3547.00,0.0069
3544.00,0.0070
3541.00,0.0070
3538.00,0.0070
3535.00,0.0070
3532.00,0.0071
3529.00,0.0071
3526.00,0.0072
3523.00,0.0071
3520.00,0.0069
3517.00,0.0066
3514.00,0.0064
3511.00,0.0063
3508.00,0.0063
3505.00,0.0064
3502.00,0.0066
3499.00,0.0068
3496.00,0.0069
3493.00,0.0069
3490.00,0.0070
3487.00,0.0070
3484.00,0.0071
3481.00,0.0071
3478.00,0.0071
3475.00,0.0072
3472.00,0.0072
3469.00,0.0072
3466.00,0.0072
3463.00,0.0072
3460.00,0.0073
3457.00,0.0073
3454.00,0.0073
3451.00,0.0073
3448.00,0.0074
3445.00,0.0074
3442.00,0.0074
3439.00,0.0074
3436.00,0.0074
3433.00,0.0074
3430.00,0.0074
3427.00,0.0075
3424.00,0.0075
3421.00,0.0074
3418.00,0.0075
3415.00,0.0075
3412.00,0.0075
3409.00,0.0074
3406.00,0.0074
3403.00,0.0073
3400.00,0.0072
3397.00,0.0072
3394.00,0.0072
3391.00,0.0074
3388.00,0.0075
3385.00,0.0077
3382.00,0.0079
3379.00,0.0081
3376.00,0.0083
3373.00,0.0084
3370.00,0.0085
3367.00,0.0086
3364.00,0.0088
3361.00,0.0089
3358.00,0.0090
3355.00,0.0092
3352.00,0.0092
3349.00,0.0093
3346.00,0.0094
3343.00,0.0096
3340.00,0.0097
3337.00,0.0098
3334.00,0.0100
3331.00,0.0101
3328.00,0.0102
3325.00,0.0103
3322.00,0.0105
3319.00,0.0106
3316.00,0.0107
3313.00,0.0109
3310.00,0.0110
3307.00,0.0111
3304.00,0.0113
3301.00,0.0115
3298.00,0.0116
3295.00,0.0117
3292.00,0.0119
3289.00,0.0121
3286.00,0.0123
3283.00,0.0125
3280.00,0.0127
3277.00,0.0129
3274.00,0.0130
3271.00,0.0132
3268.00,0.0136
3265.00,0.0140
3262.00,0.0142
3259.00,0.0145
3256.00,0.0148
3253.00,0.0152
3250.00,0.0154
3247.00,0.0156
3244.00,0.0161
3241.00,0.0166
3238.00,0.0168
3235.00,0.0168
3232.00,0.0174
3229.00,0.0181
3226.00,0.0185
3223.00,0.0188
3220.00,0.0191
3217.00,0.0194
3214.00,0.0196
3211.00,0.0199
3208.00,0.0200
3205.00,0.0201
3202.00,0.0203
3199.00,0.0204
3196.00,0.0206
3193.00,0.0207
3190.00,0.0208
3187.00,0.0210
3184.00,0.0212
3181.00,0.0214
3178.00,0.0215
3175.00,0.0217
3172.00,0.0219
3169.00,0.0221
3166.00,0.0223
3163.00,0.0225
3160.00,0.0228
3157.00,0.0231
3154.00,0.0232
3151.00,0.0236
3148.00,0.0242
3145.00,0.0246
3142.00,0.0248
3139.00,0.0252
3136.00,0.0258
3133.00,0.0262
3130.00,0.0264
3127.00,0.0268
3124.00,0.0270
3121.00,0.0270
3118.00,0.0273
3115.00,0.0277
3112.00,0.0282
3109.00,0.0285
3106.00,0.0290
3103.00,0.0294
3100.00,0.0299
3097.00,0.0304
3094.00,0.0309
3091.00,0.0314
3088.00,0.0320
3085.00,0.0327
3082.00,0.0335
3079.00,0.0346
3076.00,0.0356
3073.00,0.0365
3070.00,0.0372
3067.00,0.0376
3064.00,0.0379
3061.00,0.0379
3058.00,0.0379
3055.00,0.0381
3052.00,0.0383
3049.00,0.0387
3046.00,0.0390
3043.00,0.0393
3040.00,0.0395
3037.00,0.0398
3034.00,0.0400
3031.00,0.0403
3028.00,0.0406
3025.00,0.0408
3022.00,0.0409
3019.00,0.0410
3016.00,0.0411
3013.00,0.0412
3010.00,0.0413
3007.00,0.0414
3004.00,0.0416
3001.00,0.0421
2998.00,0.0430
2995.00,0.0444
2992.00,0.0461
2989.00,0.0485
2986.00,0.0517
2983.00,0.0548
2980.00,0.0574
2977.00,0.0598
2974.00,0.0608
2971.00,0.0611
2968.00,0.0635
2965.00,0.0675
2962.00,0.0710
2959.00,0.0723
2956.00,0.0715
2953.00,0.0702
2950.00,0.0699
2947.00,0.0717
2944.00,0.0759
2941.00,0.0813
2938.00,0.0835
2935.00,0.0838
2932.00,0.0852
2929.00,0.0868
2926.00,0.0874
2923.00,0.0863
2920.00,0.0839
2917.00,0.0812
2914.00,0.0786
2911.00,0.0761
2908.00,0.0742
2905.00,0.0733
2902.00,0.0735
2899.00,0.0737
2896.00,0.0733
2893.00,0.0729
2890.00,0.0732
2887.00,0.0730
2884.00,0.0712
2881.00,0.0697
2878.00,0.0700
2875.00,0.0714
2872.00,0.0726
2869.00,0.0725
2866.00,0.0716
2863.00,0.0706
2860.00,0.0694
2857.00,0.0682
2854.00,0.0671
2851.00,0.0661
2848.00,0.0648
2845.00,0.0625
2842.00,0.0607
2839.00,0.0607
2836.00,0.0625
2833.00,0.0636
2830.00,0.0625
2827.00,0.0596
2824.00,0.0564
2821.00,0.0539
2818.00,0.0521
2815.00,0.0507
2812.00,0.0495
2809.00,0.0486
2806.00,0.0477
2803.00,0.0470
2800.00,0.0462
2797.00,0.0455
2794.00,0.0448
2791.00,0.0440
2788.00,0.0433
2785.00,0.0425
2782.00,0.0418
2779.00,0.0410
2776.00,0.0404
2773.00,0.0398
2770.00,0.0393
2767.00,0.0389
2764.00,0.0385
2761.00,0.0383
2758.00,0.0381
2755.00,0.0380
2752.00,0.0378
2749.00,0.0377
2746.00,0.0376
2743.00,0.0376
2740.00,0.0374
2737.00,0.0373
2734.00,0.0372
2731.00,0.0372
2728.00,0.0372
2725.00,0.0371
2722.00,0.0368
2719.00,0.0362
2716.00,0.0358
2713.00,0.0355
2710.00,0.0353
2707.00,0.0352
2704.00,0.0350
2701.00,0.0349
2698.00,0.0348
2695.00,0.0349
2692.00,0.0350
2689.00,0.0351
2686.00,0.0352
2683.00,0.0353
2680.00,0.0353
2677.00,0.0351
2674.00,0.0350
2671.00,0.0348
2668.00,0.0347
2665.00,0.0347
2662.00,0.0346
2659.00,0.0345
2656.00,0.0344
2653.00,0.0344
2650.00,0.0343
2647.00,0.0342
2644.00,0.0340
2641.00,0.0338
2638.00,0.0336
2635.00,0.0334
2632.00,0.0332
2629.00,0.0331
2626.00,0.0329
2623.00,0.0328
2620.00,0.0328
2617.00,0.0328
2614.00,0.0328
2611.00,0.0327
2608.00,0.0327
2605.00,0.0326
2602.00,0.0324
2599.00,0.0324
2596.00,0.0325
2593.00,0.0327
2590.00,0.0330
2587.00,0.0334
2584.00,0.0339
2581.00,0.0344
2578.00,0.0347
2575.00,0.0349
2572.00,0.0349
2569.00,0.0349
2566.00,0.0347
2563.00,0.0346
2560.00,0.0345
2557.00,0.0343
2554.00,0.0342
2551.00,0.0341
2548.00,0.0341
2545.00,0.0340
2542.00,0.0338
2539.00,0.0336
2536.00,0.0334
2533.00,0.0331
2530.00,0.0329
2527.00,0.0327
2524.00,0.0326
2521.00,0.0326
2518.00,0.0325
2515.00,0.0324
2512.00,0.0319
2509.00,0.0313
2506.00,0.0305
2503.00,0.0297
2500.00,0.0289
2497.00,0.0281
2494.00,0.0273
2491.00,0.0267
2488.00,0.0261
2485.00,0.0255
2482.00,0.0250
2479.00,0.0245
2476.00,0.0241
2473.00,0.0237
2470.00,0.0233
2467.00,0.0229
2464.00,0.0226
2461.00,0.0224
2458.00,0.0221
2455.00,0.0219
2452.00,0.0216
2449.00,0.0213
2446.00,0.0210
2443.00,0.0207
2440.00,0.0204
2437.00,0.0201
2434.00,0.0198
2431.00,0.0195
2428.00,0.0192
2425.00,0.0189
2422.00,0.0187
2419.00,0.0184
2416.00,0.0182
2413.00,0.0179
2410.00,0.0177
2407.00,0.0174
2404.00,0.0172
2401.00,0.0170
2398.00,0.0168
2395.00,0.0166
2392.00,0.0165
2389.00,0.0163
2386.00,0.0162
2383.00,0.0161
2380.00,0.0160
2377.00,0.0157
2374.00,0.0154
2371.00,0.0153
2368.00,0.0154
2365.00,0.0156
2362.00,0.0158
2359.00,0.0159
2356.00,0.0159
2353.00,0.0145
2350.00,0.0144
2347.00,0.0140
2344.00,0.0138
2341.00,0.0138
2338.00,0.0137
2335.00,0.0146
2332.00,0.0144
2329.00,0.0144
2326.00,0.0144
2323.00,0.0139
2320.00,0.0138
2317.00,0.0138
2314.00,0.0137
2311.00,0.0135
2308.00,0.0135
2305.00,0.0134
2302.00,0.0132
2299.00,0.0130
2296.00,0.0129
2293.00,0.0128
2290.00,0.0127
2287.00,0.0125
2284.00,0.0124
2281.00,0.0123
2278.00,0.0121
2275.00,0.0121
2272.00,0.0119
2269.00,0.0115
2266.00,0.0113
2263.00,0.0112
2260.00,0.0111
2257.00,0.0109
2254.00,0.0108
2251.00,0.0107
2248.00,0.0106
2245.00,0.0106
2242.00,0.0105
2239.00,0.0103
2236.00,0.0103
2233.00,0.0102
2230.00,0.0102
2227.00,0.0102
2224.00,0.0102
2221.00,0.0101
2218.00,0.0102
2215.00,0.0101
2212.00,0.0100
2209.00,0.0101
2206.00,0.0102
2203.00,0.0101
2200.00,0.0100
2197.00,0.0101
2194.00,0.0101
2191.00,0.0101
2188.00,0.0101
2185.00,0.0100
2182.00,0.0098
2179.00,0.0099
2176.00,0.0098
2173.00,0.0099
2170.00,0.0100
2167.00,0.0098
2164.00,0.0098
2161.00,0.0090
2158.00,0.0084
2155.00,0.0087
2152.00,0.0088
2149.00,0.0089
2146.00,0.0088
2143.00,0.0090
2140.00,0.0091
2137.00,0.0090
2134.00,0.0091
2131.00,0.0093
2128.00,0.0093
2125.00,0.0093
2122.00,0.0094
2119.00,0.0094
2116.00,0.0095
2113.00,0.0094
2110.00,0.0093
2107.00,0.0092
2104.00,0.0092
2101.00,0.0092
2098.00,0.0092
2095.00,0.0092
2092.00,0.0092
2089.00,0.0092
2086.00,0.0091
2083.00,0.0089
2080.00,0.0088
2077.00,0.0086
2074.00,0.0087
2071.00,0.0086
2068.00,0.0087
2065.00,0.0087
2062.00,0.0087
2059.00,0.0088
2056.00,0.0087
2053.00,0.0089
2050.00,0.0086
2047.00,0.0087
2044.00,0.0089
2041.00,0.0088
2038.00,0.0086
2035.00,0.0088
2032.00,0.0088
2029.00,0.0086
2026.00,0.0085
2023.00,0.0086
2020.00,0.0083
2017.00,0.0080
2014.00,0.0080
2011.00,0.0080
2008.00,0.0080
2005.00,0.0078
2002.00,0.0079
1999.00,0.0080
1996.00,0.0082
1993.00,0.0082
1990.00,0.0082
1987.00,0.0083
1984.00,0.0083
1981.00,0.0083
1978.00,0.0079
1975.00,0.0081
1972.00,0.0081
1969.00,0.0081
1966.00,0.0081
1963.00,0.0081
1960.00,0.0082
1957.00,0.0081
1954.00,0.0080
1951.00,0.0079
1948.00,0.0080
1945.00,0.0081
1942.00,0.0082
1939.00,0.0082
1936.00,0.0083
1933.00,0.0084
1930.00,0.0084
1927.00,0.0085
1924.00,0.0087
1921.00,0.0087
1918.00,0.0087
1915.00,0.0088
1912.00,0.0088
1909.00,0.0089
1906.00,0.0089
1903.00,0.0089
1900.00,0.0089
1897.00,0.0089
1894.00,0.0090
1891.00,0.0090
1888.00,0.0091
1885.00,0.0090
1882.00,0.0090
1879.00,0.0091
1876.00,0.0090
1873.00,0.0090
1870.00,0.0092
1867.00,0.0094
1864.00,0.0094
1861.00,0.0094
1858.00,0.0094
1855.00,0.0094
1852.00,0.0094
1849.00,0.0095
1846.00,0.0096
1843.00,0.0097
1840.00,0.0096
1837.00,0.0096
1834.00,0.0095
1831.00,0.0096
1828.00,0.0096
1825.00,0.0096
1822.00,0.0095
1819.00,0.0094
1816.00,0.0094
1813.00,0.0094
1810.00,0.0096
1807.00,0.0097
1804.00,0.0097
1801.00,0.0099
1798.00,0.0099
1795.00,0.0099
1792.00,0.0100
1789.00,0.0100
1786.00,0.0099
1783.00,0.0100
1780.00,0.0101
1777.00,0.0101
1774.00,0.0101
1771.00,0.0102
1768.00,0.0103
1765.00,0.0102
1762.00,0.0103
1759.00,0.0103
1756.00,0.0104
1753.00,0.0103
1750.00,0.0106
1747.00,0.0106
1744.00,0.0106
1741.00,0.0105
1738.00,0.0103
1735.00,0.0104
1732.00,0.0105
1729.00,0.0105
1726.00,0.0103
1723.00,0.0103
1720.00,0.0102
1717.00,0.0103
1714.00,0.0104
1711.00,0.0104
1708.00,0.0106
1705.00,0.0111
1702.00,0.0112
1699.00,0.0116
1696.00,0.0120
1693.00,0.0121
1690.00,0.0125
1687.00,0.0128
1684.00,0.0133
1681.00,0.0139
1678.00,0.0143
1675.00,0.0153
1672.00,0.0168
1669.00,0.0191
1666.00,0.0204
1663.00,0.0206
1660.00,0.0208
1657.00,0.0213
1654.00,0.0224
1651.00,0.0245
1648.00,0.0265
1645.00,0.0305
1642.00,0.0353
1639.00,0.0420
1636.00,0.0530
1633.00,0.0686
1630.00,0.0855
1627.00,0.1094
1624.00,0.1357
1621.00,0.1662
1618.00,0.1917
1615.00,0.2269
1612.00,0.2399
1609.00,0.2338
1606.00,0.2110
1603.00,0.1836
1600.00,0.1594
1597.00,0.1403
1594.00,0.1249
1591.00,0.1112
1588.00,0.0989
1585.00,0.0886
1582.00,0.0813
1579.00,0.0776
1576.00,0.0813
1573.00,0.0929
1570.00,0.1147
1567.00,0.1378
1564.00,0.1358
1561.00,0.1130
1558.00,0.0798
1555.00,0.0626
1552.00,0.0523
1549.00,0.0462
1546.00,0.0419
1543.00,0.0390
1540.00,0.0370
1537.00,0.0355
1534.00,0.0346
1531.00,0.0343
1528.00,0.0341
1525.00,0.0346
1522.00,0.0353
1519.00,0.0367
1516.00,0.0382
1513.00,0.0395
1510.00,0.0412
1507.00,0.0436
1504.00,0.0454
1501.00,0.0466
1498.00,0.0484
1495.00,0.0502
1492.00,0.0502
1489.00,0.0497
1486.00,0.0467
1483.00,0.0435
1480.00,0.0426
1477.00,0.0453
1474.00,0.0538
1471.00,0.0694
1468.00,0.0805
1465.00,0.0894
1462.00,0.0936
1459.00,0.0924
1456.00,0.0953
1453.00,0.0989
1450.00,0.1009
1447.00,0.1037
1444.00,0.1044
1441.00,0.1010
1438.00,0.0938
1435.00,0.0860
1432.00,0.0807
1429.00,0.0752
1426.00,0.0711
1423.00,0.0688
1420.00,0.0581
1417.00,0.0497
1414.00,0.0483
1411.00,0.0522
1408.00,0.0619
1405.00,0.0780
1402.00,0.0915
1399.00,0.0911
1396.00,0.0801
1393.00,0.0692
1390.00,0.0682
1387.00,0.0806
1384.00,0.0862
1381.00,0.0910
1378.00,0.1042
1375.00,0.1201
1372.00,0.1291
1369.00,0.1333
1366.00,0.1409
1363.00,0.1275
1360.00,0.1078
1357.00,0.1067
1354.00,0.1027
1351.00,0.0852
1348.00,0.0698
1345.00,0.0622
1342.00,0.0559
1339.00,0.0494
1336.00,0.0444
1333.00,0.0427
1330.00,0.0440
1327.00,0.0469
1324.00,0.0494
1321.00,0.0503
1318.00,0.0488
1315.00,0.0472
1312.00,0.0475
1309.00,0.0481
1306.00,0.0497
1303.00,0.0504
1300.00,0.0506
1297.00,0.0548
1294.00,0.0632
1291.00,0.0741
1288.00,0.0857
1285.00,0.0907
1282.00,0.0903
1279.00,0.0948
1276.00,0.1125
1273.00,0.1395
1270.00,0.1583
1267.00,0.1693
1264.00,0.1824
1261.00,0.2031
1258.00,0.2311
1255.00,0.2550
1252.00,0.2651
1249.00,0.2653
1246.00,0.2455
1243.00,0.2102
1240.00,0.1893
1237.00,0.1811
1234.00,0.1716
1231.00,0.1499
1228.00,0.1248
1225.00,0.1076
1222.00,0.0960
1219.00,0.0838
1216.00,0.0733
1213.00,0.0663
1210.00,0.0620
1207.00,0.0616
1204.00,0.0690
1201.00,0.0923
1198.00,0.1355
1195.00,0.1715
1192.00,0.1724
1189.00,0.1668
1186.00,0.1694
1183.00,0.1598
1180.00,0.1324
1177.00,0.1087
1174.00,0.1021
1171.00,0.0991
1168.00,0.0815
1165.00,0.0646
1162.00,0.0549
1159.00,0.0493
1156.00,0.0465
1153.00,0.0493
1150.00,0.0649
1147.00,0.0856
1144.00,0.0776
1141.00,0.0628
1138.00,0.0689
1135.00,0.1009
1132.00,0.1517
1129.00,0.1600
1126.00,0.1373
1123.00,0.1527
1120.00,0.1855
1117.00,0.1796
1114.00,0.1468
1111.00,0.1226
1108.00,0.1059
1105.00,0.0890
1102.00,0.0738
1099.00,0.0632
1096.00,0.0549
1093.00,0.0485
1090.00,0.0446
1087.00,0.0436
1084.00,0.0486
1081.00,0.0643
1078.00,0.0850
1075.00,0.0853
1072.00,0.0687
1069.00,0.0567
1066.00,0.0505
1063.00,0.0481
1060.00,0.0509
1057.00,0.0643
1054.00,0.0760
1051.00,0.0687
1048.00,0.0569
1045.00,0.0562
1042.00,0.0668
1039.00,0.0748
1036.00,0.0684
1033.00,0.0597
1030.00,0.0508
1027.00,0.0426
1024.00,0.0389
1021.00,0.0383
1018.00,0.0398
1015.00,0.0423
1012.00,0.0438
1009.00,0.0458
1006.00,0.0443
1003.00,0.0424
1000.00,0.0401
997.00,0.0381
994.00,0.0368
991.00,0.0340
988.00,0.0317
985.00,0.0315
982.00,0.0328
979.00,0.0343
976.00,0.0370
973.00,0.0394
970.00,0.0380
967.00,0.0347
964.00,0.0332
961.00,0.0326
958.00,0.0327
955.00,0.0341
952.00,0.0366
949.00,0.0428
946.00,0.0509
943.00,0.0538
940.00,0.0515
937.00,0.0497
934.00,0.0504
931.00,0.0520
928.00,0.0557
925.00,0.0603
922.00,0.0641
919.00,0.0673
916.00,0.0730
913.00,0.0850
910.00,0.0982
907.00,0.1059
904.00,0.0979
901.00,0.0852
898.00,0.0841
895.00,0.0914
892.00,0.0956
889.00,0.0878
886.00,0.0735
883.00,0.0645
880.00,0.0590
877.00,0.0555
874.00,0.0533
871.00,0.0533
868.00,0.0565
865.00,0.0645
862.00,0.0819
859.00,0.1050
856.00,0.1097
853.00,0.1000
850.00,0.0933
847.00,0.0869
844.00,0.0828
841.00,0.0830
838.00,0.0852
835.00,0.0893
832.00,0.0873
829.00,0.0763
826.00,0.0667
823.00,0.0590
820.00,0.0543
817.00,0.0543
814.00,0.0603
811.00,0.0724
808.00,0.0807
805.00,0.0679
802.00,0.0466
799.00,0.0390
796.00,0.0399
793.00,0.0480
790.00,0.0618
787.00,0.0655
784.00,0.0590
781.00,0.0585
778.00,0.0664
775.00,0.0801
772.00,0.0873
769.00,0.0761
766.00,0.0668
763.00,0.0682
760.00,0.0699
757.00,0.0686
754.00,0.0654
751.00,0.0624
748.00,0.0607
745.00,0.0611
742.00,0.0637
739.00,0.0680
736.00,0.0719
733.00,0.0704
730.00,0.0700
727.00,0.0758
724.00,0.0872
721.00,0.1000
718.00,0.1142
715.00,0.1319
712.00,0.1335
709.00,0.1183
706.00,0.0970
703.00,0.0792
700.00,0.0675
697.00,0.0601
694.00,0.0554
691.00,0.0522
688.00,0.0487
685.00,0.0454
682.00,0.0425
679.00,0.0399
676.00,0.0381
673.00,0.0375
670.00,0.0375
667.00,0.0397
664.00,0.0430
661.00,0.0476
658.00,0.0488
655.00,0.0484
652.00,0.0475
649.00,0.0474
646.00,0.0548
643.00,0.0555
640.00,0.0592
637.00,0.0589
634.00,0.0496
631.00,0.0415
628.00,0.0392
625.00,0.0437
622.00,0.0481
619.00,0.0491
616.00,0.0450
613.00,0.0394
610.00,0.0395
607.00,0.0403
604.00,0.0388
601.00,0.0425
598.00,0.0560
595.00,0.0718
592.00,0.0754
589.00,0.0628
586.00,0.0476
583.00,0.0378
580.00,0.0323
577.00,0.0297
574.00,0.0296
571.00,0.0342
568.00,0.0402
565.00,0.0392
562.00,0.0343
559.00,0.0331
556.00,0.0333
553.00,0.0340
550.00,0.0385
547.00,0.0431
544.00,0.0384
541.00,0.0308
538.00,0.0269
535.00,0.0260
532.00,0.0279
529.00,0.0339
526.00,0.0438
523.00,0.0435
520.00,0.0342
517.00,0.0306
514.00,0.0325
511.00,0.0395
508.00,0.0545
505.00,0.0724
502.00,0.0739
499.00,0.0663
496.00,0.0767
493.00,0.0827
490.00,0.0611
487.00,0.0417
484.00,0.0347
481.00,0.0358
478.00,0.0401
475.00,0.0409
472.00,0.0420
469.00,0.0429
466.00,0.0392
463.00,0.0342
460.00,0.0312
457.00,0.0306
454.00,0.0314
451.00,0.0322
448.00,0.0337
445.00,0.0368
442.00,0.0437
439.00,0.0531
436.00,0.0627
433.00,0.0686
430.00,0.0719
427.00,0.0738
424.00,0.0794
421.00,0.0790
418.00,0.0682
415.00,0.0657
412.00,0.0649
409.00,0.0577
406.00,0.0478
403.00,0.0437
400.00,0.0441