File: FTIR/Mary/2024_11_01_THCa_powder_Scan3.csv
Created as New Dataset,Sample 026 By YargerLab Date Friday, November 01 2024
cm-1,A
4000.00,0.0059
3997.00,0.0059
3994.00,0.0059
3991.00,0.0059
3988.00,0.0060
3985.00,0.0060
3982.00,0.0060
3979.00,0.0060
3976.00,0.0060
3973.00,0.0060
3970.00,0.0060
3967.00,0.0060
3964.00,0.0060
3961.00,0.0059
3958.00,0.0059
3955.00,0.0059
3952.00,0.0059
3949.00,0.0059
3946.00,0.0059
3943.00,0.0059
3940.00,0.0059
3937.00,0.0059
3934.00,0.0059
3931.00,0.0059
3928.00,0.0059
3925.00,0.0059
3922.00,0.0059
3919.00,0.0059
3916.00,0.0059
3913.00,0.0059
3910.00,0.0059
3907.00,0.0059
3904.00,0.0059
3901.00,0.0059
3898.00,0.0059
3895.00,0.0059
3892.00,0.0059
3889.00,0.0059
3886.00,0.0059
3883.00,0.0059
3880.00,0.0058
3877.00,0.0058
3874.00,0.0058
3871.00,0.0058
3868.00,0.0058
3865.00,0.0058
3862.00,0.0058
3859.00,0.0058
3856.00,0.0059
3853.00,0.0059
3850.00,0.0058
3847.00,0.0058
3844.00,0.0058
3841.00,0.0058
3838.00,0.0058
3835.00,0.0058
3832.00,0.0057
3829.00,0.0057
3826.00,0.0057
3823.00,0.0057
3820.00,0.0057
3817.00,0.0057
3814.00,0.0057
3811.00,0.0057
3808.00,0.0056
3805.00,0.0056
3802.00,0.0056
3799.00,0.0056
3796.00,0.0056
3793.00,0.0056
3790.00,0.0056
3787.00,0.0056
3784.00,0.0056
3781.00,0.0056
3778.00,0.0056
3775.00,0.0056
3772.00,0.0056
3769.00,0.0056
3766.00,0.0056
3763.00,0.0056
3760.00,0.0055
3757.00,0.0055
3754.00,0.0056
3751.00,0.0056
3748.00,0.0056
3745.00,0.0056
3742.00,0.0056
3739.00,0.0055
3736.00,0.0056
3733.00,0.0056
3730.00,0.0056
3727.00,0.0055
3724.00,0.0055
3721.00,0.0055
3718.00,0.0055
3715.00,0.0055
3712.00,0.0055
3709.00,0.0055
3706.00,0.0054
3703.00,0.0055
3700.00,0.0054
3697.00,0.0054
3694.00,0.0054
3691.00,0.0054
3688.00,0.0054
3685.00,0.0053
3682.00,0.0052
3679.00,0.0051
3676.00,0.0050
3673.00,0.0050
3670.00,0.0050
3667.00,0.0049
3664.00,0.0048
3661.00,0.0048
3658.00,0.0048
3655.00,0.0048
3652.00,0.0048
3649.00,0.0049
3646.00,0.0049
3643.00,0.0049
3640.00,0.0049
3637.00,0.0049
3634.00,0.0051
3631.00,0.0053
3628.00,0.0054
3625.00,0.0053
3622.00,0.0053
3619.00,0.0054
3616.00,0.0054
3613.00,0.0054
3610.00,0.0054
3607.00,0.0054
3604.00,0.0054
3601.00,0.0054
3598.00,0.0054
3595.00,0.0054
3592.00,0.0054
3589.00,0.0054
3586.00,0.0054
3583.00,0.0054
3580.00,0.0054
3577.00,0.0054
3574.00,0.0054
3571.00,0.0054
3568.00,0.0054
3565.00,0.0054
3562.00,0.0054
3559.00,0.0054
3556.00,0.0054
3553.00,0.0054
3550.00,0.0054
3547.00,0.0054
3544.00,0.0054
3541.00,0.0054
3538.00,0.0054
3535.00,0.0055
3532.00,0.0055
3529.00,0.0055
3526.00,0.0054
3523.00,0.0052
3520.00,0.0049
3517.00,0.0046
3514.00,0.0044
3511.00,0.0044
3508.00,0.0046
3505.00,0.0048
3502.00,0.0050
3499.00,0.0051
3496.00,0.0052
3493.00,0.0053
3490.00,0.0054
3487.00,0.0054
3484.00,0.0055
3481.00,0.0055
3478.00,0.0055
3475.00,0.0055
3472.00,0.0055
3469.00,0.0055
3466.00,0.0055
3463.00,0.0055
3460.00,0.0055
3457.00,0.0055
3454.00,0.0055
3451.00,0.0055
3448.00,0.0056
3445.00,0.0056
3442.00,0.0055
3439.00,0.0055
3436.00,0.0055
3433.00,0.0055
3430.00,0.0055
3427.00,0.0055
3424.00,0.0055
3421.00,0.0055
3418.00,0.0055
3415.00,0.0055
3412.00,0.0054
3409.00,0.0054
3406.00,0.0053
3403.00,0.0052
3400.00,0.0052
3397.00,0.0053
3394.00,0.0054
3391.00,0.0056
3388.00,0.0059
3385.00,0.0062
3382.00,0.0065
3379.00,0.0067
3376.00,0.0069
3373.00,0.0071
3370.00,0.0072
3367.00,0.0074
3364.00,0.0076
3361.00,0.0077
3358.00,0.0078
3355.00,0.0080
3352.00,0.0081
3349.00,0.0082
3346.00,0.0084
3343.00,0.0085
3340.00,0.0086
3337.00,0.0088
3334.00,0.0090
3331.00,0.0092
3328.00,0.0093
3325.00,0.0094
3322.00,0.0096
3319.00,0.0098
3316.00,0.0099
3313.00,0.0101
3310.00,0.0102
3307.00,0.0103
3304.00,0.0106
3301.00,0.0108
3298.00,0.0109
3295.00,0.0111
3292.00,0.0113
3289.00,0.0115
3286.00,0.0118
3283.00,0.0120
3280.00,0.0122
3277.00,0.0124
3274.00,0.0125
3271.00,0.0128
3268.00,0.0132
3265.00,0.0136
3262.00,0.0139
3259.00,0.0142
3256.00,0.0144
3253.00,0.0149
3250.00,0.0152
3247.00,0.0154
3244.00,0.0159
3241.00,0.0164
3238.00,0.0167
3235.00,0.0167
3232.00,0.0173
3229.00,0.0181
3226.00,0.0185
3223.00,0.0189
3220.00,0.0192
3217.00,0.0195
3214.00,0.0198
3211.00,0.0201
3208.00,0.0202
3205.00,0.0204
3202.00,0.0205
3199.00,0.0207
3196.00,0.0209
3193.00,0.0210
3190.00,0.0211
3187.00,0.0214
3184.00,0.0216
3181.00,0.0218
3178.00,0.0220
3175.00,0.0222
3172.00,0.0224
3169.00,0.0226
3166.00,0.0228
3163.00,0.0231
3160.00,0.0234
3157.00,0.0237
3154.00,0.0239
3151.00,0.0243
3148.00,0.0249
3145.00,0.0254
3142.00,0.0256
3139.00,0.0260
3136.00,0.0267
3133.00,0.0271
3130.00,0.0275
3127.00,0.0279
3124.00,0.0281
3121.00,0.0281
3118.00,0.0284
3115.00,0.0289
3112.00,0.0293
3109.00,0.0297
3106.00,0.0303
3103.00,0.0308
3100.00,0.0313
3097.00,0.0318
3094.00,0.0324
3091.00,0.0329
3088.00,0.0336
3085.00,0.0343
3082.00,0.0353
3079.00,0.0364
3076.00,0.0375
3073.00,0.0384
3070.00,0.0391
3067.00,0.0397
3064.00,0.0399
3061.00,0.0400
3058.00,0.0400
3055.00,0.0402
3052.00,0.0405
3049.00,0.0408
3046.00,0.0412
3043.00,0.0415
3040.00,0.0418
3037.00,0.0420
3034.00,0.0423
3031.00,0.0426
3028.00,0.0429
3025.00,0.0431
3022.00,0.0433
3019.00,0.0434
3016.00,0.0434
3013.00,0.0434
3010.00,0.0434
3007.00,0.0434
3004.00,0.0434
3001.00,0.0438
2998.00,0.0447
2995.00,0.0461
2992.00,0.0480
2989.00,0.0505
2986.00,0.0539
2983.00,0.0567
2980.00,0.0594
2977.00,0.0623
2974.00,0.0635
2971.00,0.0636
2968.00,0.0663
2965.00,0.0708
2962.00,0.0747
2959.00,0.0763
2956.00,0.0757
2953.00,0.0744
2950.00,0.0742
2947.00,0.0761
2944.00,0.0806
2941.00,0.0863
2938.00,0.0888
2935.00,0.0890
2932.00,0.0904
2929.00,0.0920
2926.00,0.0926
2923.00,0.0914
2920.00,0.0888
2917.00,0.0859
2914.00,0.0830
2911.00,0.0804
2908.00,0.0784
2905.00,0.0775
2902.00,0.0776
2899.00,0.0778
2896.00,0.0774
2893.00,0.0769
2890.00,0.0772
2887.00,0.0770
2884.00,0.0751
2881.00,0.0736
2878.00,0.0741
2875.00,0.0758
2872.00,0.0773
2869.00,0.0771
2866.00,0.0762
2863.00,0.0751
2860.00,0.0736
2857.00,0.0721
2854.00,0.0709
2851.00,0.0698
2848.00,0.0684
2845.00,0.0661
2842.00,0.0641
2839.00,0.0642
2836.00,0.0661
2833.00,0.0673
2830.00,0.0660
2827.00,0.0629
2824.00,0.0594
2821.00,0.0567
2818.00,0.0548
2815.00,0.0532
2812.00,0.0520
2809.00,0.0509
2806.00,0.0500
2803.00,0.0492
2800.00,0.0483
2797.00,0.0475
2794.00,0.0467
2791.00,0.0459
2788.00,0.0451
2785.00,0.0442
2782.00,0.0434
2779.00,0.0426
2776.00,0.0419
2773.00,0.0413
2770.00,0.0407
2767.00,0.0403
2764.00,0.0399
2761.00,0.0396
2758.00,0.0394
2755.00,0.0393
2752.00,0.0391
2749.00,0.0390
2746.00,0.0389
2743.00,0.0388
2740.00,0.0387
2737.00,0.0385
2734.00,0.0384
2731.00,0.0384
2728.00,0.0384
2725.00,0.0383
2722.00,0.0380
2719.00,0.0374
2716.00,0.0369
2713.00,0.0365
2710.00,0.0363
2707.00,0.0362
2704.00,0.0361
2701.00,0.0360
2698.00,0.0359
2695.00,0.0359
2692.00,0.0360
2689.00,0.0362
2686.00,0.0363
2683.00,0.0364
2680.00,0.0364
2677.00,0.0362
2674.00,0.0360
2671.00,0.0358
2668.00,0.0357
2665.00,0.0357
2662.00,0.0356
2659.00,0.0355
2656.00,0.0354
2653.00,0.0354
2650.00,0.0353
2647.00,0.0352
2644.00,0.0350
2641.00,0.0348
2638.00,0.0346
2635.00,0.0344
2632.00,0.0342
2629.00,0.0340
2626.00,0.0339
2623.00,0.0337
2620.00,0.0337
2617.00,0.0337
2614.00,0.0337
2611.00,0.0336
2608.00,0.0335
2605.00,0.0334
2602.00,0.0333
2599.00,0.0333
2596.00,0.0334
2593.00,0.0336
2590.00,0.0339
2587.00,0.0344
2584.00,0.0350
2581.00,0.0355
2578.00,0.0358
2575.00,0.0360
2572.00,0.0360
2569.00,0.0360
2566.00,0.0358
2563.00,0.0356
2560.00,0.0355
2557.00,0.0354
2554.00,0.0353
2551.00,0.0352
2548.00,0.0351
2545.00,0.0350
2542.00,0.0348
2539.00,0.0346
2536.00,0.0343
2533.00,0.0340
2530.00,0.0337
2527.00,0.0335
2524.00,0.0334
2521.00,0.0334
2518.00,0.0333
2515.00,0.0331
2512.00,0.0326
2509.00,0.0319
2506.00,0.0311
2503.00,0.0302
2500.00,0.0293
2497.00,0.0284
2494.00,0.0276
2491.00,0.0269
2488.00,0.0263
2485.00,0.0256
2482.00,0.0250
2479.00,0.0245
2476.00,0.0240
2473.00,0.0236
2470.00,0.0232
2467.00,0.0228
2464.00,0.0225
2461.00,0.0222
2458.00,0.0219
2455.00,0.0217
2452.00,0.0214
2449.00,0.0210
2446.00,0.0207
2443.00,0.0204
2440.00,0.0200
2437.00,0.0196
2434.00,0.0193
2431.00,0.0190
2428.00,0.0187
2425.00,0.0184
2422.00,0.0182
2419.00,0.0179
2416.00,0.0176
2413.00,0.0173
2410.00,0.0170
2407.00,0.0167
2404.00,0.0165
2401.00,0.0163
2398.00,0.0161
2395.00,0.0159
2392.00,0.0157
2389.00,0.0155
2386.00,0.0154
2383.00,0.0152
2380.00,0.0151
2377.00,0.0149
2374.00,0.0147
2371.00,0.0146
2368.00,0.0145
2365.00,0.0144
2362.00,0.0142
2359.00,0.0141
2356.00,0.0141
2353.00,0.0138
2350.00,0.0137
2347.00,0.0136
2344.00,0.0134
2341.00,0.0133
2338.00,0.0133
2335.00,0.0132
2332.00,0.0130
2329.00,0.0130
2326.00,0.0130
2323.00,0.0127
2320.00,0.0126
2317.00,0.0125
2314.00,0.0124
2311.00,0.0123
2308.00,0.0122
2305.00,0.0121
2302.00,0.0119
2299.00,0.0118
2296.00,0.0117
2293.00,0.0116
2290.00,0.0115
2287.00,0.0114
2284.00,0.0113
2281.00,0.0112
2278.00,0.0111
2275.00,0.0110
2272.00,0.0107
2269.00,0.0104
2266.00,0.0102
2263.00,0.0100
2260.00,0.0099
2257.00,0.0097
2254.00,0.0096
2251.00,0.0096
2248.00,0.0095
2245.00,0.0094
2242.00,0.0093
2239.00,0.0092
2236.00,0.0091
2233.00,0.0090
2230.00,0.0090
2227.00,0.0091
2224.00,0.0091
2221.00,0.0090
2218.00,0.0090
2215.00,0.0089
2212.00,0.0089
2209.00,0.0090
2206.00,0.0091
2203.00,0.0090
2200.00,0.0090
2197.00,0.0089
2194.00,0.0089
2191.00,0.0089
2188.00,0.0089
2185.00,0.0089
2182.00,0.0088
2179.00,0.0088
2176.00,0.0085
2173.00,0.0086
2170.00,0.0087
2167.00,0.0086
2164.00,0.0086
2161.00,0.0077
2158.00,0.0072
2155.00,0.0074
2152.00,0.0074
2149.00,0.0076
2146.00,0.0077
2143.00,0.0078
2140.00,0.0079
2137.00,0.0078
2134.00,0.0079
2131.00,0.0080
2128.00,0.0081
2125.00,0.0081
2122.00,0.0082
2119.00,0.0083
2116.00,0.0084
2113.00,0.0082
2110.00,0.0081
2107.00,0.0081
2104.00,0.0081
2101.00,0.0081
2098.00,0.0081
2095.00,0.0080
2092.00,0.0080
2089.00,0.0079
2086.00,0.0079
2083.00,0.0077
2080.00,0.0076
2077.00,0.0075
2074.00,0.0075
2071.00,0.0075
2068.00,0.0075
2065.00,0.0075
2062.00,0.0075
2059.00,0.0076
2056.00,0.0076
2053.00,0.0078
2050.00,0.0076
2047.00,0.0078
2044.00,0.0079
2041.00,0.0078
2038.00,0.0075
2035.00,0.0075
2032.00,0.0076
2029.00,0.0075
2026.00,0.0073
2023.00,0.0073
2020.00,0.0071
2017.00,0.0068
2014.00,0.0067
2011.00,0.0064
2008.00,0.0065
2005.00,0.0066
2002.00,0.0067
1999.00,0.0068
1996.00,0.0070
1993.00,0.0070
1990.00,0.0069
1987.00,0.0070
1984.00,0.0071
1981.00,0.0072
1978.00,0.0069
1975.00,0.0070
1972.00,0.0070
1969.00,0.0069
1966.00,0.0068
1963.00,0.0069
1960.00,0.0068
1957.00,0.0068
1954.00,0.0068
1951.00,0.0068
1948.00,0.0069
1945.00,0.0069
1942.00,0.0069
1939.00,0.0070
1936.00,0.0072
1933.00,0.0072
1930.00,0.0074
1927.00,0.0074
1924.00,0.0075
1921.00,0.0075
1918.00,0.0075
1915.00,0.0076
1912.00,0.0078
1909.00,0.0079
1906.00,0.0078
1903.00,0.0078
1900.00,0.0079
1897.00,0.0079
1894.00,0.0079
1891.00,0.0079
1888.00,0.0079
1885.00,0.0079
1882.00,0.0080
1879.00,0.0080
1876.00,0.0080
1873.00,0.0081
1870.00,0.0082
1867.00,0.0082
1864.00,0.0084
1861.00,0.0084
1858.00,0.0085
1855.00,0.0085
1852.00,0.0085
1849.00,0.0086
1846.00,0.0086
1843.00,0.0087
1840.00,0.0087
1837.00,0.0087
1834.00,0.0087
1831.00,0.0087
1828.00,0.0086
1825.00,0.0087
1822.00,0.0086
1819.00,0.0085
1816.00,0.0085
1813.00,0.0085
1810.00,0.0087
1807.00,0.0088
1804.00,0.0089
1801.00,0.0090
1798.00,0.0090
1795.00,0.0091
1792.00,0.0091
1789.00,0.0091
1786.00,0.0091
1783.00,0.0092
1780.00,0.0092
1777.00,0.0092
1774.00,0.0092
1771.00,0.0093
1768.00,0.0095
1765.00,0.0094
1762.00,0.0095
1759.00,0.0095
1756.00,0.0095
1753.00,0.0096
1750.00,0.0097
1747.00,0.0097
1744.00,0.0097
1741.00,0.0097
1738.00,0.0097
1735.00,0.0098
1732.00,0.0098
1729.00,0.0098
1726.00,0.0098
1723.00,0.0097
1720.00,0.0097
1717.00,0.0097
1714.00,0.0097
1711.00,0.0099
1708.00,0.0101
1705.00,0.0105
1702.00,0.0108
1699.00,0.0113
1696.00,0.0118
1693.00,0.0120
1690.00,0.0124
1687.00,0.0127
1684.00,0.0132
1681.00,0.0138
1678.00,0.0144
1675.00,0.0156
1672.00,0.0173
1669.00,0.0198
1666.00,0.0214
1663.00,0.0218
1660.00,0.0221
1657.00,0.0228
1654.00,0.0241
1651.00,0.0266
1648.00,0.0283
1645.00,0.0326
1642.00,0.0379
1639.00,0.0452
1636.00,0.0568
1633.00,0.0735
1630.00,0.0911
1627.00,0.1159
1624.00,0.1433
1621.00,0.1750
1618.00,0.2025
1615.00,0.2392
1612.00,0.2532
1609.00,0.2471
1606.00,0.2232
1603.00,0.1944
1600.00,0.1687
1597.00,0.1483
1594.00,0.1316
1591.00,0.1167
1588.00,0.1033
1585.00,0.0921
1582.00,0.0842
1579.00,0.0807
1576.00,0.0853
1573.00,0.0983
1570.00,0.1218
1567.00,0.1467
1564.00,0.1448
1561.00,0.1209
1558.00,0.0841
1555.00,0.0656
1552.00,0.0543
1549.00,0.0475
1546.00,0.0430
1543.00,0.0396
1540.00,0.0375
1537.00,0.0362
1534.00,0.0352
1531.00,0.0348
1528.00,0.0347
1525.00,0.0351
1522.00,0.0360
1519.00,0.0373
1516.00,0.0388
1513.00,0.0405
1510.00,0.0422
1507.00,0.0445
1504.00,0.0470
1501.00,0.0482
1498.00,0.0501
1495.00,0.0520
1492.00,0.0520
1489.00,0.0510
1486.00,0.0480
1483.00,0.0448
1480.00,0.0439
1477.00,0.0469
1474.00,0.0560
1471.00,0.0729
1468.00,0.0849
1465.00,0.0942
1462.00,0.0984
1459.00,0.0972
1456.00,0.0998
1453.00,0.1036
1450.00,0.1053
1447.00,0.1078
1444.00,0.1083
1441.00,0.1048
1438.00,0.0974
1435.00,0.0892
1432.00,0.0838
1429.00,0.0782
1426.00,0.0742
1423.00,0.0719
1420.00,0.0607
1417.00,0.0516
1414.00,0.0504
1411.00,0.0548
1408.00,0.0652
1405.00,0.0819
1402.00,0.0960
1399.00,0.0951
1396.00,0.0832
1393.00,0.0716
1390.00,0.0707
1387.00,0.0839
1384.00,0.0903
1381.00,0.0954
1378.00,0.1094
1375.00,0.1260
1372.00,0.1357
1369.00,0.1404
1366.00,0.1486
1363.00,0.1344
1360.00,0.1136
1357.00,0.1126
1354.00,0.1083
1351.00,0.0895
1348.00,0.0728
1345.00,0.0647
1342.00,0.0577
1339.00,0.0507
1336.00,0.0456
1333.00,0.0440
1330.00,0.0454
1327.00,0.0485
1324.00,0.0512
1321.00,0.0522
1318.00,0.0505
1315.00,0.0487
1312.00,0.0487
1309.00,0.0495
1306.00,0.0513
1303.00,0.0523
1300.00,0.0527
1297.00,0.0574
1294.00,0.0663
1291.00,0.0778
1288.00,0.0896
1285.00,0.0945
1282.00,0.0939
1279.00,0.0987
1276.00,0.1172
1273.00,0.1453
1270.00,0.1648
1267.00,0.1767
1264.00,0.1906
1261.00,0.2124
1258.00,0.2415
1255.00,0.2667
1252.00,0.2775
1249.00,0.2778
1246.00,0.2576
1243.00,0.2212
1240.00,0.1992
1237.00,0.1905
1234.00,0.1805
1231.00,0.1578
1228.00,0.1311
1225.00,0.1126
1222.00,0.0999
1219.00,0.0866
1216.00,0.0752
1213.00,0.0676
1210.00,0.0633
1207.00,0.0632
1204.00,0.0715
1201.00,0.0965
1198.00,0.1420
1195.00,0.1799
1192.00,0.1816
1189.00,0.1764
1186.00,0.1791
1183.00,0.1688
1180.00,0.1395
1177.00,0.1140
1174.00,0.1065
1171.00,0.1029
1168.00,0.0844
1165.00,0.0666
1162.00,0.0564
1159.00,0.0503
1156.00,0.0472
1153.00,0.0498
1150.00,0.0661
1147.00,0.0884
1144.00,0.0805
1141.00,0.0651
1138.00,0.0717
1135.00,0.1054
1132.00,0.1584
1129.00,0.1676
1126.00,0.1443
1123.00,0.1603
1120.00,0.1943
1117.00,0.1881
1114.00,0.1539
1111.00,0.1283
1108.00,0.1104
1105.00,0.0925
1102.00,0.0762
1099.00,0.0648
1096.00,0.0558
1093.00,0.0491
1090.00,0.0449
1087.00,0.0439
1084.00,0.0492
1081.00,0.0658
1078.00,0.0878
1075.00,0.0883
1072.00,0.0708
1069.00,0.0582
1066.00,0.0515
1063.00,0.0489
1060.00,0.0519
1057.00,0.0663
1054.00,0.0786
1051.00,0.0705
1048.00,0.0580
1045.00,0.0576
1042.00,0.0689
1039.00,0.0770
1036.00,0.0699
1033.00,0.0605
1030.00,0.0510
1027.00,0.0424
1024.00,0.0385
1021.00,0.0376
1018.00,0.0392
1015.00,0.0422
1012.00,0.0440
1009.00,0.0462
1006.00,0.0444
1003.00,0.0423
1000.00,0.0400
997.00,0.0379
994.00,0.0366
991.00,0.0339
988.00,0.0314
985.00,0.0311
982.00,0.0325
979.00,0.0342
976.00,0.0370
973.00,0.0394
970.00,0.0378
967.00,0.0341
964.00,0.0324
961.00,0.0317
958.00,0.0319
955.00,0.0334
952.00,0.0362
949.00,0.0429
946.00,0.0517
943.00,0.0547
940.00,0.0522
937.00,0.0504
934.00,0.0512
931.00,0.0530
928.00,0.0570
925.00,0.0620
922.00,0.0660
919.00,0.0693
916.00,0.0753
913.00,0.0881
910.00,0.1019
907.00,0.1094
904.00,0.1009
901.00,0.0877
898.00,0.0864
895.00,0.0942
892.00,0.0989
889.00,0.0909
886.00,0.0758
883.00,0.0660
880.00,0.0605
877.00,0.0570
874.00,0.0549
871.00,0.0548
868.00,0.0583
865.00,0.0668
862.00,0.0848
859.00,0.1087
856.00,0.1138
853.00,0.1040
850.00,0.0970
847.00,0.0903
844.00,0.0861
841.00,0.0862
838.00,0.0884
835.00,0.0925
832.00,0.0903
829.00,0.0789
826.00,0.0687
823.00,0.0608
820.00,0.0561
817.00,0.0563
814.00,0.0626
811.00,0.0750
808.00,0.0831
805.00,0.0694
802.00,0.0472
799.00,0.0395
796.00,0.0407
793.00,0.0494
790.00,0.0639
787.00,0.0677
784.00,0.0609
781.00,0.0605
778.00,0.0689
775.00,0.0830
772.00,0.0904
769.00,0.0790
766.00,0.0693
763.00,0.0707
760.00,0.0723
757.00,0.0709
754.00,0.0676
751.00,0.0644
748.00,0.0627
745.00,0.0632
742.00,0.0657
739.00,0.0702
736.00,0.0741
733.00,0.0726
730.00,0.0722
727.00,0.0782
724.00,0.0900
721.00,0.1032
718.00,0.1180
715.00,0.1363
712.00,0.1380
709.00,0.1225
706.00,0.1005
703.00,0.0819
700.00,0.0697
697.00,0.0618
694.00,0.0568
691.00,0.0534
688.00,0.0496
685.00,0.0460
682.00,0.0429
679.00,0.0401
676.00,0.0381
673.00,0.0374
670.00,0.0379
667.00,0.0409
664.00,0.0434
661.00,0.0483
658.00,0.0496
655.00,0.0492
652.00,0.0481
649.00,0.0478
646.00,0.0556
643.00,0.0565
640.00,0.0603
637.00,0.0602
634.00,0.0505
631.00,0.0420
628.00,0.0394
625.00,0.0440
622.00,0.0487
619.00,0.0499
616.00,0.0456
613.00,0.0398
610.00,0.0399
607.00,0.0408
604.00,0.0395
601.00,0.0431
598.00,0.0570
595.00,0.0732
592.00,0.0768
589.00,0.0638
586.00,0.0479
583.00,0.0378
580.00,0.0321
577.00,0.0292
574.00,0.0293
571.00,0.0343
568.00,0.0404
565.00,0.0390
562.00,0.0339
559.00,0.0325
556.00,0.0331
553.00,0.0339
550.00,0.0383
547.00,0.0428
544.00,0.0383
541.00,0.0305
538.00,0.0262
535.00,0.0251
532.00,0.0273
529.00,0.0335
526.00,0.0438
523.00,0.0433
520.00,0.0333
517.00,0.0300
514.00,0.0318
511.00,0.0393
508.00,0.0548
505.00,0.0729
502.00,0.0743
499.00,0.0668
496.00,0.0778
493.00,0.0830
490.00,0.0609
487.00,0.0414
484.00,0.0340
481.00,0.0352
478.00,0.0394
475.00,0.0403
472.00,0.0409
469.00,0.0419
466.00,0.0382
463.00,0.0334
460.00,0.0304
457.00,0.0298
454.00,0.0302
451.00,0.0310
448.00,0.0327
445.00,0.0364
442.00,0.0437
439.00,0.0533
436.00,0.0625
433.00,0.0692
430.00,0.0730
427.00,0.0753
424.00,0.0797
421.00,0.0791
418.00,0.0677
415.00,0.0646
412.00,0.0650
409.00,0.0570
406.00,0.0479
403.00,0.0419
400.00,0.0426