File: FTIR/Mary/2024_07_27_HIFaFilms_Unstretched_1.csv
Created as New Dataset,Sample 284 By YargerLab Date Friday, July 26 2024
cm-1,A
4000.00,-0.0003
3997.00,-0.0003
3994.00,-0.0003
3991.00,-0.0003
3988.00,-0.0003
3985.00,-0.0003
3982.00,-0.0003
3979.00,-0.0003
3976.00,-0.0003
3973.00,-0.0003
3970.00,-0.0003
3967.00,-0.0003
3964.00,-0.0003
3961.00,-0.0003
3958.00,-0.0003
3955.00,-0.0003
3952.00,-0.0003
3949.00,-0.0003
3946.00,-0.0003
3943.00,-0.0003
3940.00,-0.0003
3937.00,-0.0003
3934.00,-0.0003
3931.00,-0.0003
3928.00,-0.0003
3925.00,-0.0003
3922.00,-0.0003
3919.00,-0.0003
3916.00,-0.0003
3913.00,-0.0003
3910.00,-0.0003
3907.00,-0.0003
3904.00,-0.0002
3901.00,-0.0002
3898.00,-0.0003
3895.00,-0.0003
3892.00,-0.0003
3889.00,-0.0003
3886.00,-0.0003
3883.00,-0.0003
3880.00,-0.0003
3877.00,-0.0003
3874.00,-0.0003
3871.00,-0.0003
3868.00,-0.0002
3865.00,-0.0003
3862.00,-0.0003
3859.00,-0.0003
3856.00,-0.0001
3853.00,-0.0002
3850.00,-0.0003
3847.00,-0.0004
3844.00,-0.0003
3841.00,-0.0002
3838.00,-0.0002
3835.00,-0.0002
3832.00,-0.0003
3829.00,-0.0004
3826.00,-0.0004
3823.00,-0.0003
3820.00,-0.0003
3817.00,-0.0003
3814.00,-0.0003
3811.00,-0.0004
3808.00,-0.0003
3805.00,-0.0002
3802.00,-0.0003
3799.00,-0.0003
3796.00,-0.0003
3793.00,-0.0004
3790.00,-0.0004
3787.00,-0.0003
3784.00,-0.0003
3781.00,-0.0003
3778.00,-0.0003
3775.00,-0.0003
3772.00,-0.0003
3769.00,-0.0003
3766.00,-0.0003
3763.00,-0.0003
3760.00,-0.0003
3757.00,-0.0003
3754.00,-0.0002
3751.00,-0.0002
3748.00,-0.0002
3745.00,-0.0002
3742.00,-0.0002
3739.00,-0.0002
3736.00,-0.0002
3733.00,-0.0002
3730.00,-0.0003
3727.00,-0.0003
3724.00,-0.0003
3721.00,-0.0003
3718.00,-0.0003
3715.00,-0.0002
3712.00,-0.0002
3709.00,-0.0002
3706.00,-0.0002
3703.00,-0.0002
3700.00,-0.0002
3697.00,-0.0002
3694.00,-0.0002
3691.00,-0.0001
3688.00,-0.0001
3685.00,-0.0001
3682.00,-0.0001
3679.00,-0.0000
3676.00,0.0000
3673.00,0.0001
3670.00,0.0000
3667.00,0.0001
3664.00,0.0001
3661.00,0.0001
3658.00,0.0002
3655.00,0.0003
3652.00,0.0004
3649.00,0.0004
3646.00,0.0005
3643.00,0.0004
3640.00,0.0005
3637.00,0.0006
3634.00,0.0007
3631.00,0.0008
3628.00,0.0008
3625.00,0.0008
3622.00,0.0009
3619.00,0.0010
3616.00,0.0011
3613.00,0.0011
3610.00,0.0012
3607.00,0.0012
3604.00,0.0013
3601.00,0.0014
3598.00,0.0015
3595.00,0.0016
3592.00,0.0017
3589.00,0.0017
3586.00,0.0018
3583.00,0.0019
3580.00,0.0019
3577.00,0.0020
3574.00,0.0021
3571.00,0.0023
3568.00,0.0023
3565.00,0.0023
3562.00,0.0024
3559.00,0.0025
3556.00,0.0026
3553.00,0.0027
3550.00,0.0028
3547.00,0.0028
3544.00,0.0029
3541.00,0.0030
3538.00,0.0031
3535.00,0.0031
3532.00,0.0032
3529.00,0.0033
3526.00,0.0034
3523.00,0.0034
3520.00,0.0035
3517.00,0.0035
3514.00,0.0036
3511.00,0.0037
3508.00,0.0038
3505.00,0.0039
3502.00,0.0039
3499.00,0.0040
3496.00,0.0041
3493.00,0.0042
3490.00,0.0043
3487.00,0.0044
3484.00,0.0044
3481.00,0.0044
3478.00,0.0046
3475.00,0.0046
3472.00,0.0047
3469.00,0.0048
3466.00,0.0049
3463.00,0.0049
3460.00,0.0050
3457.00,0.0050
3454.00,0.0051
3451.00,0.0052
3448.00,0.0053
3445.00,0.0053
3442.00,0.0054
3439.00,0.0055
3436.00,0.0056
3433.00,0.0056
3430.00,0.0057
3427.00,0.0058
3424.00,0.0058
3421.00,0.0059
3418.00,0.0060
3415.00,0.0061
3412.00,0.0061
3409.00,0.0062
3406.00,0.0063
3403.00,0.0063
3400.00,0.0064
3397.00,0.0064
3394.00,0.0065
3391.00,0.0066
3388.00,0.0067
3385.00,0.0067
3382.00,0.0068
3379.00,0.0069
3376.00,0.0069
3373.00,0.0070
3370.00,0.0072
3367.00,0.0072
3364.00,0.0073
3361.00,0.0074
3358.00,0.0075
3355.00,0.0076
3352.00,0.0077
3349.00,0.0078
3346.00,0.0079
3343.00,0.0081
3340.00,0.0082
3337.00,0.0083
3334.00,0.0085
3331.00,0.0086
3328.00,0.0088
3325.00,0.0090
3322.00,0.0092
3319.00,0.0094
3316.00,0.0096
3313.00,0.0098
3310.00,0.0100
3307.00,0.0103
3304.00,0.0105
3301.00,0.0107
3298.00,0.0110
3295.00,0.0112
3292.00,0.0115
3289.00,0.0117
3286.00,0.0119
3283.00,0.0121
3280.00,0.0122
3277.00,0.0123
3274.00,0.0124
3271.00,0.0124
3268.00,0.0123
3265.00,0.0121
3262.00,0.0120
3259.00,0.0118
3256.00,0.0116
3253.00,0.0113
3250.00,0.0111
3247.00,0.0109
3244.00,0.0107
3241.00,0.0105
3238.00,0.0103
3235.00,0.0101
3232.00,0.0100
3229.00,0.0098
3226.00,0.0096
3223.00,0.0095
3220.00,0.0093
3217.00,0.0092
3214.00,0.0091
3211.00,0.0090
3208.00,0.0089
3205.00,0.0087
3202.00,0.0086
3199.00,0.0085
3196.00,0.0084
3193.00,0.0082
3190.00,0.0081
3187.00,0.0080
3184.00,0.0079
3181.00,0.0078
3178.00,0.0076
3175.00,0.0075
3172.00,0.0074
3169.00,0.0072
3166.00,0.0071
3163.00,0.0070
3160.00,0.0069
3157.00,0.0068
3154.00,0.0067
3151.00,0.0066
3148.00,0.0065
3145.00,0.0064
3142.00,0.0063
3139.00,0.0063
3136.00,0.0062
3133.00,0.0061
3130.00,0.0060
3127.00,0.0060
3124.00,0.0060
3121.00,0.0059
3118.00,0.0059
3115.00,0.0059
3112.00,0.0059
3109.00,0.0059
3106.00,0.0059
3103.00,0.0059
3100.00,0.0059
3097.00,0.0060
3094.00,0.0060
3091.00,0.0060
3088.00,0.0060
3085.00,0.0060
3082.00,0.0061
3079.00,0.0061
3076.00,0.0060
3073.00,0.0060
3070.00,0.0060
3067.00,0.0059
3064.00,0.0059
3061.00,0.0058
3058.00,0.0057
3055.00,0.0056
3052.00,0.0055
3049.00,0.0054
3046.00,0.0053
3043.00,0.0052
3040.00,0.0051
3037.00,0.0050
3034.00,0.0049
3031.00,0.0048
3028.00,0.0047
3025.00,0.0046
3022.00,0.0045
3019.00,0.0044
3016.00,0.0043
3013.00,0.0043
3010.00,0.0042
3007.00,0.0042
3004.00,0.0042
3001.00,0.0042
2998.00,0.0042
2995.00,0.0043
2992.00,0.0044
2989.00,0.0045
2986.00,0.0046
2983.00,0.0048
2980.00,0.0050
2977.00,0.0052
2974.00,0.0054
2971.00,0.0055
2968.00,0.0057
2965.00,0.0058
2962.00,0.0058
2959.00,0.0058
2956.00,0.0057
2953.00,0.0056
2950.00,0.0054
2947.00,0.0054
2944.00,0.0055
2941.00,0.0056
2938.00,0.0057
2935.00,0.0058
2932.00,0.0059
2929.00,0.0059
2926.00,0.0058
2923.00,0.0058
2920.00,0.0057
2917.00,0.0055
2914.00,0.0052
2911.00,0.0050
2908.00,0.0048
2905.00,0.0047
2902.00,0.0045
2899.00,0.0044
2896.00,0.0043
2893.00,0.0042
2890.00,0.0042
2887.00,0.0042
2884.00,0.0042
2881.00,0.0043
2878.00,0.0044
2875.00,0.0044
2872.00,0.0043
2869.00,0.0042
2866.00,0.0040
2863.00,0.0039
2860.00,0.0038
2857.00,0.0038
2854.00,0.0037
2851.00,0.0037
2848.00,0.0035
2845.00,0.0033
2842.00,0.0031
2839.00,0.0030
2836.00,0.0029
2833.00,0.0029
2830.00,0.0028
2827.00,0.0028
2824.00,0.0027
2821.00,0.0027
2818.00,0.0027
2815.00,0.0026
2812.00,0.0026
2809.00,0.0026
2806.00,0.0026
2803.00,0.0026
2800.00,0.0025
2797.00,0.0025
2794.00,0.0024
2791.00,0.0024
2788.00,0.0024
2785.00,0.0023
2782.00,0.0023
2779.00,0.0022
2776.00,0.0022
2773.00,0.0021
2770.00,0.0021
2767.00,0.0020
2764.00,0.0020
2761.00,0.0019
2758.00,0.0019
2755.00,0.0019
2752.00,0.0018
2749.00,0.0018
2746.00,0.0018
2743.00,0.0017
2740.00,0.0017
2737.00,0.0017
2734.00,0.0016
2731.00,0.0016
2728.00,0.0016
2725.00,0.0016
2722.00,0.0015
2719.00,0.0015
2716.00,0.0015
2713.00,0.0014
2710.00,0.0014
2707.00,0.0014
2704.00,0.0014
2701.00,0.0014
2698.00,0.0013
2695.00,0.0013
2692.00,0.0013
2689.00,0.0013
2686.00,0.0013
2683.00,0.0012
2680.00,0.0012
2677.00,0.0012
2674.00,0.0012
2671.00,0.0011
2668.00,0.0011
2665.00,0.0011
2662.00,0.0010
2659.00,0.0010
2656.00,0.0010
2653.00,0.0010
2650.00,0.0009
2647.00,0.0009
2644.00,0.0009
2641.00,0.0009
2638.00,0.0009
2635.00,0.0009
2632.00,0.0009
2629.00,0.0009
2626.00,0.0009
2623.00,0.0009
2620.00,0.0008
2617.00,0.0008
2614.00,0.0008
2611.00,0.0008
2608.00,0.0008
2605.00,0.0008
2602.00,0.0008
2599.00,0.0008
2596.00,0.0008
2593.00,0.0007
2590.00,0.0007
2587.00,0.0007
2584.00,0.0007
2581.00,0.0007
2578.00,0.0007
2575.00,0.0007
2572.00,0.0007
2569.00,0.0007
2566.00,0.0006
2563.00,0.0006
2560.00,0.0006
2557.00,0.0006
2554.00,0.0006
2551.00,0.0006
2548.00,0.0006
2545.00,0.0005
2542.00,0.0005
2539.00,0.0005
2536.00,0.0005
2533.00,0.0005
2530.00,0.0005
2527.00,0.0005
2524.00,0.0005
2521.00,0.0005
2518.00,0.0005
2515.00,0.0005
2512.00,0.0004
2509.00,0.0004
2506.00,0.0004
2503.00,0.0004
2500.00,0.0004
2497.00,0.0004
2494.00,0.0004
2491.00,0.0003
2488.00,0.0003
2485.00,0.0003
2482.00,0.0003
2479.00,0.0003
2476.00,0.0003
2473.00,0.0003
2470.00,0.0003
2467.00,0.0002
2464.00,0.0003
2461.00,0.0002
2458.00,0.0002
2455.00,0.0002
2452.00,0.0002
2449.00,0.0002
2446.00,0.0002
2443.00,0.0002
2440.00,0.0002
2437.00,0.0002
2434.00,0.0002
2431.00,0.0002
2428.00,0.0001
2425.00,0.0001
2422.00,0.0001
2419.00,0.0001
2416.00,0.0001
2413.00,0.0001
2410.00,0.0001
2407.00,0.0001
2404.00,0.0001
2401.00,0.0001
2398.00,0.0001
2395.00,0.0001
2392.00,0.0000
2389.00,0.0000
2386.00,0.0001
2383.00,0.0000
2380.00,0.0001
2377.00,0.0000
2374.00,-0.0000
2371.00,0.0000
2368.00,0.0000
2365.00,0.0000
2362.00,-0.0000
2359.00,-0.0000
2356.00,-0.0001
2353.00,-0.0001
2350.00,-0.0001
2347.00,-0.0000
2344.00,0.0000
2341.00,-0.0001
2338.00,-0.0001
2335.00,-0.0001
2332.00,-0.0001
2329.00,-0.0001
2326.00,-0.0002
2323.00,-0.0002
2320.00,-0.0002
2317.00,-0.0001
2314.00,-0.0001
2311.00,-0.0001
2308.00,-0.0002
2305.00,-0.0002
2302.00,-0.0001
2299.00,-0.0001
2296.00,-0.0001
2293.00,-0.0001
2290.00,-0.0002
2287.00,-0.0001
2284.00,-0.0001
2281.00,-0.0001
2278.00,-0.0001
2275.00,-0.0001
2272.00,-0.0001
2269.00,-0.0001
2266.00,-0.0001
2263.00,-0.0000
2260.00,-0.0000
2257.00,-0.0000
2254.00,-0.0001
2251.00,-0.0001
2248.00,-0.0002
2245.00,-0.0002
2242.00,-0.0001
2239.00,-0.0000
2236.00,0.0000
2233.00,0.0000
2230.00,-0.0000
2227.00,0.0000
2224.00,0.0000
2221.00,-0.0000
2218.00,0.0000
2215.00,0.0000
2212.00,-0.0001
2209.00,-0.0001
2206.00,-0.0000
2203.00,-0.0001
2200.00,-0.0001
2197.00,-0.0001
2194.00,-0.0000
2191.00,-0.0000
2188.00,0.0000
2185.00,0.0002
2182.00,0.0001
2179.00,0.0000
2176.00,0.0000
2173.00,-0.0001
2170.00,-0.0001
2167.00,0.0000
2164.00,0.0001
2161.00,0.0000
2158.00,0.0002
2155.00,0.0003
2152.00,0.0002
2149.00,0.0001
2146.00,0.0001
2143.00,0.0000
2140.00,-0.0000
2137.00,-0.0000
2134.00,0.0001
2131.00,0.0001
2128.00,-0.0000
2125.00,0.0001
2122.00,0.0000
2119.00,0.0000
2116.00,-0.0000
2113.00,-0.0001
2110.00,-0.0001
2107.00,-0.0000
2104.00,-0.0000
2101.00,-0.0001
2098.00,-0.0001
2095.00,0.0001
2092.00,-0.0000
2089.00,-0.0000
2086.00,0.0000
2083.00,-0.0000
2080.00,-0.0001
2077.00,-0.0001
2074.00,-0.0001
2071.00,-0.0002
2068.00,-0.0001
2065.00,-0.0001
2062.00,-0.0000
2059.00,-0.0001
2056.00,-0.0001
2053.00,-0.0002
2050.00,-0.0003
2047.00,-0.0003
2044.00,-0.0003
2041.00,-0.0002
2038.00,0.0001
2035.00,-0.0001
2032.00,-0.0003
2029.00,-0.0001
2026.00,-0.0002
2023.00,-0.0001
2020.00,-0.0001
2017.00,-0.0002
2014.00,-0.0001
2011.00,-0.0002
2008.00,-0.0001
2005.00,-0.0001
2002.00,-0.0002
1999.00,-0.0001
1996.00,-0.0003
1993.00,-0.0003
1990.00,-0.0002
1987.00,-0.0001
1984.00,-0.0004
1981.00,-0.0003
1978.00,-0.0001
1975.00,0.0000
1972.00,-0.0001
1969.00,-0.0003
1966.00,-0.0003
1963.00,-0.0002
1960.00,-0.0001
1957.00,-0.0002
1954.00,-0.0001
1951.00,-0.0002
1948.00,-0.0002
1945.00,-0.0003
1942.00,-0.0002
1939.00,-0.0002
1936.00,-0.0002
1933.00,-0.0003
1930.00,-0.0003
1927.00,-0.0003
1924.00,-0.0003
1921.00,-0.0003
1918.00,-0.0003
1915.00,-0.0003
1912.00,-0.0003
1909.00,-0.0002
1906.00,-0.0002
1903.00,-0.0002
1900.00,-0.0002
1897.00,-0.0003
1894.00,-0.0003
1891.00,-0.0003
1888.00,-0.0003
1885.00,-0.0003
1882.00,-0.0002
1879.00,-0.0003
1876.00,-0.0003
1873.00,-0.0003
1870.00,-0.0003
1867.00,-0.0003
1864.00,-0.0003
1861.00,-0.0003
1858.00,-0.0003
1855.00,-0.0003
1852.00,-0.0003
1849.00,-0.0003
1846.00,-0.0004
1843.00,-0.0003
1840.00,-0.0004
1837.00,-0.0003
1834.00,-0.0003
1831.00,-0.0003
1828.00,-0.0002
1825.00,-0.0004
1822.00,-0.0004
1819.00,-0.0003
1816.00,-0.0003
1813.00,-0.0003
1810.00,-0.0002
1807.00,-0.0003
1804.00,-0.0003
1801.00,-0.0003
1798.00,-0.0002
1795.00,-0.0002
1792.00,-0.0002
1789.00,-0.0003
1786.00,-0.0002
1783.00,-0.0002
1780.00,-0.0001
1777.00,-0.0001
1774.00,-0.0000
1771.00,0.0002
1768.00,-0.0001
1765.00,-0.0001
1762.00,0.0000
1759.00,0.0000
1756.00,0.0001
1753.00,0.0002
1750.00,0.0004
1747.00,0.0005
1744.00,0.0006
1741.00,0.0007
1738.00,0.0010
1735.00,0.0010
1732.00,0.0012
1729.00,0.0010
1726.00,0.0012
1723.00,0.0014
1720.00,0.0015
1717.00,0.0019
1714.00,0.0020
1711.00,0.0022
1708.00,0.0028
1705.00,0.0037
1702.00,0.0046
1699.00,0.0066
1696.00,0.0076
1693.00,0.0084
1690.00,0.0087
1687.00,0.0095
1684.00,0.0104
1681.00,0.0108
1678.00,0.0116
1675.00,0.0124
1672.00,0.0133
1669.00,0.0141
1666.00,0.0149
1663.00,0.0158
1660.00,0.0167
1657.00,0.0177
1654.00,0.0186
1651.00,0.0193
1648.00,0.0195
1645.00,0.0196
1642.00,0.0199
1639.00,0.0205
1636.00,0.0208
1633.00,0.0212
1630.00,0.0219
1627.00,0.0230
1624.00,0.0240
1621.00,0.0249
1618.00,0.0258
1615.00,0.0253
1612.00,0.0245
1609.00,0.0229
1606.00,0.0212
1603.00,0.0194
1600.00,0.0179
1597.00,0.0168
1594.00,0.0159
1591.00,0.0152
1588.00,0.0146
1585.00,0.0143
1582.00,0.0141
1579.00,0.0143
1576.00,0.0145
1573.00,0.0147
1570.00,0.0150
1567.00,0.0155
1564.00,0.0162
1561.00,0.0173
1558.00,0.0177
1555.00,0.0182
1552.00,0.0190
1549.00,0.0196
1546.00,0.0204
1543.00,0.0212
1540.00,0.0216
1537.00,0.0221
1534.00,0.0223
1531.00,0.0226
1528.00,0.0230
1525.00,0.0232
1522.00,0.0233
1519.00,0.0232
1516.00,0.0229
1513.00,0.0226
1510.00,0.0220
1507.00,0.0205
1504.00,0.0192
1501.00,0.0183
1498.00,0.0171
1495.00,0.0157
1492.00,0.0146
1489.00,0.0131
1486.00,0.0122
1483.00,0.0115
1480.00,0.0111
1477.00,0.0109
1474.00,0.0110
1471.00,0.0114
1468.00,0.0117
1465.00,0.0118
1462.00,0.0120
1459.00,0.0123
1456.00,0.0126
1453.00,0.0127
1450.00,0.0128
1447.00,0.0126
1444.00,0.0124
1441.00,0.0122
1438.00,0.0120
1435.00,0.0112
1432.00,0.0109
1429.00,0.0106
1426.00,0.0105
1423.00,0.0106
1420.00,0.0109
1417.00,0.0111
1414.00,0.0116
1411.00,0.0120
1408.00,0.0124
1405.00,0.0126
1402.00,0.0128
1399.00,0.0130
1396.00,0.0130
1393.00,0.0130
1390.00,0.0132
1387.00,0.0130
1384.00,0.0128
1381.00,0.0125
1378.00,0.0121
1375.00,0.0118
1372.00,0.0115
1369.00,0.0112
1366.00,0.0108
1363.00,0.0102
1360.00,0.0099
1357.00,0.0100
1354.00,0.0102
1351.00,0.0105
1348.00,0.0106
1345.00,0.0106
1342.00,0.0104
1339.00,0.0101
1336.00,0.0099
1333.00,0.0098
1330.00,0.0097
1327.00,0.0096
1324.00,0.0096
1321.00,0.0096
1318.00,0.0095
1315.00,0.0095
1312.00,0.0094
1309.00,0.0094
1306.00,0.0093
1303.00,0.0092
1300.00,0.0091
1297.00,0.0091
1294.00,0.0092
1291.00,0.0092
1288.00,0.0093
1285.00,0.0094
1282.00,0.0094
1279.00,0.0094
1276.00,0.0094
1273.00,0.0095
1270.00,0.0095
1267.00,0.0097
1264.00,0.0100
1261.00,0.0103
1258.00,0.0106
1255.00,0.0110
1252.00,0.0113
1249.00,0.0117
1246.00,0.0119
1243.00,0.0121
1240.00,0.0123
1237.00,0.0124
1234.00,0.0125
1231.00,0.0124
1228.00,0.0122
1225.00,0.0120
1222.00,0.0117
1219.00,0.0113
1216.00,0.0109
1213.00,0.0104
1210.00,0.0098
1207.00,0.0093
1204.00,0.0088
1201.00,0.0084
1198.00,0.0081
1195.00,0.0079
1192.00,0.0077
1189.00,0.0076
1186.00,0.0075
1183.00,0.0074
1180.00,0.0074
1177.00,0.0077
1174.00,0.0080
1171.00,0.0082
1168.00,0.0084
1165.00,0.0084
1162.00,0.0085
1159.00,0.0085
1156.00,0.0085
1153.00,0.0084
1150.00,0.0083
1147.00,0.0082
1144.00,0.0080
1141.00,0.0079
1138.00,0.0079
1135.00,0.0080
1132.00,0.0081
1129.00,0.0084
1126.00,0.0086
1123.00,0.0087
1120.00,0.0089
1117.00,0.0090
1114.00,0.0092
1111.00,0.0093
1108.00,0.0094
1105.00,0.0096
1102.00,0.0097
1099.00,0.0098
1096.00,0.0100
1093.00,0.0104
1090.00,0.0108
1087.00,0.0113
1084.00,0.0118
1081.00,0.0122
1078.00,0.0126
1075.00,0.0128
1072.00,0.0129
1069.00,0.0129
1066.00,0.0129
1063.00,0.0128
1060.00,0.0126
1057.00,0.0124
1054.00,0.0122
1051.00,0.0119
1048.00,0.0117
1045.00,0.0114
1042.00,0.0110
1039.00,0.0106
1036.00,0.0103
1033.00,0.0101
1030.00,0.0098
1027.00,0.0095
1024.00,0.0091
1021.00,0.0087
1018.00,0.0082
1015.00,0.0077
1012.00,0.0073
1009.00,0.0069
1006.00,0.0065
1003.00,0.0061
1000.00,0.0059
997.00,0.0058
994.00,0.0056
991.00,0.0054
988.00,0.0054
985.00,0.0055
982.00,0.0055
979.00,0.0057
976.00,0.0059
973.00,0.0060
970.00,0.0060
967.00,0.0058
964.00,0.0057
961.00,0.0056
958.00,0.0054
955.00,0.0053
952.00,0.0053
949.00,0.0053
946.00,0.0053
943.00,0.0053
940.00,0.0053
937.00,0.0054
934.00,0.0053
931.00,0.0053
928.00,0.0052
925.00,0.0050
922.00,0.0048
919.00,0.0047
916.00,0.0045
913.00,0.0045
910.00,0.0044
907.00,0.0044
904.00,0.0044
901.00,0.0045
898.00,0.0045
895.00,0.0044
892.00,0.0044
889.00,0.0045
886.00,0.0045
883.00,0.0045
880.00,0.0045
877.00,0.0045
874.00,0.0045
871.00,0.0044
868.00,0.0044
865.00,0.0045
862.00,0.0045
859.00,0.0046
856.00,0.0049
853.00,0.0051
850.00,0.0052
847.00,0.0052
844.00,0.0053
841.00,0.0056
838.00,0.0058
835.00,0.0060
832.00,0.0063
829.00,0.0066
826.00,0.0067
823.00,0.0067
820.00,0.0069
817.00,0.0070
814.00,0.0071
811.00,0.0072
808.00,0.0074
805.00,0.0077
802.00,0.0078
799.00,0.0079
796.00,0.0082
793.00,0.0085
790.00,0.0089
787.00,0.0091
784.00,0.0095
781.00,0.0098
778.00,0.0101
775.00,0.0102
772.00,0.0105
769.00,0.0107
766.00,0.0108
763.00,0.0110
760.00,0.0111
757.00,0.0113
754.00,0.0115
751.00,0.0116
748.00,0.0119
745.00,0.0120
742.00,0.0122
739.00,0.0123
736.00,0.0125
733.00,0.0128
730.00,0.0132
727.00,0.0136
724.00,0.0142
721.00,0.0149
718.00,0.0154
715.00,0.0158
712.00,0.0162
709.00,0.0167
706.00,0.0173
703.00,0.0178
700.00,0.0182
697.00,0.0185
694.00,0.0186
691.00,0.0185
688.00,0.0185
685.00,0.0188
682.00,0.0188
679.00,0.0188
676.00,0.0190
673.00,0.0192
670.00,0.0193
667.00,0.0191
664.00,0.0194
661.00,0.0195
658.00,0.0197
655.00,0.0198
652.00,0.0200
649.00,0.0202
646.00,0.0203
643.00,0.0204
640.00,0.0205
637.00,0.0207
634.00,0.0208
631.00,0.0209
628.00,0.0211
625.00,0.0214
622.00,0.0216
619.00,0.0217
616.00,0.0216
613.00,0.0218
610.00,0.0218
607.00,0.0217
604.00,0.0218
601.00,0.0220
598.00,0.0220
595.00,0.0220
592.00,0.0221
589.00,0.0223
586.00,0.0224
583.00,0.0223
580.00,0.0225
577.00,0.0228
574.00,0.0229
571.00,0.0231
568.00,0.0234
565.00,0.0236
562.00,0.0236
559.00,0.0238
556.00,0.0240
553.00,0.0245
550.00,0.0246
547.00,0.0246
544.00,0.0250
541.00,0.0253
538.00,0.0255
535.00,0.0255
532.00,0.0257
529.00,0.0262
526.00,0.0263
523.00,0.0264
520.00,0.0265
517.00,0.0267
514.00,0.0270
511.00,0.0269
508.00,0.0270
505.00,0.0274
502.00,0.0273
499.00,0.0274
496.00,0.0278
493.00,0.0284
490.00,0.0281
487.00,0.0281
484.00,0.0285
481.00,0.0289
478.00,0.0288
475.00,0.0287
472.00,0.0286
469.00,0.0290
466.00,0.0289
463.00,0.0288
460.00,0.0293
457.00,0.0296
454.00,0.0293
451.00,0.0287
448.00,0.0287
445.00,0.0287
442.00,0.0283
439.00,0.0273
436.00,0.0270
433.00,0.0270
430.00,0.0271
427.00,0.0260
424.00,0.0259
421.00,0.0267
418.00,0.0263
415.00,0.0258
412.00,0.0272
409.00,0.0281
406.00,0.0269
403.00,0.0257
400.00,0.0261