File: FTIR/Mary/2024_11_01_THCa_powder_Scan2.csv
Created as New Dataset,Sample 025 By YargerLab Date Friday, November 01 2024
cm-1,A
4000.00,0.0064
3997.00,0.0064
3994.00,0.0064
3991.00,0.0064
3988.00,0.0064
3985.00,0.0064
3982.00,0.0064
3979.00,0.0064
3976.00,0.0064
3973.00,0.0064
3970.00,0.0064
3967.00,0.0064
3964.00,0.0064
3961.00,0.0064
3958.00,0.0064
3955.00,0.0064
3952.00,0.0064
3949.00,0.0064
3946.00,0.0064
3943.00,0.0064
3940.00,0.0064
3937.00,0.0063
3934.00,0.0064
3931.00,0.0064
3928.00,0.0064
3925.00,0.0063
3922.00,0.0063
3919.00,0.0064
3916.00,0.0064
3913.00,0.0063
3910.00,0.0063
3907.00,0.0064
3904.00,0.0064
3901.00,0.0064
3898.00,0.0064
3895.00,0.0063
3892.00,0.0063
3889.00,0.0063
3886.00,0.0063
3883.00,0.0063
3880.00,0.0063
3877.00,0.0063
3874.00,0.0063
3871.00,0.0063
3868.00,0.0063
3865.00,0.0063
3862.00,0.0063
3859.00,0.0063
3856.00,0.0063
3853.00,0.0064
3850.00,0.0064
3847.00,0.0062
3844.00,0.0062
3841.00,0.0063
3838.00,0.0063
3835.00,0.0062
3832.00,0.0062
3829.00,0.0062
3826.00,0.0061
3823.00,0.0062
3820.00,0.0061
3817.00,0.0062
3814.00,0.0062
3811.00,0.0061
3808.00,0.0061
3805.00,0.0061
3802.00,0.0061
3799.00,0.0061
3796.00,0.0061
3793.00,0.0061
3790.00,0.0060
3787.00,0.0061
3784.00,0.0060
3781.00,0.0060
3778.00,0.0060
3775.00,0.0060
3772.00,0.0060
3769.00,0.0060
3766.00,0.0060
3763.00,0.0060
3760.00,0.0060
3757.00,0.0060
3754.00,0.0061
3751.00,0.0061
3748.00,0.0062
3745.00,0.0061
3742.00,0.0060
3739.00,0.0060
3736.00,0.0060
3733.00,0.0060
3730.00,0.0060
3727.00,0.0060
3724.00,0.0060
3721.00,0.0060
3718.00,0.0060
3715.00,0.0059
3712.00,0.0059
3709.00,0.0059
3706.00,0.0058
3703.00,0.0059
3700.00,0.0059
3697.00,0.0058
3694.00,0.0058
3691.00,0.0058
3688.00,0.0058
3685.00,0.0058
3682.00,0.0057
3679.00,0.0056
3676.00,0.0056
3673.00,0.0056
3670.00,0.0055
3667.00,0.0054
3664.00,0.0053
3661.00,0.0053
3658.00,0.0053
3655.00,0.0053
3652.00,0.0054
3649.00,0.0054
3646.00,0.0055
3643.00,0.0054
3640.00,0.0054
3637.00,0.0054
3634.00,0.0056
3631.00,0.0057
3628.00,0.0058
3625.00,0.0058
3622.00,0.0058
3619.00,0.0058
3616.00,0.0058
3613.00,0.0058
3610.00,0.0059
3607.00,0.0058
3604.00,0.0058
3601.00,0.0058
3598.00,0.0058
3595.00,0.0058
3592.00,0.0058
3589.00,0.0058
3586.00,0.0058
3583.00,0.0058
3580.00,0.0058
3577.00,0.0058
3574.00,0.0058
3571.00,0.0058
3568.00,0.0058
3565.00,0.0059
3562.00,0.0058
3559.00,0.0058
3556.00,0.0058
3553.00,0.0058
3550.00,0.0058
3547.00,0.0058
3544.00,0.0059
3541.00,0.0059
3538.00,0.0059
3535.00,0.0059
3532.00,0.0059
3529.00,0.0059
3526.00,0.0059
3523.00,0.0058
3520.00,0.0055
3517.00,0.0051
3514.00,0.0050
3511.00,0.0050
3508.00,0.0051
3505.00,0.0052
3502.00,0.0054
3499.00,0.0056
3496.00,0.0057
3493.00,0.0058
3490.00,0.0058
3487.00,0.0059
3484.00,0.0059
3481.00,0.0059
3478.00,0.0060
3475.00,0.0060
3472.00,0.0060
3469.00,0.0060
3466.00,0.0060
3463.00,0.0060
3460.00,0.0060
3457.00,0.0061
3454.00,0.0060
3451.00,0.0060
3448.00,0.0061
3445.00,0.0061
3442.00,0.0061
3439.00,0.0061
3436.00,0.0060
3433.00,0.0060
3430.00,0.0060
3427.00,0.0060
3424.00,0.0060
3421.00,0.0060
3418.00,0.0060
3415.00,0.0060
3412.00,0.0060
3409.00,0.0059
3406.00,0.0059
3403.00,0.0058
3400.00,0.0057
3397.00,0.0058
3394.00,0.0059
3391.00,0.0061
3388.00,0.0063
3385.00,0.0066
3382.00,0.0069
3379.00,0.0071
3376.00,0.0073
3373.00,0.0074
3370.00,0.0076
3367.00,0.0077
3364.00,0.0079
3361.00,0.0080
3358.00,0.0082
3355.00,0.0083
3352.00,0.0084
3349.00,0.0085
3346.00,0.0087
3343.00,0.0088
3340.00,0.0089
3337.00,0.0091
3334.00,0.0093
3331.00,0.0094
3328.00,0.0095
3325.00,0.0097
3322.00,0.0099
3319.00,0.0100
3316.00,0.0102
3313.00,0.0103
3310.00,0.0104
3307.00,0.0105
3304.00,0.0107
3301.00,0.0109
3298.00,0.0111
3295.00,0.0112
3292.00,0.0114
3289.00,0.0117
3286.00,0.0119
3283.00,0.0121
3280.00,0.0123
3277.00,0.0125
3274.00,0.0127
3271.00,0.0129
3268.00,0.0133
3265.00,0.0137
3262.00,0.0140
3259.00,0.0143
3256.00,0.0145
3253.00,0.0149
3250.00,0.0152
3247.00,0.0154
3244.00,0.0160
3241.00,0.0164
3238.00,0.0167
3235.00,0.0167
3232.00,0.0173
3229.00,0.0180
3226.00,0.0185
3223.00,0.0188
3220.00,0.0191
3217.00,0.0194
3214.00,0.0197
3211.00,0.0200
3208.00,0.0201
3205.00,0.0202
3202.00,0.0204
3199.00,0.0206
3196.00,0.0207
3193.00,0.0208
3190.00,0.0210
3187.00,0.0212
3184.00,0.0214
3181.00,0.0216
3178.00,0.0218
3175.00,0.0219
3172.00,0.0221
3169.00,0.0223
3166.00,0.0226
3163.00,0.0228
3160.00,0.0232
3157.00,0.0234
3154.00,0.0236
3151.00,0.0240
3148.00,0.0246
3145.00,0.0250
3142.00,0.0253
3139.00,0.0256
3136.00,0.0263
3133.00,0.0267
3130.00,0.0271
3127.00,0.0275
3124.00,0.0277
3121.00,0.0277
3118.00,0.0279
3115.00,0.0284
3112.00,0.0289
3109.00,0.0293
3106.00,0.0298
3103.00,0.0303
3100.00,0.0307
3097.00,0.0313
3094.00,0.0318
3091.00,0.0323
3088.00,0.0329
3085.00,0.0337
3082.00,0.0346
3079.00,0.0357
3076.00,0.0367
3073.00,0.0377
3070.00,0.0384
3067.00,0.0389
3064.00,0.0391
3061.00,0.0392
3058.00,0.0392
3055.00,0.0394
3052.00,0.0397
3049.00,0.0400
3046.00,0.0403
3043.00,0.0406
3040.00,0.0409
3037.00,0.0412
3034.00,0.0414
3031.00,0.0417
3028.00,0.0420
3025.00,0.0422
3022.00,0.0424
3019.00,0.0425
3016.00,0.0425
3013.00,0.0426
3010.00,0.0426
3007.00,0.0426
3004.00,0.0428
3001.00,0.0432
2998.00,0.0441
2995.00,0.0456
2992.00,0.0474
2989.00,0.0499
2986.00,0.0533
2983.00,0.0563
2980.00,0.0589
2977.00,0.0616
2974.00,0.0627
2971.00,0.0629
2968.00,0.0656
2965.00,0.0698
2962.00,0.0735
2959.00,0.0750
2956.00,0.0743
2953.00,0.0730
2950.00,0.0728
2947.00,0.0747
2944.00,0.0790
2941.00,0.0846
2938.00,0.0870
2935.00,0.0873
2932.00,0.0887
2929.00,0.0903
2926.00,0.0909
2923.00,0.0897
2920.00,0.0871
2917.00,0.0843
2914.00,0.0815
2911.00,0.0789
2908.00,0.0770
2905.00,0.0761
2902.00,0.0762
2899.00,0.0764
2896.00,0.0759
2893.00,0.0755
2890.00,0.0758
2887.00,0.0756
2884.00,0.0737
2881.00,0.0722
2878.00,0.0726
2875.00,0.0743
2872.00,0.0756
2869.00,0.0755
2866.00,0.0746
2863.00,0.0735
2860.00,0.0721
2857.00,0.0707
2854.00,0.0695
2851.00,0.0685
2848.00,0.0671
2845.00,0.0647
2842.00,0.0628
2839.00,0.0629
2836.00,0.0647
2833.00,0.0659
2830.00,0.0646
2827.00,0.0616
2824.00,0.0582
2821.00,0.0556
2818.00,0.0537
2815.00,0.0522
2812.00,0.0510
2809.00,0.0499
2806.00,0.0491
2803.00,0.0483
2800.00,0.0475
2797.00,0.0467
2794.00,0.0459
2791.00,0.0451
2788.00,0.0443
2785.00,0.0435
2782.00,0.0427
2779.00,0.0419
2776.00,0.0412
2773.00,0.0406
2770.00,0.0401
2767.00,0.0397
2764.00,0.0393
2761.00,0.0391
2758.00,0.0389
2755.00,0.0387
2752.00,0.0385
2749.00,0.0384
2746.00,0.0384
2743.00,0.0383
2740.00,0.0381
2737.00,0.0380
2734.00,0.0379
2731.00,0.0378
2728.00,0.0379
2725.00,0.0378
2722.00,0.0374
2719.00,0.0368
2716.00,0.0364
2713.00,0.0361
2710.00,0.0358
2707.00,0.0357
2704.00,0.0356
2701.00,0.0355
2698.00,0.0354
2695.00,0.0355
2692.00,0.0355
2689.00,0.0357
2686.00,0.0358
2683.00,0.0359
2680.00,0.0359
2677.00,0.0357
2674.00,0.0355
2671.00,0.0354
2668.00,0.0352
2665.00,0.0352
2662.00,0.0352
2659.00,0.0351
2656.00,0.0350
2653.00,0.0349
2650.00,0.0348
2647.00,0.0347
2644.00,0.0346
2641.00,0.0344
2638.00,0.0341
2635.00,0.0339
2632.00,0.0337
2629.00,0.0335
2626.00,0.0334
2623.00,0.0333
2620.00,0.0332
2617.00,0.0332
2614.00,0.0332
2611.00,0.0332
2608.00,0.0330
2605.00,0.0330
2602.00,0.0329
2599.00,0.0329
2596.00,0.0329
2593.00,0.0331
2590.00,0.0335
2587.00,0.0339
2584.00,0.0345
2581.00,0.0350
2578.00,0.0353
2575.00,0.0354
2572.00,0.0355
2569.00,0.0354
2566.00,0.0353
2563.00,0.0351
2560.00,0.0350
2557.00,0.0349
2554.00,0.0348
2551.00,0.0347
2548.00,0.0346
2545.00,0.0345
2542.00,0.0343
2539.00,0.0341
2536.00,0.0338
2533.00,0.0336
2530.00,0.0333
2527.00,0.0331
2524.00,0.0330
2521.00,0.0329
2518.00,0.0329
2515.00,0.0327
2512.00,0.0322
2509.00,0.0315
2506.00,0.0308
2503.00,0.0299
2500.00,0.0290
2497.00,0.0282
2494.00,0.0274
2491.00,0.0267
2488.00,0.0260
2485.00,0.0254
2482.00,0.0248
2479.00,0.0243
2476.00,0.0239
2473.00,0.0234
2470.00,0.0231
2467.00,0.0227
2464.00,0.0224
2461.00,0.0221
2458.00,0.0218
2455.00,0.0216
2452.00,0.0213
2449.00,0.0210
2446.00,0.0206
2443.00,0.0203
2440.00,0.0200
2437.00,0.0196
2434.00,0.0193
2431.00,0.0190
2428.00,0.0187
2425.00,0.0185
2422.00,0.0182
2419.00,0.0179
2416.00,0.0176
2413.00,0.0173
2410.00,0.0171
2407.00,0.0168
2404.00,0.0166
2401.00,0.0164
2398.00,0.0162
2395.00,0.0160
2392.00,0.0158
2389.00,0.0156
2386.00,0.0155
2383.00,0.0153
2380.00,0.0151
2377.00,0.0150
2374.00,0.0148
2371.00,0.0146
2368.00,0.0144
2365.00,0.0143
2362.00,0.0142
2359.00,0.0141
2356.00,0.0140
2353.00,0.0138
2350.00,0.0137
2347.00,0.0135
2344.00,0.0134
2341.00,0.0134
2338.00,0.0134
2335.00,0.0133
2332.00,0.0131
2329.00,0.0131
2326.00,0.0132
2323.00,0.0128
2320.00,0.0128
2317.00,0.0128
2314.00,0.0126
2311.00,0.0124
2308.00,0.0124
2305.00,0.0123
2302.00,0.0121
2299.00,0.0120
2296.00,0.0119
2293.00,0.0118
2290.00,0.0117
2287.00,0.0116
2284.00,0.0115
2281.00,0.0114
2278.00,0.0113
2275.00,0.0111
2272.00,0.0109
2269.00,0.0106
2266.00,0.0103
2263.00,0.0102
2260.00,0.0102
2257.00,0.0100
2254.00,0.0099
2251.00,0.0099
2248.00,0.0098
2245.00,0.0097
2242.00,0.0096
2239.00,0.0094
2236.00,0.0094
2233.00,0.0093
2230.00,0.0092
2227.00,0.0093
2224.00,0.0093
2221.00,0.0093
2218.00,0.0093
2215.00,0.0091
2212.00,0.0091
2209.00,0.0093
2206.00,0.0094
2203.00,0.0092
2200.00,0.0092
2197.00,0.0091
2194.00,0.0091
2191.00,0.0092
2188.00,0.0091
2185.00,0.0090
2182.00,0.0090
2179.00,0.0090
2176.00,0.0088
2173.00,0.0089
2170.00,0.0090
2167.00,0.0088
2164.00,0.0089
2161.00,0.0078
2158.00,0.0072
2155.00,0.0076
2152.00,0.0078
2149.00,0.0079
2146.00,0.0078
2143.00,0.0080
2140.00,0.0082
2137.00,0.0080
2134.00,0.0081
2131.00,0.0083
2128.00,0.0083
2125.00,0.0083
2122.00,0.0084
2119.00,0.0085
2116.00,0.0086
2113.00,0.0084
2110.00,0.0083
2107.00,0.0083
2104.00,0.0083
2101.00,0.0083
2098.00,0.0083
2095.00,0.0083
2092.00,0.0083
2089.00,0.0082
2086.00,0.0082
2083.00,0.0080
2080.00,0.0079
2077.00,0.0077
2074.00,0.0076
2071.00,0.0076
2068.00,0.0077
2065.00,0.0077
2062.00,0.0077
2059.00,0.0078
2056.00,0.0078
2053.00,0.0079
2050.00,0.0078
2047.00,0.0080
2044.00,0.0082
2041.00,0.0081
2038.00,0.0078
2035.00,0.0078
2032.00,0.0080
2029.00,0.0078
2026.00,0.0075
2023.00,0.0074
2020.00,0.0074
2017.00,0.0071
2014.00,0.0069
2011.00,0.0068
2008.00,0.0068
2005.00,0.0069
2002.00,0.0070
1999.00,0.0071
1996.00,0.0071
1993.00,0.0071
1990.00,0.0070
1987.00,0.0072
1984.00,0.0074
1981.00,0.0074
1978.00,0.0071
1975.00,0.0071
1972.00,0.0072
1969.00,0.0071
1966.00,0.0071
1963.00,0.0071
1960.00,0.0071
1957.00,0.0072
1954.00,0.0070
1951.00,0.0070
1948.00,0.0071
1945.00,0.0071
1942.00,0.0071
1939.00,0.0073
1936.00,0.0074
1933.00,0.0074
1930.00,0.0075
1927.00,0.0075
1924.00,0.0077
1921.00,0.0077
1918.00,0.0077
1915.00,0.0078
1912.00,0.0079
1909.00,0.0080
1906.00,0.0080
1903.00,0.0080
1900.00,0.0080
1897.00,0.0081
1894.00,0.0081
1891.00,0.0081
1888.00,0.0081
1885.00,0.0081
1882.00,0.0081
1879.00,0.0082
1876.00,0.0082
1873.00,0.0082
1870.00,0.0082
1867.00,0.0084
1864.00,0.0085
1861.00,0.0086
1858.00,0.0086
1855.00,0.0087
1852.00,0.0087
1849.00,0.0086
1846.00,0.0086
1843.00,0.0088
1840.00,0.0088
1837.00,0.0088
1834.00,0.0088
1831.00,0.0087
1828.00,0.0087
1825.00,0.0087
1822.00,0.0087
1819.00,0.0086
1816.00,0.0086
1813.00,0.0086
1810.00,0.0087
1807.00,0.0089
1804.00,0.0090
1801.00,0.0090
1798.00,0.0091
1795.00,0.0091
1792.00,0.0092
1789.00,0.0092
1786.00,0.0092
1783.00,0.0092
1780.00,0.0093
1777.00,0.0093
1774.00,0.0093
1771.00,0.0095
1768.00,0.0096
1765.00,0.0095
1762.00,0.0095
1759.00,0.0096
1756.00,0.0096
1753.00,0.0096
1750.00,0.0097
1747.00,0.0097
1744.00,0.0097
1741.00,0.0097
1738.00,0.0097
1735.00,0.0098
1732.00,0.0099
1729.00,0.0099
1726.00,0.0098
1723.00,0.0097
1720.00,0.0097
1717.00,0.0097
1714.00,0.0098
1711.00,0.0099
1708.00,0.0101
1705.00,0.0105
1702.00,0.0108
1699.00,0.0113
1696.00,0.0118
1693.00,0.0120
1690.00,0.0122
1687.00,0.0125
1684.00,0.0131
1681.00,0.0138
1678.00,0.0142
1675.00,0.0154
1672.00,0.0170
1669.00,0.0195
1666.00,0.0211
1663.00,0.0214
1660.00,0.0218
1657.00,0.0223
1654.00,0.0235
1651.00,0.0262
1648.00,0.0277
1645.00,0.0320
1642.00,0.0371
1639.00,0.0441
1636.00,0.0555
1633.00,0.0720
1630.00,0.0892
1627.00,0.1136
1624.00,0.1405
1621.00,0.1717
1618.00,0.1983
1615.00,0.2346
1612.00,0.2478
1609.00,0.2417
1606.00,0.2184
1603.00,0.1902
1600.00,0.1651
1597.00,0.1452
1594.00,0.1290
1591.00,0.1145
1588.00,0.1015
1585.00,0.0906
1582.00,0.0830
1579.00,0.0793
1576.00,0.0839
1573.00,0.0964
1570.00,0.1193
1567.00,0.1436
1564.00,0.1415
1561.00,0.1178
1558.00,0.0825
1555.00,0.0644
1552.00,0.0534
1549.00,0.0467
1546.00,0.0423
1543.00,0.0389
1540.00,0.0370
1537.00,0.0358
1534.00,0.0346
1531.00,0.0343
1528.00,0.0341
1525.00,0.0345
1522.00,0.0354
1519.00,0.0367
1516.00,0.0382
1513.00,0.0398
1510.00,0.0414
1507.00,0.0438
1504.00,0.0464
1501.00,0.0474
1498.00,0.0493
1495.00,0.0513
1492.00,0.0512
1489.00,0.0502
1486.00,0.0474
1483.00,0.0443
1480.00,0.0433
1477.00,0.0462
1474.00,0.0551
1471.00,0.0716
1468.00,0.0833
1465.00,0.0924
1462.00,0.0966
1459.00,0.0952
1456.00,0.0982
1453.00,0.1018
1450.00,0.1035
1447.00,0.1061
1444.00,0.1066
1441.00,0.1032
1438.00,0.0958
1435.00,0.0879
1432.00,0.0825
1429.00,0.0769
1426.00,0.0729
1423.00,0.0705
1420.00,0.0596
1417.00,0.0508
1414.00,0.0496
1411.00,0.0539
1408.00,0.0641
1405.00,0.0806
1402.00,0.0943
1399.00,0.0936
1396.00,0.0819
1393.00,0.0707
1390.00,0.0699
1387.00,0.0828
1384.00,0.0889
1381.00,0.0939
1378.00,0.1075
1375.00,0.1239
1372.00,0.1333
1369.00,0.1378
1366.00,0.1457
1363.00,0.1317
1360.00,0.1115
1357.00,0.1104
1354.00,0.1062
1351.00,0.0879
1348.00,0.0716
1345.00,0.0637
1342.00,0.0569
1339.00,0.0499
1336.00,0.0450
1333.00,0.0434
1330.00,0.0448
1327.00,0.0478
1324.00,0.0505
1321.00,0.0514
1318.00,0.0497
1315.00,0.0480
1312.00,0.0481
1309.00,0.0489
1306.00,0.0506
1303.00,0.0515
1300.00,0.0518
1297.00,0.0564
1294.00,0.0651
1291.00,0.0764
1288.00,0.0880
1285.00,0.0930
1282.00,0.0925
1279.00,0.0973
1276.00,0.1155
1273.00,0.1430
1270.00,0.1622
1267.00,0.1737
1264.00,0.1874
1261.00,0.2086
1258.00,0.2371
1255.00,0.2615
1252.00,0.2720
1249.00,0.2723
1246.00,0.2523
1243.00,0.2166
1240.00,0.1951
1237.00,0.1867
1234.00,0.1768
1231.00,0.1545
1228.00,0.1285
1225.00,0.1105
1222.00,0.0982
1219.00,0.0853
1216.00,0.0742
1213.00,0.0668
1210.00,0.0625
1207.00,0.0624
1204.00,0.0704
1201.00,0.0949
1198.00,0.1394
1195.00,0.1764
1192.00,0.1778
1189.00,0.1725
1186.00,0.1752
1183.00,0.1650
1180.00,0.1365
1177.00,0.1117
1174.00,0.1045
1171.00,0.1011
1168.00,0.0830
1165.00,0.0656
1162.00,0.0557
1159.00,0.0498
1156.00,0.0468
1153.00,0.0495
1150.00,0.0655
1147.00,0.0871
1144.00,0.0791
1141.00,0.0640
1138.00,0.0706
1135.00,0.1038
1132.00,0.1556
1129.00,0.1644
1126.00,0.1415
1123.00,0.1573
1120.00,0.1905
1117.00,0.1842
1114.00,0.1506
1111.00,0.1256
1108.00,0.1082
1105.00,0.0907
1102.00,0.0748
1099.00,0.0637
1096.00,0.0550
1093.00,0.0484
1090.00,0.0444
1087.00,0.0435
1084.00,0.0487
1081.00,0.0650
1078.00,0.0864
1075.00,0.0867
1072.00,0.0696
1069.00,0.0572
1066.00,0.0507
1063.00,0.0483
1060.00,0.0513
1057.00,0.0653
1054.00,0.0772
1051.00,0.0694
1048.00,0.0572
1045.00,0.0568
1042.00,0.0679
1039.00,0.0758
1036.00,0.0689
1033.00,0.0597
1030.00,0.0505
1027.00,0.0421
1024.00,0.0382
1021.00,0.0374
1018.00,0.0390
1015.00,0.0418
1012.00,0.0436
1009.00,0.0456
1006.00,0.0439
1003.00,0.0419
1000.00,0.0396
997.00,0.0375
994.00,0.0362
991.00,0.0335
988.00,0.0311
985.00,0.0309
982.00,0.0322
979.00,0.0339
976.00,0.0367
973.00,0.0391
970.00,0.0375
967.00,0.0340
964.00,0.0324
961.00,0.0317
958.00,0.0318
955.00,0.0333
952.00,0.0360
949.00,0.0426
946.00,0.0511
943.00,0.0541
940.00,0.0516
937.00,0.0498
934.00,0.0505
931.00,0.0523
928.00,0.0562
925.00,0.0610
922.00,0.0649
919.00,0.0682
916.00,0.0741
913.00,0.0865
910.00,0.1000
907.00,0.1076
904.00,0.0992
901.00,0.0862
898.00,0.0850
895.00,0.0928
892.00,0.0972
889.00,0.0892
886.00,0.0745
883.00,0.0650
880.00,0.0594
877.00,0.0560
874.00,0.0540
871.00,0.0540
868.00,0.0574
865.00,0.0657
862.00,0.0835
859.00,0.1070
856.00,0.1119
853.00,0.1021
850.00,0.0952
847.00,0.0888
844.00,0.0846
841.00,0.0847
838.00,0.0869
835.00,0.0912
832.00,0.0889
829.00,0.0775
826.00,0.0676
823.00,0.0599
820.00,0.0552
817.00,0.0553
814.00,0.0616
811.00,0.0739
808.00,0.0820
805.00,0.0685
802.00,0.0467
799.00,0.0391
796.00,0.0402
793.00,0.0486
790.00,0.0630
787.00,0.0667
784.00,0.0600
781.00,0.0596
778.00,0.0678
775.00,0.0817
772.00,0.0889
769.00,0.0776
766.00,0.0681
763.00,0.0695
760.00,0.0712
757.00,0.0697
754.00,0.0665
751.00,0.0635
748.00,0.0618
745.00,0.0622
742.00,0.0648
739.00,0.0692
736.00,0.0731
733.00,0.0715
730.00,0.0711
727.00,0.0771
724.00,0.0886
721.00,0.1015
718.00,0.1162
715.00,0.1341
712.00,0.1357
709.00,0.1203
706.00,0.0988
703.00,0.0806
700.00,0.0686
697.00,0.0609
694.00,0.0560
691.00,0.0526
688.00,0.0489
685.00,0.0453
682.00,0.0422
679.00,0.0395
676.00,0.0376
673.00,0.0369
670.00,0.0375
667.00,0.0406
664.00,0.0428
661.00,0.0476
658.00,0.0488
655.00,0.0486
652.00,0.0474
649.00,0.0472
646.00,0.0549
643.00,0.0557
640.00,0.0595
637.00,0.0592
634.00,0.0498
631.00,0.0416
628.00,0.0391
625.00,0.0436
622.00,0.0481
619.00,0.0493
616.00,0.0451
613.00,0.0392
610.00,0.0394
607.00,0.0404
604.00,0.0389
601.00,0.0426
598.00,0.0563
595.00,0.0723
592.00,0.0758
589.00,0.0630
586.00,0.0473
583.00,0.0374
580.00,0.0318
577.00,0.0289
574.00,0.0290
571.00,0.0340
568.00,0.0401
565.00,0.0387
562.00,0.0337
559.00,0.0325
556.00,0.0328
553.00,0.0334
550.00,0.0379
547.00,0.0426
544.00,0.0378
541.00,0.0301
538.00,0.0261
535.00,0.0252
532.00,0.0271
529.00,0.0331
526.00,0.0433
523.00,0.0429
520.00,0.0329
517.00,0.0295
514.00,0.0315
511.00,0.0389
508.00,0.0544
505.00,0.0723
502.00,0.0737
499.00,0.0663
496.00,0.0767
493.00,0.0819
490.00,0.0600
487.00,0.0409
484.00,0.0335
481.00,0.0346
478.00,0.0389
475.00,0.0399
472.00,0.0409
469.00,0.0415
466.00,0.0379
463.00,0.0332
460.00,0.0300
457.00,0.0290
454.00,0.0299
451.00,0.0311
448.00,0.0328
445.00,0.0360
442.00,0.0428
439.00,0.0529
436.00,0.0619
433.00,0.0681
430.00,0.0720
427.00,0.0745
424.00,0.0790
421.00,0.0782
418.00,0.0680
415.00,0.0653
412.00,0.0648
409.00,0.0567
406.00,0.0477
403.00,0.0428
400.00,0.0416