File: FTIR/Mary/2024_07_27_HIFaFilm_Unstretched_2.csv
Created as New Dataset,Sample 285 By YargerLab Date Saturday, July 27 2024
cm-1,A
4000.00,-0.0001
3997.00,-0.0001
3994.00,-0.0001
3991.00,-0.0001
3988.00,-0.0001
3985.00,-0.0001
3982.00,-0.0001
3979.00,-0.0001
3976.00,-0.0001
3973.00,-0.0001
3970.00,-0.0001
3967.00,-0.0001
3964.00,-0.0001
3961.00,-0.0001
3958.00,-0.0002
3955.00,-0.0002
3952.00,-0.0002
3949.00,-0.0001
3946.00,-0.0001
3943.00,-0.0001
3940.00,-0.0001
3937.00,-0.0001
3934.00,-0.0001
3931.00,-0.0001
3928.00,-0.0001
3925.00,-0.0002
3922.00,-0.0001
3919.00,-0.0001
3916.00,-0.0001
3913.00,-0.0002
3910.00,-0.0002
3907.00,-0.0001
3904.00,-0.0000
3901.00,-0.0000
3898.00,-0.0001
3895.00,-0.0001
3892.00,-0.0001
3889.00,-0.0001
3886.00,-0.0001
3883.00,-0.0001
3880.00,-0.0001
3877.00,-0.0001
3874.00,-0.0001
3871.00,-0.0001
3868.00,-0.0000
3865.00,-0.0001
3862.00,-0.0001
3859.00,-0.0001
3856.00,0.0000
3853.00,-0.0001
3850.00,-0.0001
3847.00,-0.0002
3844.00,-0.0001
3841.00,-0.0001
3838.00,-0.0001
3835.00,-0.0001
3832.00,-0.0002
3829.00,-0.0002
3826.00,-0.0002
3823.00,-0.0001
3820.00,-0.0001
3817.00,-0.0001
3814.00,-0.0001
3811.00,-0.0002
3808.00,-0.0001
3805.00,-0.0001
3802.00,-0.0001
3799.00,-0.0001
3796.00,-0.0002
3793.00,-0.0002
3790.00,-0.0002
3787.00,-0.0002
3784.00,-0.0002
3781.00,-0.0002
3778.00,-0.0002
3775.00,-0.0002
3772.00,-0.0001
3769.00,-0.0001
3766.00,-0.0001
3763.00,-0.0001
3760.00,-0.0001
3757.00,-0.0001
3754.00,-0.0000
3751.00,-0.0000
3748.00,-0.0000
3745.00,-0.0000
3742.00,0.0000
3739.00,-0.0000
3736.00,0.0000
3733.00,0.0000
3730.00,-0.0001
3727.00,-0.0001
3724.00,-0.0000
3721.00,-0.0000
3718.00,-0.0001
3715.00,-0.0000
3712.00,-0.0000
3709.00,-0.0000
3706.00,-0.0001
3703.00,-0.0001
3700.00,-0.0000
3697.00,-0.0001
3694.00,-0.0000
3691.00,0.0000
3688.00,0.0000
3685.00,-0.0000
3682.00,0.0000
3679.00,0.0001
3676.00,0.0002
3673.00,0.0003
3670.00,0.0001
3667.00,0.0002
3664.00,0.0001
3661.00,0.0002
3658.00,0.0003
3655.00,0.0003
3652.00,0.0005
3649.00,0.0005
3646.00,0.0005
3643.00,0.0004
3640.00,0.0005
3637.00,0.0005
3634.00,0.0006
3631.00,0.0008
3628.00,0.0007
3625.00,0.0008
3622.00,0.0009
3619.00,0.0009
3616.00,0.0010
3613.00,0.0010
3610.00,0.0011
3607.00,0.0011
3604.00,0.0011
3601.00,0.0012
3598.00,0.0012
3595.00,0.0013
3592.00,0.0014
3589.00,0.0015
3586.00,0.0015
3583.00,0.0015
3580.00,0.0016
3577.00,0.0016
3574.00,0.0017
3571.00,0.0018
3568.00,0.0019
3565.00,0.0019
3562.00,0.0020
3559.00,0.0020
3556.00,0.0021
3553.00,0.0021
3550.00,0.0022
3547.00,0.0022
3544.00,0.0023
3541.00,0.0024
3538.00,0.0024
3535.00,0.0025
3532.00,0.0026
3529.00,0.0026
3526.00,0.0027
3523.00,0.0027
3520.00,0.0027
3517.00,0.0028
3514.00,0.0029
3511.00,0.0029
3508.00,0.0030
3505.00,0.0031
3502.00,0.0031
3499.00,0.0032
3496.00,0.0032
3493.00,0.0033
3490.00,0.0034
3487.00,0.0034
3484.00,0.0035
3481.00,0.0035
3478.00,0.0036
3475.00,0.0037
3472.00,0.0037
3469.00,0.0038
3466.00,0.0039
3463.00,0.0039
3460.00,0.0040
3457.00,0.0040
3454.00,0.0041
3451.00,0.0042
3448.00,0.0042
3445.00,0.0043
3442.00,0.0043
3439.00,0.0044
3436.00,0.0044
3433.00,0.0045
3430.00,0.0045
3427.00,0.0046
3424.00,0.0047
3421.00,0.0047
3418.00,0.0048
3415.00,0.0049
3412.00,0.0049
3409.00,0.0050
3406.00,0.0050
3403.00,0.0051
3400.00,0.0051
3397.00,0.0052
3394.00,0.0053
3391.00,0.0053
3388.00,0.0053
3385.00,0.0054
3382.00,0.0055
3379.00,0.0055
3376.00,0.0056
3373.00,0.0057
3370.00,0.0058
3367.00,0.0059
3364.00,0.0060
3361.00,0.0060
3358.00,0.0061
3355.00,0.0062
3352.00,0.0063
3349.00,0.0064
3346.00,0.0065
3343.00,0.0066
3340.00,0.0067
3337.00,0.0069
3334.00,0.0070
3331.00,0.0071
3328.00,0.0073
3325.00,0.0075
3322.00,0.0076
3319.00,0.0078
3316.00,0.0080
3313.00,0.0082
3310.00,0.0084
3307.00,0.0086
3304.00,0.0088
3301.00,0.0090
3298.00,0.0093
3295.00,0.0095
3292.00,0.0097
3289.00,0.0099
3286.00,0.0101
3283.00,0.0103
3280.00,0.0104
3277.00,0.0106
3274.00,0.0106
3271.00,0.0106
3268.00,0.0106
3265.00,0.0104
3262.00,0.0103
3259.00,0.0101
3256.00,0.0100
3253.00,0.0097
3250.00,0.0095
3247.00,0.0094
3244.00,0.0091
3241.00,0.0089
3238.00,0.0088
3235.00,0.0086
3232.00,0.0085
3229.00,0.0083
3226.00,0.0082
3223.00,0.0080
3220.00,0.0079
3217.00,0.0078
3214.00,0.0077
3211.00,0.0076
3208.00,0.0075
3205.00,0.0074
3202.00,0.0073
3199.00,0.0072
3196.00,0.0071
3193.00,0.0070
3190.00,0.0069
3187.00,0.0068
3184.00,0.0067
3181.00,0.0066
3178.00,0.0065
3175.00,0.0064
3172.00,0.0063
3169.00,0.0062
3166.00,0.0061
3163.00,0.0060
3160.00,0.0059
3157.00,0.0058
3154.00,0.0057
3151.00,0.0057
3148.00,0.0056
3145.00,0.0055
3142.00,0.0055
3139.00,0.0054
3136.00,0.0053
3133.00,0.0053
3130.00,0.0052
3127.00,0.0052
3124.00,0.0052
3121.00,0.0051
3118.00,0.0051
3115.00,0.0051
3112.00,0.0051
3109.00,0.0051
3106.00,0.0051
3103.00,0.0051
3100.00,0.0051
3097.00,0.0052
3094.00,0.0052
3091.00,0.0052
3088.00,0.0052
3085.00,0.0052
3082.00,0.0052
3079.00,0.0052
3076.00,0.0052
3073.00,0.0052
3070.00,0.0052
3067.00,0.0052
3064.00,0.0051
3061.00,0.0051
3058.00,0.0050
3055.00,0.0049
3052.00,0.0048
3049.00,0.0047
3046.00,0.0046
3043.00,0.0045
3040.00,0.0044
3037.00,0.0044
3034.00,0.0043
3031.00,0.0042
3028.00,0.0041
3025.00,0.0041
3022.00,0.0040
3019.00,0.0039
3016.00,0.0038
3013.00,0.0038
3010.00,0.0038
3007.00,0.0037
3004.00,0.0037
3001.00,0.0037
2998.00,0.0037
2995.00,0.0038
2992.00,0.0039
2989.00,0.0040
2986.00,0.0041
2983.00,0.0042
2980.00,0.0044
2977.00,0.0046
2974.00,0.0047
2971.00,0.0049
2968.00,0.0051
2965.00,0.0052
2962.00,0.0052
2959.00,0.0052
2956.00,0.0051
2953.00,0.0050
2950.00,0.0049
2947.00,0.0048
2944.00,0.0049
2941.00,0.0050
2938.00,0.0051
2935.00,0.0052
2932.00,0.0052
2929.00,0.0052
2926.00,0.0052
2923.00,0.0051
2920.00,0.0051
2917.00,0.0049
2914.00,0.0047
2911.00,0.0045
2908.00,0.0044
2905.00,0.0042
2902.00,0.0041
2899.00,0.0040
2896.00,0.0039
2893.00,0.0038
2890.00,0.0038
2887.00,0.0038
2884.00,0.0038
2881.00,0.0039
2878.00,0.0040
2875.00,0.0040
2872.00,0.0039
2869.00,0.0038
2866.00,0.0037
2863.00,0.0036
2860.00,0.0035
2857.00,0.0034
2854.00,0.0034
2851.00,0.0034
2848.00,0.0032
2845.00,0.0030
2842.00,0.0029
2839.00,0.0027
2836.00,0.0027
2833.00,0.0026
2830.00,0.0026
2827.00,0.0026
2824.00,0.0025
2821.00,0.0025
2818.00,0.0025
2815.00,0.0025
2812.00,0.0024
2809.00,0.0024
2806.00,0.0024
2803.00,0.0024
2800.00,0.0024
2797.00,0.0023
2794.00,0.0023
2791.00,0.0023
2788.00,0.0022
2785.00,0.0022
2782.00,0.0022
2779.00,0.0021
2776.00,0.0021
2773.00,0.0020
2770.00,0.0020
2767.00,0.0020
2764.00,0.0019
2761.00,0.0019
2758.00,0.0018
2755.00,0.0018
2752.00,0.0018
2749.00,0.0017
2746.00,0.0017
2743.00,0.0017
2740.00,0.0017
2737.00,0.0016
2734.00,0.0016
2731.00,0.0016
2728.00,0.0016
2725.00,0.0015
2722.00,0.0015
2719.00,0.0015
2716.00,0.0014
2713.00,0.0014
2710.00,0.0014
2707.00,0.0014
2704.00,0.0014
2701.00,0.0014
2698.00,0.0013
2695.00,0.0013
2692.00,0.0013
2689.00,0.0013
2686.00,0.0013
2683.00,0.0013
2680.00,0.0012
2677.00,0.0012
2674.00,0.0012
2671.00,0.0012
2668.00,0.0012
2665.00,0.0011
2662.00,0.0011
2659.00,0.0011
2656.00,0.0010
2653.00,0.0010
2650.00,0.0010
2647.00,0.0010
2644.00,0.0010
2641.00,0.0010
2638.00,0.0010
2635.00,0.0009
2632.00,0.0009
2629.00,0.0009
2626.00,0.0009
2623.00,0.0009
2620.00,0.0009
2617.00,0.0009
2614.00,0.0009
2611.00,0.0009
2608.00,0.0009
2605.00,0.0009
2602.00,0.0009
2599.00,0.0008
2596.00,0.0008
2593.00,0.0008
2590.00,0.0008
2587.00,0.0008
2584.00,0.0008
2581.00,0.0008
2578.00,0.0008
2575.00,0.0008
2572.00,0.0008
2569.00,0.0007
2566.00,0.0007
2563.00,0.0007
2560.00,0.0007
2557.00,0.0007
2554.00,0.0007
2551.00,0.0007
2548.00,0.0006
2545.00,0.0006
2542.00,0.0006
2539.00,0.0006
2536.00,0.0006
2533.00,0.0006
2530.00,0.0006
2527.00,0.0006
2524.00,0.0006
2521.00,0.0006
2518.00,0.0006
2515.00,0.0005
2512.00,0.0005
2509.00,0.0006
2506.00,0.0006
2503.00,0.0005
2500.00,0.0005
2497.00,0.0005
2494.00,0.0005
2491.00,0.0005
2488.00,0.0005
2485.00,0.0005
2482.00,0.0005
2479.00,0.0004
2476.00,0.0004
2473.00,0.0005
2470.00,0.0005
2467.00,0.0004
2464.00,0.0004
2461.00,0.0004
2458.00,0.0004
2455.00,0.0004
2452.00,0.0004
2449.00,0.0004
2446.00,0.0004
2443.00,0.0004
2440.00,0.0003
2437.00,0.0003
2434.00,0.0003
2431.00,0.0003
2428.00,0.0003
2425.00,0.0003
2422.00,0.0003
2419.00,0.0002
2416.00,0.0002
2413.00,0.0003
2410.00,0.0002
2407.00,0.0002
2404.00,0.0003
2401.00,0.0002
2398.00,0.0002
2395.00,0.0002
2392.00,0.0002
2389.00,0.0002
2386.00,0.0002
2383.00,0.0002
2380.00,0.0002
2377.00,0.0002
2374.00,0.0002
2371.00,0.0002
2368.00,0.0002
2365.00,0.0002
2362.00,0.0002
2359.00,0.0002
2356.00,0.0001
2353.00,0.0001
2350.00,0.0001
2347.00,0.0002
2344.00,0.0002
2341.00,0.0001
2338.00,0.0001
2335.00,0.0000
2332.00,0.0001
2329.00,0.0000
2326.00,-0.0000
2323.00,0.0000
2320.00,0.0000
2317.00,0.0000
2314.00,0.0001
2311.00,0.0001
2308.00,0.0000
2305.00,0.0000
2302.00,0.0001
2299.00,0.0000
2296.00,0.0000
2293.00,0.0000
2290.00,0.0000
2287.00,0.0001
2284.00,0.0001
2281.00,0.0001
2278.00,0.0001
2275.00,0.0001
2272.00,0.0001
2269.00,0.0001
2266.00,0.0001
2263.00,0.0002
2260.00,0.0001
2257.00,0.0001
2254.00,0.0001
2251.00,0.0001
2248.00,0.0001
2245.00,0.0000
2242.00,0.0001
2239.00,0.0002
2236.00,0.0002
2233.00,0.0002
2230.00,0.0002
2227.00,0.0001
2224.00,0.0001
2221.00,0.0002
2218.00,0.0002
2215.00,0.0002
2212.00,0.0001
2209.00,0.0001
2206.00,0.0001
2203.00,0.0001
2200.00,0.0000
2197.00,0.0001
2194.00,0.0001
2191.00,0.0002
2188.00,0.0001
2185.00,0.0002
2182.00,0.0002
2179.00,0.0002
2176.00,0.0002
2173.00,0.0002
2170.00,0.0002
2167.00,0.0003
2164.00,0.0003
2161.00,0.0002
2158.00,0.0004
2155.00,0.0004
2152.00,0.0002
2149.00,0.0002
2146.00,0.0002
2143.00,0.0002
2140.00,0.0003
2137.00,0.0002
2134.00,0.0002
2131.00,0.0002
2128.00,0.0000
2125.00,0.0001
2122.00,0.0001
2119.00,0.0001
2116.00,0.0001
2113.00,0.0001
2110.00,0.0001
2107.00,0.0001
2104.00,0.0001
2101.00,0.0000
2098.00,0.0000
2095.00,0.0001
2092.00,0.0001
2089.00,0.0001
2086.00,0.0001
2083.00,0.0001
2080.00,0.0000
2077.00,-0.0000
2074.00,0.0000
2071.00,0.0000
2068.00,0.0001
2065.00,0.0000
2062.00,0.0001
2059.00,-0.0000
2056.00,-0.0000
2053.00,-0.0000
2050.00,-0.0001
2047.00,-0.0001
2044.00,-0.0001
2041.00,-0.0001
2038.00,0.0000
2035.00,-0.0000
2032.00,-0.0002
2029.00,-0.0001
2026.00,-0.0001
2023.00,0.0001
2020.00,0.0001
2017.00,0.0001
2014.00,-0.0001
2011.00,-0.0002
2008.00,-0.0001
2005.00,0.0001
2002.00,0.0001
1999.00,0.0001
1996.00,-0.0001
1993.00,-0.0002
1990.00,-0.0001
1987.00,0.0000
1984.00,-0.0001
1981.00,-0.0001
1978.00,0.0000
1975.00,0.0001
1972.00,-0.0001
1969.00,-0.0003
1966.00,-0.0002
1963.00,-0.0001
1960.00,-0.0000
1957.00,0.0000
1954.00,-0.0000
1951.00,-0.0000
1948.00,-0.0001
1945.00,-0.0002
1942.00,-0.0002
1939.00,-0.0001
1936.00,-0.0001
1933.00,-0.0001
1930.00,-0.0001
1927.00,-0.0002
1924.00,-0.0002
1921.00,-0.0002
1918.00,-0.0002
1915.00,-0.0002
1912.00,-0.0002
1909.00,-0.0001
1906.00,-0.0001
1903.00,-0.0002
1900.00,-0.0002
1897.00,-0.0003
1894.00,-0.0002
1891.00,-0.0002
1888.00,-0.0002
1885.00,-0.0002
1882.00,-0.0002
1879.00,-0.0002
1876.00,-0.0002
1873.00,-0.0002
1870.00,-0.0003
1867.00,-0.0002
1864.00,-0.0003
1861.00,-0.0003
1858.00,-0.0002
1855.00,-0.0002
1852.00,-0.0002
1849.00,-0.0002
1846.00,-0.0002
1843.00,-0.0003
1840.00,-0.0003
1837.00,-0.0002
1834.00,-0.0003
1831.00,-0.0004
1828.00,-0.0002
1825.00,-0.0003
1822.00,-0.0003
1819.00,-0.0003
1816.00,-0.0003
1813.00,-0.0003
1810.00,-0.0002
1807.00,-0.0002
1804.00,-0.0003
1801.00,-0.0003
1798.00,-0.0002
1795.00,-0.0003
1792.00,-0.0002
1789.00,-0.0002
1786.00,-0.0002
1783.00,-0.0002
1780.00,-0.0002
1777.00,-0.0002
1774.00,-0.0002
1771.00,0.0002
1768.00,-0.0001
1765.00,-0.0001
1762.00,0.0000
1759.00,0.0000
1756.00,0.0001
1753.00,0.0001
1750.00,0.0002
1747.00,0.0003
1744.00,0.0003
1741.00,0.0005
1738.00,0.0008
1735.00,0.0007
1732.00,0.0011
1729.00,0.0009
1726.00,0.0010
1723.00,0.0012
1720.00,0.0011
1717.00,0.0016
1714.00,0.0018
1711.00,0.0020
1708.00,0.0024
1705.00,0.0030
1702.00,0.0041
1699.00,0.0061
1696.00,0.0068
1693.00,0.0076
1690.00,0.0078
1687.00,0.0083
1684.00,0.0092
1681.00,0.0096
1678.00,0.0103
1675.00,0.0112
1672.00,0.0119
1669.00,0.0126
1666.00,0.0134
1663.00,0.0142
1660.00,0.0150
1657.00,0.0160
1654.00,0.0169
1651.00,0.0175
1648.00,0.0175
1645.00,0.0175
1642.00,0.0178
1639.00,0.0183
1636.00,0.0186
1633.00,0.0190
1630.00,0.0198
1627.00,0.0208
1624.00,0.0219
1621.00,0.0227
1618.00,0.0237
1615.00,0.0232
1612.00,0.0226
1609.00,0.0211
1606.00,0.0194
1603.00,0.0178
1600.00,0.0164
1597.00,0.0153
1594.00,0.0144
1591.00,0.0137
1588.00,0.0132
1585.00,0.0129
1582.00,0.0127
1579.00,0.0128
1576.00,0.0130
1573.00,0.0131
1570.00,0.0134
1567.00,0.0138
1564.00,0.0144
1561.00,0.0155
1558.00,0.0158
1555.00,0.0163
1552.00,0.0171
1549.00,0.0176
1546.00,0.0185
1543.00,0.0191
1540.00,0.0194
1537.00,0.0199
1534.00,0.0203
1531.00,0.0205
1528.00,0.0210
1525.00,0.0211
1522.00,0.0212
1519.00,0.0211
1516.00,0.0208
1513.00,0.0207
1510.00,0.0202
1507.00,0.0187
1504.00,0.0176
1501.00,0.0169
1498.00,0.0158
1495.00,0.0146
1492.00,0.0135
1489.00,0.0120
1486.00,0.0113
1483.00,0.0107
1480.00,0.0103
1477.00,0.0101
1474.00,0.0101
1471.00,0.0105
1468.00,0.0107
1465.00,0.0108
1462.00,0.0109
1459.00,0.0111
1456.00,0.0115
1453.00,0.0116
1450.00,0.0116
1447.00,0.0115
1444.00,0.0114
1441.00,0.0113
1438.00,0.0110
1435.00,0.0105
1432.00,0.0101
1429.00,0.0097
1426.00,0.0096
1423.00,0.0096
1420.00,0.0099
1417.00,0.0101
1414.00,0.0106
1411.00,0.0110
1408.00,0.0114
1405.00,0.0116
1402.00,0.0118
1399.00,0.0119
1396.00,0.0119
1393.00,0.0120
1390.00,0.0121
1387.00,0.0120
1384.00,0.0118
1381.00,0.0115
1378.00,0.0112
1375.00,0.0108
1372.00,0.0105
1369.00,0.0103
1366.00,0.0099
1363.00,0.0093
1360.00,0.0091
1357.00,0.0092
1354.00,0.0093
1351.00,0.0096
1348.00,0.0097
1345.00,0.0097
1342.00,0.0095
1339.00,0.0091
1336.00,0.0091
1333.00,0.0090
1330.00,0.0089
1327.00,0.0089
1324.00,0.0088
1321.00,0.0088
1318.00,0.0087
1315.00,0.0087
1312.00,0.0087
1309.00,0.0087
1306.00,0.0086
1303.00,0.0085
1300.00,0.0085
1297.00,0.0085
1294.00,0.0085
1291.00,0.0086
1288.00,0.0086
1285.00,0.0087
1282.00,0.0088
1279.00,0.0088
1276.00,0.0087
1273.00,0.0088
1270.00,0.0089
1267.00,0.0090
1264.00,0.0092
1261.00,0.0095
1258.00,0.0098
1255.00,0.0101
1252.00,0.0105
1249.00,0.0108
1246.00,0.0111
1243.00,0.0113
1240.00,0.0115
1237.00,0.0116
1234.00,0.0117
1231.00,0.0116
1228.00,0.0115
1225.00,0.0113
1222.00,0.0111
1219.00,0.0107
1216.00,0.0103
1213.00,0.0098
1210.00,0.0093
1207.00,0.0088
1204.00,0.0083
1201.00,0.0080
1198.00,0.0077
1195.00,0.0075
1192.00,0.0074
1189.00,0.0072
1186.00,0.0071
1183.00,0.0071
1180.00,0.0071
1177.00,0.0072
1174.00,0.0075
1171.00,0.0078
1168.00,0.0079
1165.00,0.0079
1162.00,0.0080
1159.00,0.0080
1156.00,0.0081
1153.00,0.0080
1150.00,0.0078
1147.00,0.0077
1144.00,0.0075
1141.00,0.0075
1138.00,0.0075
1135.00,0.0076
1132.00,0.0077
1129.00,0.0079
1126.00,0.0081
1123.00,0.0083
1120.00,0.0084
1117.00,0.0085
1114.00,0.0086
1111.00,0.0088
1108.00,0.0088
1105.00,0.0089
1102.00,0.0090
1099.00,0.0091
1096.00,0.0093
1093.00,0.0096
1090.00,0.0100
1087.00,0.0105
1084.00,0.0110
1081.00,0.0114
1078.00,0.0117
1075.00,0.0119
1072.00,0.0120
1069.00,0.0120
1066.00,0.0120
1063.00,0.0120
1060.00,0.0118
1057.00,0.0116
1054.00,0.0114
1051.00,0.0111
1048.00,0.0109
1045.00,0.0106
1042.00,0.0103
1039.00,0.0099
1036.00,0.0096
1033.00,0.0094
1030.00,0.0092
1027.00,0.0089
1024.00,0.0086
1021.00,0.0082
1018.00,0.0078
1015.00,0.0073
1012.00,0.0069
1009.00,0.0065
1006.00,0.0061
1003.00,0.0058
1000.00,0.0056
997.00,0.0054
994.00,0.0053
991.00,0.0051
988.00,0.0051
985.00,0.0051
982.00,0.0052
979.00,0.0054
976.00,0.0055
973.00,0.0056
970.00,0.0056
967.00,0.0055
964.00,0.0054
961.00,0.0053
958.00,0.0052
955.00,0.0051
952.00,0.0051
949.00,0.0050
946.00,0.0050
943.00,0.0050
940.00,0.0051
937.00,0.0051
934.00,0.0051
931.00,0.0051
928.00,0.0049
925.00,0.0048
922.00,0.0046
919.00,0.0045
916.00,0.0044
913.00,0.0043
910.00,0.0042
907.00,0.0042
904.00,0.0042
901.00,0.0042
898.00,0.0042
895.00,0.0042
892.00,0.0042
889.00,0.0042
886.00,0.0042
883.00,0.0042
880.00,0.0042
877.00,0.0042
874.00,0.0041
871.00,0.0041
868.00,0.0041
865.00,0.0041
862.00,0.0042
859.00,0.0044
856.00,0.0045
853.00,0.0047
850.00,0.0048
847.00,0.0049
844.00,0.0050
841.00,0.0051
838.00,0.0054
835.00,0.0056
832.00,0.0059
829.00,0.0061
826.00,0.0062
823.00,0.0062
820.00,0.0063
817.00,0.0064
814.00,0.0066
811.00,0.0067
808.00,0.0068
805.00,0.0070
802.00,0.0071
799.00,0.0073
796.00,0.0075
793.00,0.0078
790.00,0.0082
787.00,0.0085
784.00,0.0088
781.00,0.0091
778.00,0.0093
775.00,0.0095
772.00,0.0097
769.00,0.0098
766.00,0.0099
763.00,0.0101
760.00,0.0102
757.00,0.0103
754.00,0.0105
751.00,0.0107
748.00,0.0110
745.00,0.0111
742.00,0.0113
739.00,0.0114
736.00,0.0115
733.00,0.0118
730.00,0.0121
727.00,0.0127
724.00,0.0132
721.00,0.0139
718.00,0.0144
715.00,0.0148
712.00,0.0152
709.00,0.0157
706.00,0.0162
703.00,0.0168
700.00,0.0172
697.00,0.0174
694.00,0.0174
691.00,0.0174
688.00,0.0174
685.00,0.0176
682.00,0.0177
679.00,0.0178
676.00,0.0179
673.00,0.0180
670.00,0.0181
667.00,0.0179
664.00,0.0183
661.00,0.0184
658.00,0.0186
655.00,0.0187
652.00,0.0189
649.00,0.0189
646.00,0.0190
643.00,0.0192
640.00,0.0194
637.00,0.0196
634.00,0.0197
631.00,0.0198
628.00,0.0200
625.00,0.0202
622.00,0.0204
619.00,0.0205
616.00,0.0205
613.00,0.0205
610.00,0.0206
607.00,0.0206
604.00,0.0205
601.00,0.0207
598.00,0.0208
595.00,0.0209
592.00,0.0209
589.00,0.0210
586.00,0.0212
583.00,0.0213
580.00,0.0214
577.00,0.0216
574.00,0.0217
571.00,0.0219
568.00,0.0220
565.00,0.0222
562.00,0.0224
559.00,0.0226
556.00,0.0228
553.00,0.0230
550.00,0.0233
547.00,0.0234
544.00,0.0238
541.00,0.0240
538.00,0.0243
535.00,0.0244
532.00,0.0245
529.00,0.0249
526.00,0.0252
523.00,0.0254
520.00,0.0254
517.00,0.0254
514.00,0.0258
511.00,0.0260
508.00,0.0259
505.00,0.0260
502.00,0.0263
499.00,0.0265
496.00,0.0267
493.00,0.0270
490.00,0.0271
487.00,0.0274
484.00,0.0275
481.00,0.0276
478.00,0.0278
475.00,0.0281
472.00,0.0278
469.00,0.0278
466.00,0.0281
463.00,0.0286
460.00,0.0288
457.00,0.0286
454.00,0.0286
451.00,0.0281
448.00,0.0280
445.00,0.0277
442.00,0.0276
439.00,0.0268
436.00,0.0261
433.00,0.0261
430.00,0.0263
427.00,0.0258
424.00,0.0251
421.00,0.0254
418.00,0.0261
415.00,0.0264
412.00,0.0262
409.00,0.0263
406.00,0.0256
403.00,0.0262
400.00,0.0249