File: FTIR/Mary/2025_10_03_Polystyrene_Calibration_2.csv
Created as New Dataset,Sample 171 By YargerLab Date Friday, October 03 2025
cm-1,A
4000.00,0.0014
3997.00,0.0014
3994.00,0.0014
3991.00,0.0014
3988.00,0.0014
3985.00,0.0014
3982.00,0.0013
3979.00,0.0013
3976.00,0.0013
3973.00,0.0014
3970.00,0.0014
3967.00,0.0014
3964.00,0.0014
3961.00,0.0013
3958.00,0.0014
3955.00,0.0014
3952.00,0.0014
3949.00,0.0013
3946.00,0.0013
3943.00,0.0013
3940.00,0.0014
3937.00,0.0014
3934.00,0.0013
3931.00,0.0013
3928.00,0.0013
3925.00,0.0013
3922.00,0.0013
3919.00,0.0012
3916.00,0.0013
3913.00,0.0013
3910.00,0.0014
3907.00,0.0013
3904.00,0.0013
3901.00,0.0011
3898.00,0.0012
3895.00,0.0013
3892.00,0.0013
3889.00,0.0013
3886.00,0.0012
3883.00,0.0012
3880.00,0.0012
3877.00,0.0013
3874.00,0.0013
3871.00,0.0012
3868.00,0.0013
3865.00,0.0012
3862.00,0.0012
3859.00,0.0012
3856.00,0.0012
3853.00,0.0012
3850.00,0.0011
3847.00,0.0013
3844.00,0.0013
3841.00,0.0013
3838.00,0.0013
3835.00,0.0012
3832.00,0.0012
3829.00,0.0013
3826.00,0.0013
3823.00,0.0012
3820.00,0.0012
3817.00,0.0012
3814.00,0.0013
3811.00,0.0013
3808.00,0.0013
3805.00,0.0014
3802.00,0.0014
3799.00,0.0013
3796.00,0.0013
3793.00,0.0014
3790.00,0.0014
3787.00,0.0014
3784.00,0.0014
3781.00,0.0014
3778.00,0.0014
3775.00,0.0014
3772.00,0.0014
3769.00,0.0013
3766.00,0.0013
3763.00,0.0014
3760.00,0.0014
3757.00,0.0014
3754.00,0.0013
3751.00,0.0012
3748.00,0.0011
3745.00,0.0011
3742.00,0.0012
3739.00,0.0012
3736.00,0.0012
3733.00,0.0011
3730.00,0.0013
3727.00,0.0013
3724.00,0.0013
3721.00,0.0012
3718.00,0.0013
3715.00,0.0012
3712.00,0.0012
3709.00,0.0011
3706.00,0.0012
3703.00,0.0013
3700.00,0.0013
3697.00,0.0013
3694.00,0.0013
3691.00,0.0013
3688.00,0.0012
3685.00,0.0012
3682.00,0.0013
3679.00,0.0013
3676.00,0.0012
3673.00,0.0011
3670.00,0.0011
3667.00,0.0012
3664.00,0.0013
3661.00,0.0014
3658.00,0.0014
3655.00,0.0015
3652.00,0.0014
3649.00,0.0012
3646.00,0.0012
3643.00,0.0013
3640.00,0.0014
3637.00,0.0013
3634.00,0.0013
3631.00,0.0012
3628.00,0.0012
3625.00,0.0012
3622.00,0.0013
3619.00,0.0013
3616.00,0.0013
3613.00,0.0013
3610.00,0.0012
3607.00,0.0012
3604.00,0.0013
3601.00,0.0013
3598.00,0.0013
3595.00,0.0014
3592.00,0.0014
3589.00,0.0014
3586.00,0.0013
3583.00,0.0014
3580.00,0.0015
3577.00,0.0015
3574.00,0.0015
3571.00,0.0015
3568.00,0.0014
3565.00,0.0014
3562.00,0.0015
3559.00,0.0016
3556.00,0.0016
3553.00,0.0016
3550.00,0.0016
3547.00,0.0016
3544.00,0.0017
3541.00,0.0017
3538.00,0.0017
3535.00,0.0017
3532.00,0.0017
3529.00,0.0017
3526.00,0.0018
3523.00,0.0018
3520.00,0.0018
3517.00,0.0019
3514.00,0.0020
3511.00,0.0020
3508.00,0.0020
3505.00,0.0020
3502.00,0.0019
3499.00,0.0019
3496.00,0.0019
3493.00,0.0020
3490.00,0.0021
3487.00,0.0020
3484.00,0.0021
3481.00,0.0021
3478.00,0.0022
3475.00,0.0021
3472.00,0.0022
3469.00,0.0022
3466.00,0.0021
3463.00,0.0022
3460.00,0.0022
3457.00,0.0022
3454.00,0.0022
3451.00,0.0023
3448.00,0.0023
3445.00,0.0022
3442.00,0.0023
3439.00,0.0023
3436.00,0.0023
3433.00,0.0023
3430.00,0.0023
3427.00,0.0023
3424.00,0.0023
3421.00,0.0023
3418.00,0.0023
3415.00,0.0023
3412.00,0.0023
3409.00,0.0023
3406.00,0.0024
3403.00,0.0024
3400.00,0.0024
3397.00,0.0024
3394.00,0.0024
3391.00,0.0024
3388.00,0.0023
3385.00,0.0023
3382.00,0.0024
3379.00,0.0025
3376.00,0.0024
3373.00,0.0024
3370.00,0.0024
3367.00,0.0024
3364.00,0.0024
3361.00,0.0025
3358.00,0.0025
3355.00,0.0024
3352.00,0.0025
3349.00,0.0025
3346.00,0.0025
3343.00,0.0025
3340.00,0.0025
3337.00,0.0025
3334.00,0.0025
3331.00,0.0025
3328.00,0.0026
3325.00,0.0026
3322.00,0.0026
3319.00,0.0026
3316.00,0.0025
3313.00,0.0026
3310.00,0.0026
3307.00,0.0026
3304.00,0.0026
3301.00,0.0026
3298.00,0.0026
3295.00,0.0026
3292.00,0.0026
3289.00,0.0026
3286.00,0.0026
3283.00,0.0026
3280.00,0.0026
3277.00,0.0026
3274.00,0.0026
3271.00,0.0026
3268.00,0.0027
3265.00,0.0026
3262.00,0.0026
3259.00,0.0025
3256.00,0.0025
3253.00,0.0025
3250.00,0.0024
3247.00,0.0025
3244.00,0.0025
3241.00,0.0024
3238.00,0.0024
3235.00,0.0023
3232.00,0.0023
3229.00,0.0023
3226.00,0.0024
3223.00,0.0023
3220.00,0.0024
3217.00,0.0023
3214.00,0.0023
3211.00,0.0024
3208.00,0.0024
3205.00,0.0023
3202.00,0.0024
3199.00,0.0024
3196.00,0.0023
3193.00,0.0023
3190.00,0.0023
3187.00,0.0022
3184.00,0.0022
3181.00,0.0022
3178.00,0.0022
3175.00,0.0022
3172.00,0.0022
3169.00,0.0022
3166.00,0.0022
3163.00,0.0022
3160.00,0.0022
3157.00,0.0021
3154.00,0.0021
3151.00,0.0021
3148.00,0.0021
3145.00,0.0021
3142.00,0.0021
3139.00,0.0021
3136.00,0.0021
3133.00,0.0021
3130.00,0.0021
3127.00,0.0021
3124.00,0.0021
3121.00,0.0021
3118.00,0.0023
3115.00,0.0024
3112.00,0.0028
3109.00,0.0032
3106.00,0.0036
3103.00,0.0038
3100.00,0.0037
3097.00,0.0036
3094.00,0.0038
3091.00,0.0046
3088.00,0.0059
3085.00,0.0073
3082.00,0.0079
3079.00,0.0072
3076.00,0.0063
3073.00,0.0061
3070.00,0.0065
3067.00,0.0076
3064.00,0.0092
3061.00,0.0103
3058.00,0.0101
3055.00,0.0087
3052.00,0.0073
3049.00,0.0063
3046.00,0.0059
3043.00,0.0061
3040.00,0.0068
3037.00,0.0082
3034.00,0.0106
3031.00,0.0141
3028.00,0.0177
3025.00,0.0189
3022.00,0.0164
3019.00,0.0120
3016.00,0.0086
3013.00,0.0068
3010.00,0.0059
3007.00,0.0060
3004.00,0.0064
3001.00,0.0065
2998.00,0.0059
2995.00,0.0049
2992.00,0.0044
2989.00,0.0043
2986.00,0.0043
2983.00,0.0043
2980.00,0.0045
2977.00,0.0048
2974.00,0.0050
2971.00,0.0053
2968.00,0.0058
2965.00,0.0064
2962.00,0.0071
2959.00,0.0078
2956.00,0.0085
2953.00,0.0092
2950.00,0.0101
2947.00,0.0113
2944.00,0.0129
2941.00,0.0150
2938.00,0.0175
2935.00,0.0203
2932.00,0.0232
2929.00,0.0258
2926.00,0.0277
2923.00,0.0287
2920.00,0.0286
2917.00,0.0275
2914.00,0.0255
2911.00,0.0232
2908.00,0.0211
2905.00,0.0191
2902.00,0.0172
2899.00,0.0153
2896.00,0.0138
2893.00,0.0125
2890.00,0.0115
2887.00,0.0106
2884.00,0.0099
2881.00,0.0094
2878.00,0.0089
2875.00,0.0086
2872.00,0.0085
2869.00,0.0085
2866.00,0.0089
2863.00,0.0097
2860.00,0.0111
2857.00,0.0127
2854.00,0.0140
2851.00,0.0147
2848.00,0.0140
2845.00,0.0121
2842.00,0.0099
2839.00,0.0078
2836.00,0.0061
2833.00,0.0050
2830.00,0.0044
2827.00,0.0040
2824.00,0.0037
2821.00,0.0036
2818.00,0.0035
2815.00,0.0034
2812.00,0.0033
2809.00,0.0032
2806.00,0.0031
2803.00,0.0030
2800.00,0.0029
2797.00,0.0029
2794.00,0.0029
2791.00,0.0028
2788.00,0.0027
2785.00,0.0027
2782.00,0.0027
2779.00,0.0027
2776.00,0.0026
2773.00,0.0026
2770.00,0.0025
2767.00,0.0025
2764.00,0.0025
2761.00,0.0024
2758.00,0.0024
2755.00,0.0023
2752.00,0.0024
2749.00,0.0024
2746.00,0.0023
2743.00,0.0023
2740.00,0.0023
2737.00,0.0023
2734.00,0.0024
2731.00,0.0024
2728.00,0.0024
2725.00,0.0024
2722.00,0.0024
2719.00,0.0023
2716.00,0.0023
2713.00,0.0023
2710.00,0.0023
2707.00,0.0023
2704.00,0.0023
2701.00,0.0023
2698.00,0.0023
2695.00,0.0023
2692.00,0.0023
2689.00,0.0023
2686.00,0.0023
2683.00,0.0023
2680.00,0.0023
2677.00,0.0023
2674.00,0.0023
2671.00,0.0023
2668.00,0.0023
2665.00,0.0024
2662.00,0.0026
2659.00,0.0027
2656.00,0.0027
2653.00,0.0027
2650.00,0.0027
2647.00,0.0027
2644.00,0.0028
2641.00,0.0027
2638.00,0.0027
2635.00,0.0028
2632.00,0.0028
2629.00,0.0027
2626.00,0.0026
2623.00,0.0026
2620.00,0.0025
2617.00,0.0025
2614.00,0.0025
2611.00,0.0025
2608.00,0.0025
2605.00,0.0026
2602.00,0.0025
2599.00,0.0024
2596.00,0.0023
2593.00,0.0023
2590.00,0.0022
2587.00,0.0023
2584.00,0.0023
2581.00,0.0023
2578.00,0.0022
2575.00,0.0022
2572.00,0.0021
2569.00,0.0020
2566.00,0.0020
2563.00,0.0021
2560.00,0.0020
2557.00,0.0020
2554.00,0.0020
2551.00,0.0021
2548.00,0.0020
2545.00,0.0020
2542.00,0.0020
2539.00,0.0020
2536.00,0.0019
2533.00,0.0018
2530.00,0.0019
2527.00,0.0018
2524.00,0.0018
2521.00,0.0019
2518.00,0.0019
2515.00,0.0018
2512.00,0.0018
2509.00,0.0018
2506.00,0.0017
2503.00,0.0017
2500.00,0.0018
2497.00,0.0018
2494.00,0.0017
2491.00,0.0018
2488.00,0.0018
2485.00,0.0018
2482.00,0.0017
2479.00,0.0017
2476.00,0.0018
2473.00,0.0017
2470.00,0.0017
2467.00,0.0017
2464.00,0.0017
2461.00,0.0017
2458.00,0.0017
2455.00,0.0018
2452.00,0.0017
2449.00,0.0017
2446.00,0.0017
2443.00,0.0016
2440.00,0.0016
2437.00,0.0016
2434.00,0.0015
2431.00,0.0015
2428.00,0.0015
2425.00,0.0015
2422.00,0.0014
2419.00,0.0014
2416.00,0.0015
2413.00,0.0014
2410.00,0.0014
2407.00,0.0012
2404.00,0.0012
2401.00,0.0013
2398.00,0.0013
2395.00,0.0013
2392.00,0.0012
2389.00,0.0012
2386.00,0.0012
2383.00,0.0012
2380.00,0.0012
2377.00,0.0012
2374.00,0.0012
2371.00,0.0011
2368.00,0.0011
2365.00,0.0013
2362.00,0.0013
2359.00,0.0014
2356.00,0.0014
2353.00,0.0013
2350.00,0.0015
2347.00,0.0016
2344.00,0.0018
2341.00,0.0018
2338.00,0.0019
2335.00,0.0019
2332.00,0.0018
2329.00,0.0020
2326.00,0.0030
2323.00,0.0029
2320.00,0.0025
2317.00,0.0023
2314.00,0.0023
2311.00,0.0023
2308.00,0.0022
2305.00,0.0021
2302.00,0.0021
2299.00,0.0022
2296.00,0.0022
2293.00,0.0024
2290.00,0.0026
2287.00,0.0026
2284.00,0.0025
2281.00,0.0023
2278.00,0.0021
2275.00,0.0020
2272.00,0.0020
2269.00,0.0021
2266.00,0.0018
2263.00,0.0017
2260.00,0.0018
2257.00,0.0018
2254.00,0.0016
2251.00,0.0017
2248.00,0.0016
2245.00,0.0017
2242.00,0.0018
2239.00,0.0017
2236.00,0.0017
2233.00,0.0016
2230.00,0.0015
2227.00,0.0016
2224.00,0.0016
2221.00,0.0015
2218.00,0.0017
2215.00,0.0017
2212.00,0.0014
2209.00,0.0014
2206.00,0.0017
2203.00,0.0016
2200.00,0.0017
2197.00,0.0015
2194.00,0.0018
2191.00,0.0019
2188.00,0.0019
2185.00,0.0017
2182.00,0.0012
2179.00,0.0012
2176.00,0.0010
2173.00,0.0010
2170.00,0.0020
2167.00,0.0026
2164.00,0.0025
2161.00,0.0010
2158.00,-0.0017
2155.00,-0.0012
2152.00,-0.0006
2149.00,-0.0006
2146.00,-0.0004
2143.00,-0.0004
2140.00,-0.0005
2137.00,-0.0005
2134.00,-0.0006
2131.00,-0.0003
2128.00,0.0000
2125.00,0.0003
2122.00,0.0005
2119.00,0.0009
2116.00,0.0012
2113.00,0.0012
2110.00,0.0012
2107.00,0.0011
2104.00,0.0012
2101.00,0.0013
2098.00,0.0011
2095.00,0.0006
2092.00,0.0009
2089.00,0.0011
2086.00,0.0012
2083.00,0.0013
2080.00,0.0013
2077.00,0.0012
2074.00,0.0011
2071.00,0.0012
2068.00,0.0012
2065.00,0.0009
2062.00,0.0010
2059.00,0.0009
2056.00,0.0010
2053.00,0.0016
2050.00,0.0017
2047.00,0.0011
2044.00,0.0012
2041.00,0.0012
2038.00,0.0014
2035.00,0.0009
2032.00,0.0005
2029.00,0.0005
2026.00,0.0005
2023.00,0.0004
2020.00,0.0005
2017.00,0.0005
2014.00,0.0005
2011.00,0.0007
2008.00,0.0001
2005.00,-0.0000
2002.00,0.0004
1999.00,0.0006
1996.00,0.0007
1993.00,0.0012
1990.00,0.0013
1987.00,0.0013
1984.00,0.0021
1981.00,0.0027
1978.00,0.0012
1975.00,0.0006
1972.00,0.0006
1969.00,0.0010
1966.00,0.0014
1963.00,0.0016
1960.00,0.0017
1957.00,0.0017
1954.00,0.0019
1951.00,0.0022
1948.00,0.0029
1945.00,0.0031
1942.00,0.0031
1939.00,0.0029
1936.00,0.0023
1933.00,0.0017
1930.00,0.0014
1927.00,0.0013
1924.00,0.0013
1921.00,0.0012
1918.00,0.0011
1915.00,0.0011
1912.00,0.0010
1909.00,0.0012
1906.00,0.0012
1903.00,0.0012
1900.00,0.0013
1897.00,0.0015
1894.00,0.0018
1891.00,0.0020
1888.00,0.0020
1885.00,0.0023
1882.00,0.0026
1879.00,0.0027
1876.00,0.0029
1873.00,0.0031
1870.00,0.0031
1867.00,0.0030
1864.00,0.0027
1861.00,0.0024
1858.00,0.0021
1855.00,0.0017
1852.00,0.0016
1849.00,0.0016
1846.00,0.0014
1843.00,0.0013
1840.00,0.0013
1837.00,0.0014
1834.00,0.0014
1831.00,0.0015
1828.00,0.0017
1825.00,0.0019
1822.00,0.0021
1819.00,0.0022
1816.00,0.0023
1813.00,0.0028
1810.00,0.0031
1807.00,0.0033
1804.00,0.0035
1801.00,0.0035
1798.00,0.0034
1795.00,0.0031
1792.00,0.0027
1789.00,0.0024
1786.00,0.0023
1783.00,0.0022
1780.00,0.0023
1777.00,0.0023
1774.00,0.0024
1771.00,0.0024
1768.00,0.0026
1765.00,0.0027
1762.00,0.0031
1759.00,0.0036
1756.00,0.0043
1753.00,0.0052
1750.00,0.0061
1747.00,0.0069
1744.00,0.0074
1741.00,0.0076
1738.00,0.0074
1735.00,0.0072
1732.00,0.0066
1729.00,0.0060
1726.00,0.0055
1723.00,0.0051
1720.00,0.0048
1717.00,0.0044
1714.00,0.0042
1711.00,0.0040
1708.00,0.0040
1705.00,0.0039
1702.00,0.0038
1699.00,0.0038
1696.00,0.0038
1693.00,0.0039
1690.00,0.0042
1687.00,0.0044
1684.00,0.0047
1681.00,0.0048
1678.00,0.0049
1675.00,0.0051
1672.00,0.0053
1669.00,0.0055
1666.00,0.0056
1663.00,0.0056
1660.00,0.0056
1657.00,0.0056
1654.00,0.0055
1651.00,0.0053
1648.00,0.0053
1645.00,0.0049
1642.00,0.0048
1639.00,0.0048
1636.00,0.0045
1633.00,0.0044
1630.00,0.0045
1627.00,0.0045
1624.00,0.0046
1621.00,0.0047
1618.00,0.0048
1615.00,0.0051
1612.00,0.0059
1609.00,0.0080
1606.00,0.0127
1603.00,0.0184
1600.00,0.0191
1597.00,0.0142
1594.00,0.0099
1591.00,0.0079
1588.00,0.0077
1585.00,0.0093
1582.00,0.0095
1579.00,0.0073
1576.00,0.0056
1573.00,0.0049
1570.00,0.0045
1567.00,0.0042
1564.00,0.0041
1561.00,0.0042
1558.00,0.0042
1555.00,0.0045
1552.00,0.0049
1549.00,0.0052
1546.00,0.0056
1543.00,0.0057
1540.00,0.0055
1537.00,0.0052
1534.00,0.0049
1531.00,0.0044
1528.00,0.0042
1525.00,0.0041
1522.00,0.0040
1519.00,0.0040
1516.00,0.0040
1513.00,0.0042
1510.00,0.0045
1507.00,0.0046
1504.00,0.0055
1501.00,0.0078
1498.00,0.0156
1495.00,0.0361
1492.00,0.0444
1489.00,0.0276
1486.00,0.0154
1483.00,0.0102
1480.00,0.0077
1477.00,0.0069
1474.00,0.0067
1471.00,0.0070
1468.00,0.0077
1465.00,0.0084
1462.00,0.0095
1459.00,0.0128
1456.00,0.0291
1453.00,0.0447
1450.00,0.0437
1447.00,0.0342
1444.00,0.0274
1441.00,0.0220
1438.00,0.0180
1435.00,0.0135
1432.00,0.0109
1429.00,0.0089
1426.00,0.0078
1423.00,0.0072
1420.00,0.0069
1417.00,0.0066
1414.00,0.0064
1411.00,0.0062
1408.00,0.0061
1405.00,0.0061
1402.00,0.0062
1399.00,0.0063
1396.00,0.0064
1393.00,0.0068
1390.00,0.0076
1387.00,0.0087
1384.00,0.0096
1381.00,0.0106
1378.00,0.0115
1375.00,0.0121
1372.00,0.0123
1369.00,0.0121
1366.00,0.0119
1363.00,0.0117
1360.00,0.0112
1357.00,0.0108
1354.00,0.0105
1351.00,0.0104
1348.00,0.0104
1345.00,0.0104
1342.00,0.0101
1339.00,0.0095
1336.00,0.0094
1333.00,0.0098
1330.00,0.0103
1327.00,0.0104
1324.00,0.0100
1321.00,0.0098
1318.00,0.0099
1315.00,0.0102
1312.00,0.0103
1309.00,0.0101
1306.00,0.0098
1303.00,0.0094
1300.00,0.0091
1297.00,0.0089
1294.00,0.0089
1291.00,0.0088
1288.00,0.0086
1285.00,0.0085
1282.00,0.0084
1279.00,0.0082
1276.00,0.0079
1273.00,0.0076
1270.00,0.0074
1267.00,0.0072
1264.00,0.0071
1261.00,0.0070
1258.00,0.0069
1255.00,0.0070
1252.00,0.0071
1249.00,0.0073
1246.00,0.0074
1243.00,0.0074
1240.00,0.0074
1237.00,0.0073
1234.00,0.0072
1231.00,0.0071
1228.00,0.0071
1225.00,0.0071
1222.00,0.0071
1219.00,0.0071
1216.00,0.0071
1213.00,0.0072
1210.00,0.0074
1207.00,0.0078
1204.00,0.0084
1201.00,0.0090
1198.00,0.0095
1195.00,0.0097
1192.00,0.0098
1189.00,0.0101
1186.00,0.0110
1183.00,0.0124
1180.00,0.0126
1177.00,0.0111
1174.00,0.0097
1171.00,0.0091
1168.00,0.0089
1165.00,0.0090
1162.00,0.0095
1159.00,0.0109
1156.00,0.0125
1153.00,0.0124
1150.00,0.0102
1147.00,0.0085
1144.00,0.0076
1141.00,0.0070
1138.00,0.0066
1135.00,0.0065
1132.00,0.0064
1129.00,0.0065
1126.00,0.0067
1123.00,0.0071
1120.00,0.0078
1117.00,0.0085
1114.00,0.0087
1111.00,0.0084
1108.00,0.0081
1105.00,0.0078
1102.00,0.0079
1099.00,0.0080
1096.00,0.0081
1093.00,0.0083
1090.00,0.0086
1087.00,0.0091
1084.00,0.0098
1081.00,0.0107
1078.00,0.0116
1075.00,0.0129
1072.00,0.0144
1069.00,0.0153
1066.00,0.0148
1063.00,0.0134
1060.00,0.0120
1057.00,0.0110
1054.00,0.0103
1051.00,0.0096
1048.00,0.0090
1045.00,0.0087
1042.00,0.0087
1039.00,0.0093
1036.00,0.0120
1033.00,0.0176
1030.00,0.0232
1027.00,0.0241
1024.00,0.0200
1021.00,0.0162
1018.00,0.0139
1015.00,0.0123
1012.00,0.0112
1009.00,0.0108
1006.00,0.0112
1003.00,0.0116
1000.00,0.0102
997.00,0.0090
994.00,0.0086
991.00,0.0086
988.00,0.0090
985.00,0.0098
982.00,0.0103
979.00,0.0105
976.00,0.0101
973.00,0.0098
970.00,0.0102
967.00,0.0112
964.00,0.0117
961.00,0.0109
958.00,0.0096
955.00,0.0087
952.00,0.0084
949.00,0.0086
946.00,0.0089
943.00,0.0090
940.00,0.0088
937.00,0.0083
934.00,0.0076
931.00,0.0070
928.00,0.0068
925.00,0.0070
922.00,0.0074
919.00,0.0080
916.00,0.0094
913.00,0.0120
910.00,0.0150
907.00,0.0169
904.00,0.0161
901.00,0.0130
898.00,0.0099
895.00,0.0081
892.00,0.0072
889.00,0.0066
886.00,0.0062
883.00,0.0059
880.00,0.0057
877.00,0.0055
874.00,0.0054
871.00,0.0053
868.00,0.0052
865.00,0.0052
862.00,0.0052
859.00,0.0051
856.00,0.0053
853.00,0.0058
850.00,0.0067
847.00,0.0080
844.00,0.0091
841.00,0.0095
838.00,0.0086
835.00,0.0072
832.00,0.0060
829.00,0.0053
826.00,0.0050
823.00,0.0049
820.00,0.0049
817.00,0.0050
814.00,0.0051
811.00,0.0051
808.00,0.0052
805.00,0.0053
802.00,0.0056
799.00,0.0059
796.00,0.0066
793.00,0.0075
790.00,0.0088
787.00,0.0101
784.00,0.0121
781.00,0.0146
778.00,0.0181
775.00,0.0232
772.00,0.0299
769.00,0.0377
766.00,0.0455
763.00,0.0531
760.00,0.0611
757.00,0.0673
754.00,0.0692
751.00,0.0685
748.00,0.0677
745.00,0.0623
742.00,0.0503
739.00,0.0380
736.00,0.0282
733.00,0.0197
730.00,0.0139
727.00,0.0110
724.00,0.0100
721.00,0.0099
718.00,0.0103
715.00,0.0118
712.00,0.0168
709.00,0.0296
706.00,0.0543
703.00,0.0916
700.00,0.1373
697.00,0.1817
694.00,0.1930
691.00,0.1454
688.00,0.0951
685.00,0.0675
682.00,0.0524
679.00,0.0431
676.00,0.0374
673.00,0.0335
670.00,0.0308
667.00,0.0278
664.00,0.0250
661.00,0.0223
658.00,0.0198
655.00,0.0178
652.00,0.0162
649.00,0.0150
646.00,0.0142
643.00,0.0134
640.00,0.0134
637.00,0.0141
634.00,0.0149
631.00,0.0155
628.00,0.0164
625.00,0.0169
622.00,0.0176
619.00,0.0175
616.00,0.0162
613.00,0.0153
610.00,0.0151
607.00,0.0144
604.00,0.0143
601.00,0.0144
598.00,0.0149
595.00,0.0153
592.00,0.0158
589.00,0.0164
586.00,0.0171
583.00,0.0179
580.00,0.0195
577.00,0.0221
574.00,0.0244
571.00,0.0271
568.00,0.0299
565.00,0.0325
562.00,0.0353
559.00,0.0377
556.00,0.0405
553.00,0.0440
550.00,0.0480
547.00,0.0530
544.00,0.0596
541.00,0.0658
538.00,0.0690
535.00,0.0659
532.00,0.0572
529.00,0.0475
526.00,0.0395
523.00,0.0329
520.00,0.0287
517.00,0.0260
514.00,0.0239
511.00,0.0218
508.00,0.0205
505.00,0.0192
502.00,0.0176
499.00,0.0163
496.00,0.0158
493.00,0.0153
490.00,0.0146
487.00,0.0140
484.00,0.0133
481.00,0.0134
478.00,0.0128
475.00,0.0127
472.00,0.0130
469.00,0.0133
466.00,0.0126
463.00,0.0120
460.00,0.0118
457.00,0.0112
454.00,0.0118
451.00,0.0110
448.00,0.0116
445.00,0.0116
442.00,0.0107
439.00,0.0105
436.00,0.0114
433.00,0.0103
430.00,0.0100
427.00,0.0103
424.00,0.0095
421.00,0.0102
418.00,0.0103
415.00,0.0101
412.00,0.0105
409.00,0.0113
406.00,0.0096
403.00,0.0083
400.00,0.0092