File: FTIR/Mary/2025_11_16_Polystyrene_Scan3.csv
Created as New Dataset,Sample 371 By YargerLab Date Sunday, November 16 2025
cm-1,A
4000.00,0.0029
3997.00,0.0029
3994.00,0.0028
3991.00,0.0028
3988.00,0.0028
3985.00,0.0028
3982.00,0.0028
3979.00,0.0028
3976.00,0.0028
3973.00,0.0028
3970.00,0.0028
3967.00,0.0028
3964.00,0.0028
3961.00,0.0027
3958.00,0.0027
3955.00,0.0028
3952.00,0.0028
3949.00,0.0028
3946.00,0.0028
3943.00,0.0027
3940.00,0.0028
3937.00,0.0028
3934.00,0.0028
3931.00,0.0027
3928.00,0.0028
3925.00,0.0028
3922.00,0.0028
3919.00,0.0028
3916.00,0.0027
3913.00,0.0027
3910.00,0.0027
3907.00,0.0028
3904.00,0.0028
3901.00,0.0028
3898.00,0.0027
3895.00,0.0027
3892.00,0.0028
3889.00,0.0028
3886.00,0.0028
3883.00,0.0027
3880.00,0.0027
3877.00,0.0028
3874.00,0.0028
3871.00,0.0028
3868.00,0.0028
3865.00,0.0028
3862.00,0.0027
3859.00,0.0028
3856.00,0.0030
3853.00,0.0030
3850.00,0.0028
3847.00,0.0027
3844.00,0.0028
3841.00,0.0028
3838.00,0.0029
3835.00,0.0029
3832.00,0.0028
3829.00,0.0028
3826.00,0.0027
3823.00,0.0029
3820.00,0.0030
3817.00,0.0029
3814.00,0.0028
3811.00,0.0028
3808.00,0.0029
3805.00,0.0029
3802.00,0.0028
3799.00,0.0029
3796.00,0.0027
3793.00,0.0027
3790.00,0.0027
3787.00,0.0027
3784.00,0.0027
3781.00,0.0028
3778.00,0.0027
3775.00,0.0028
3772.00,0.0028
3769.00,0.0027
3766.00,0.0028
3763.00,0.0028
3760.00,0.0027
3757.00,0.0028
3754.00,0.0029
3751.00,0.0029
3748.00,0.0029
3745.00,0.0028
3742.00,0.0028
3739.00,0.0027
3736.00,0.0027
3733.00,0.0028
3730.00,0.0027
3727.00,0.0026
3724.00,0.0027
3721.00,0.0027
3718.00,0.0026
3715.00,0.0027
3712.00,0.0027
3709.00,0.0027
3706.00,0.0027
3703.00,0.0027
3700.00,0.0028
3697.00,0.0027
3694.00,0.0027
3691.00,0.0028
3688.00,0.0029
3685.00,0.0027
3682.00,0.0028
3679.00,0.0029
3676.00,0.0029
3673.00,0.0029
3670.00,0.0028
3667.00,0.0029
3664.00,0.0028
3661.00,0.0029
3658.00,0.0030
3655.00,0.0031
3652.00,0.0031
3649.00,0.0031
3646.00,0.0031
3643.00,0.0030
3640.00,0.0030
3637.00,0.0030
3634.00,0.0030
3631.00,0.0031
3628.00,0.0031
3625.00,0.0031
3622.00,0.0032
3619.00,0.0033
3616.00,0.0033
3613.00,0.0032
3610.00,0.0033
3607.00,0.0033
3604.00,0.0033
3601.00,0.0033
3598.00,0.0033
3595.00,0.0033
3592.00,0.0035
3589.00,0.0035
3586.00,0.0034
3583.00,0.0036
3580.00,0.0035
3577.00,0.0035
3574.00,0.0036
3571.00,0.0037
3568.00,0.0037
3565.00,0.0037
3562.00,0.0038
3559.00,0.0039
3556.00,0.0039
3553.00,0.0040
3550.00,0.0040
3547.00,0.0041
3544.00,0.0041
3541.00,0.0042
3538.00,0.0043
3535.00,0.0044
3532.00,0.0044
3529.00,0.0044
3526.00,0.0044
3523.00,0.0045
3520.00,0.0045
3517.00,0.0046
3514.00,0.0047
3511.00,0.0047
3508.00,0.0047
3505.00,0.0047
3502.00,0.0048
3499.00,0.0049
3496.00,0.0049
3493.00,0.0050
3490.00,0.0050
3487.00,0.0051
3484.00,0.0052
3481.00,0.0052
3478.00,0.0053
3475.00,0.0053
3472.00,0.0053
3469.00,0.0054
3466.00,0.0054
3463.00,0.0055
3460.00,0.0055
3457.00,0.0055
3454.00,0.0055
3451.00,0.0056
3448.00,0.0057
3445.00,0.0057
3442.00,0.0056
3439.00,0.0057
3436.00,0.0056
3433.00,0.0057
3430.00,0.0057
3427.00,0.0057
3424.00,0.0057
3421.00,0.0057
3418.00,0.0056
3415.00,0.0057
3412.00,0.0057
3409.00,0.0057
3406.00,0.0057
3403.00,0.0058
3400.00,0.0058
3397.00,0.0058
3394.00,0.0058
3391.00,0.0058
3388.00,0.0058
3385.00,0.0058
3382.00,0.0059
3379.00,0.0059
3376.00,0.0059
3373.00,0.0058
3370.00,0.0058
3367.00,0.0058
3364.00,0.0058
3361.00,0.0059
3358.00,0.0059
3355.00,0.0059
3352.00,0.0058
3349.00,0.0058
3346.00,0.0059
3343.00,0.0059
3340.00,0.0058
3337.00,0.0058
3334.00,0.0058
3331.00,0.0059
3328.00,0.0059
3325.00,0.0058
3322.00,0.0058
3319.00,0.0059
3316.00,0.0059
3313.00,0.0059
3310.00,0.0058
3307.00,0.0058
3304.00,0.0058
3301.00,0.0058
3298.00,0.0058
3295.00,0.0057
3292.00,0.0057
3289.00,0.0057
3286.00,0.0057
3283.00,0.0057
3280.00,0.0057
3277.00,0.0057
3274.00,0.0057
3271.00,0.0056
3268.00,0.0056
3265.00,0.0056
3262.00,0.0055
3259.00,0.0056
3256.00,0.0055
3253.00,0.0055
3250.00,0.0055
3247.00,0.0054
3244.00,0.0053
3241.00,0.0053
3238.00,0.0053
3235.00,0.0052
3232.00,0.0052
3229.00,0.0052
3226.00,0.0052
3223.00,0.0051
3220.00,0.0051
3217.00,0.0051
3214.00,0.0051
3211.00,0.0052
3208.00,0.0052
3205.00,0.0052
3202.00,0.0052
3199.00,0.0051
3196.00,0.0051
3193.00,0.0050
3190.00,0.0050
3187.00,0.0049
3184.00,0.0049
3181.00,0.0049
3178.00,0.0048
3175.00,0.0048
3172.00,0.0048
3169.00,0.0049
3166.00,0.0049
3163.00,0.0049
3160.00,0.0049
3157.00,0.0047
3154.00,0.0046
3151.00,0.0046
3148.00,0.0046
3145.00,0.0045
3142.00,0.0045
3139.00,0.0045
3136.00,0.0045
3133.00,0.0045
3130.00,0.0045
3127.00,0.0045
3124.00,0.0046
3121.00,0.0047
3118.00,0.0049
3115.00,0.0052
3112.00,0.0059
3109.00,0.0069
3106.00,0.0080
3103.00,0.0084
3100.00,0.0082
3097.00,0.0079
3094.00,0.0083
3091.00,0.0098
3088.00,0.0128
3085.00,0.0165
3082.00,0.0181
3079.00,0.0164
3076.00,0.0142
3073.00,0.0135
3070.00,0.0144
3067.00,0.0171
3064.00,0.0212
3061.00,0.0243
3058.00,0.0237
3055.00,0.0201
3052.00,0.0165
3049.00,0.0141
3046.00,0.0129
3043.00,0.0131
3040.00,0.0148
3037.00,0.0180
3034.00,0.0238
3031.00,0.0327
3028.00,0.0423
3025.00,0.0458
3022.00,0.0391
3019.00,0.0278
3016.00,0.0192
3013.00,0.0145
3010.00,0.0125
3007.00,0.0124
3004.00,0.0135
3001.00,0.0141
2998.00,0.0127
2995.00,0.0105
2992.00,0.0092
2989.00,0.0088
2986.00,0.0088
2983.00,0.0090
2980.00,0.0094
2977.00,0.0100
2974.00,0.0105
2971.00,0.0112
2968.00,0.0121
2965.00,0.0133
2962.00,0.0148
2959.00,0.0162
2956.00,0.0178
2953.00,0.0195
2950.00,0.0216
2947.00,0.0244
2944.00,0.0280
2941.00,0.0327
2938.00,0.0385
2935.00,0.0452
2932.00,0.0522
2929.00,0.0586
2926.00,0.0632
2923.00,0.0654
2920.00,0.0646
2917.00,0.0612
2914.00,0.0565
2911.00,0.0516
2908.00,0.0467
2905.00,0.0418
2902.00,0.0371
2899.00,0.0327
2896.00,0.0289
2893.00,0.0261
2890.00,0.0238
2887.00,0.0220
2884.00,0.0206
2881.00,0.0193
2878.00,0.0184
2875.00,0.0178
2872.00,0.0174
2869.00,0.0174
2866.00,0.0181
2863.00,0.0199
2860.00,0.0227
2857.00,0.0259
2854.00,0.0284
2851.00,0.0294
2848.00,0.0284
2845.00,0.0251
2842.00,0.0204
2839.00,0.0157
2836.00,0.0120
2833.00,0.0097
2830.00,0.0084
2827.00,0.0077
2824.00,0.0072
2821.00,0.0069
2818.00,0.0067
2815.00,0.0065
2812.00,0.0063
2809.00,0.0062
2806.00,0.0061
2803.00,0.0059
2800.00,0.0058
2797.00,0.0056
2794.00,0.0055
2791.00,0.0054
2788.00,0.0053
2785.00,0.0052
2782.00,0.0052
2779.00,0.0051
2776.00,0.0050
2773.00,0.0049
2770.00,0.0048
2767.00,0.0047
2764.00,0.0047
2761.00,0.0046
2758.00,0.0046
2755.00,0.0046
2752.00,0.0046
2749.00,0.0045
2746.00,0.0045
2743.00,0.0045
2740.00,0.0045
2737.00,0.0045
2734.00,0.0046
2731.00,0.0046
2728.00,0.0046
2725.00,0.0046
2722.00,0.0046
2719.00,0.0046
2716.00,0.0045
2713.00,0.0045
2710.00,0.0045
2707.00,0.0045
2704.00,0.0045
2701.00,0.0044
2698.00,0.0044
2695.00,0.0045
2692.00,0.0045
2689.00,0.0045
2686.00,0.0044
2683.00,0.0044
2680.00,0.0044
2677.00,0.0044
2674.00,0.0044
2671.00,0.0044
2668.00,0.0045
2665.00,0.0046
2662.00,0.0047
2659.00,0.0047
2656.00,0.0048
2653.00,0.0048
2650.00,0.0048
2647.00,0.0048
2644.00,0.0048
2641.00,0.0047
2638.00,0.0047
2635.00,0.0048
2632.00,0.0049
2629.00,0.0048
2626.00,0.0047
2623.00,0.0045
2620.00,0.0044
2617.00,0.0043
2614.00,0.0043
2611.00,0.0043
2608.00,0.0044
2605.00,0.0044
2602.00,0.0045
2599.00,0.0044
2596.00,0.0042
2593.00,0.0040
2590.00,0.0040
2587.00,0.0041
2584.00,0.0042
2581.00,0.0041
2578.00,0.0040
2575.00,0.0040
2572.00,0.0038
2569.00,0.0037
2566.00,0.0037
2563.00,0.0037
2560.00,0.0037
2557.00,0.0036
2554.00,0.0037
2551.00,0.0037
2548.00,0.0037
2545.00,0.0036
2542.00,0.0035
2539.00,0.0035
2536.00,0.0035
2533.00,0.0036
2530.00,0.0036
2527.00,0.0035
2524.00,0.0035
2521.00,0.0035
2518.00,0.0035
2515.00,0.0034
2512.00,0.0036
2509.00,0.0035
2506.00,0.0035
2503.00,0.0035
2500.00,0.0034
2497.00,0.0035
2494.00,0.0035
2491.00,0.0034
2488.00,0.0033
2485.00,0.0032
2482.00,0.0033
2479.00,0.0033
2476.00,0.0032
2473.00,0.0031
2470.00,0.0030
2467.00,0.0030
2464.00,0.0030
2461.00,0.0030
2458.00,0.0031
2455.00,0.0031
2452.00,0.0031
2449.00,0.0030
2446.00,0.0029
2443.00,0.0029
2440.00,0.0029
2437.00,0.0028
2434.00,0.0027
2431.00,0.0028
2428.00,0.0028
2425.00,0.0027
2422.00,0.0027
2419.00,0.0026
2416.00,0.0026
2413.00,0.0026
2410.00,0.0026
2407.00,0.0026
2404.00,0.0026
2401.00,0.0026
2398.00,0.0026
2395.00,0.0026
2392.00,0.0026
2389.00,0.0025
2386.00,0.0025
2383.00,0.0025
2380.00,0.0026
2377.00,0.0027
2374.00,0.0027
2371.00,0.0026
2368.00,0.0026
2365.00,0.0028
2362.00,0.0030
2359.00,0.0031
2356.00,0.0031
2353.00,0.0031
2350.00,0.0032
2347.00,0.0033
2344.00,0.0035
2341.00,0.0035
2338.00,0.0036
2335.00,0.0036
2332.00,0.0035
2329.00,0.0036
2326.00,0.0045
2323.00,0.0045
2320.00,0.0041
2317.00,0.0040
2314.00,0.0040
2311.00,0.0040
2308.00,0.0037
2305.00,0.0036
2302.00,0.0035
2299.00,0.0034
2296.00,0.0036
2293.00,0.0036
2290.00,0.0038
2287.00,0.0039
2284.00,0.0036
2281.00,0.0033
2278.00,0.0033
2275.00,0.0033
2272.00,0.0031
2269.00,0.0031
2266.00,0.0030
2263.00,0.0030
2260.00,0.0031
2257.00,0.0029
2254.00,0.0027
2251.00,0.0029
2248.00,0.0029
2245.00,0.0028
2242.00,0.0027
2239.00,0.0027
2236.00,0.0027
2233.00,0.0027
2230.00,0.0027
2227.00,0.0025
2224.00,0.0025
2221.00,0.0025
2218.00,0.0024
2215.00,0.0024
2212.00,0.0024
2209.00,0.0024
2206.00,0.0024
2203.00,0.0024
2200.00,0.0026
2197.00,0.0026
2194.00,0.0024
2191.00,0.0025
2188.00,0.0027
2185.00,0.0026
2182.00,0.0021
2179.00,0.0021
2176.00,0.0016
2173.00,0.0016
2170.00,0.0026
2167.00,0.0032
2164.00,0.0036
2161.00,0.0021
2158.00,-0.0011
2155.00,-0.0004
2152.00,0.0002
2149.00,0.0002
2146.00,0.0004
2143.00,0.0004
2140.00,0.0005
2137.00,0.0002
2134.00,-0.0001
2131.00,0.0004
2128.00,0.0006
2125.00,0.0010
2122.00,0.0013
2119.00,0.0017
2116.00,0.0020
2113.00,0.0020
2110.00,0.0019
2107.00,0.0020
2104.00,0.0021
2101.00,0.0021
2098.00,0.0019
2095.00,0.0013
2092.00,0.0016
2089.00,0.0019
2086.00,0.0021
2083.00,0.0022
2080.00,0.0022
2077.00,0.0021
2074.00,0.0020
2071.00,0.0019
2068.00,0.0019
2065.00,0.0018
2062.00,0.0018
2059.00,0.0015
2056.00,0.0014
2053.00,0.0021
2050.00,0.0022
2047.00,0.0015
2044.00,0.0015
2041.00,0.0016
2038.00,0.0019
2035.00,0.0016
2032.00,0.0010
2029.00,0.0009
2026.00,0.0009
2023.00,0.0010
2020.00,0.0012
2017.00,0.0011
2014.00,0.0010
2011.00,0.0011
2008.00,0.0007
2005.00,0.0008
2002.00,0.0011
1999.00,0.0013
1996.00,0.0020
1993.00,0.0021
1990.00,0.0021
1987.00,0.0025
1984.00,0.0031
1981.00,0.0037
1978.00,0.0024
1975.00,0.0017
1972.00,0.0019
1969.00,0.0024
1966.00,0.0032
1963.00,0.0037
1960.00,0.0038
1957.00,0.0043
1954.00,0.0048
1951.00,0.0055
1948.00,0.0063
1945.00,0.0069
1942.00,0.0069
1939.00,0.0066
1936.00,0.0054
1933.00,0.0043
1930.00,0.0036
1927.00,0.0032
1924.00,0.0029
1921.00,0.0027
1918.00,0.0023
1915.00,0.0023
1912.00,0.0023
1909.00,0.0023
1906.00,0.0024
1903.00,0.0026
1900.00,0.0029
1897.00,0.0033
1894.00,0.0038
1891.00,0.0043
1888.00,0.0047
1885.00,0.0052
1882.00,0.0056
1879.00,0.0059
1876.00,0.0063
1873.00,0.0065
1870.00,0.0065
1867.00,0.0063
1864.00,0.0059
1861.00,0.0051
1858.00,0.0042
1855.00,0.0037
1852.00,0.0033
1849.00,0.0030
1846.00,0.0028
1843.00,0.0026
1840.00,0.0027
1837.00,0.0027
1834.00,0.0029
1831.00,0.0031
1828.00,0.0035
1825.00,0.0039
1822.00,0.0044
1819.00,0.0047
1816.00,0.0052
1813.00,0.0059
1810.00,0.0066
1807.00,0.0073
1804.00,0.0077
1801.00,0.0077
1798.00,0.0074
1795.00,0.0068
1792.00,0.0059
1789.00,0.0052
1786.00,0.0050
1783.00,0.0049
1780.00,0.0049
1777.00,0.0052
1774.00,0.0054
1771.00,0.0056
1768.00,0.0057
1765.00,0.0062
1762.00,0.0072
1759.00,0.0085
1756.00,0.0104
1753.00,0.0125
1750.00,0.0152
1747.00,0.0178
1744.00,0.0197
1741.00,0.0211
1738.00,0.0216
1735.00,0.0213
1732.00,0.0202
1729.00,0.0184
1726.00,0.0165
1723.00,0.0146
1720.00,0.0131
1717.00,0.0117
1714.00,0.0109
1711.00,0.0104
1708.00,0.0100
1705.00,0.0096
1702.00,0.0095
1699.00,0.0093
1696.00,0.0092
1693.00,0.0091
1690.00,0.0091
1687.00,0.0093
1684.00,0.0098
1681.00,0.0100
1678.00,0.0102
1675.00,0.0105
1672.00,0.0106
1669.00,0.0107
1666.00,0.0107
1663.00,0.0105
1660.00,0.0101
1657.00,0.0097
1654.00,0.0094
1651.00,0.0091
1648.00,0.0085
1645.00,0.0082
1642.00,0.0078
1639.00,0.0075
1636.00,0.0073
1633.00,0.0072
1630.00,0.0071
1627.00,0.0072
1624.00,0.0073
1621.00,0.0075
1618.00,0.0080
1615.00,0.0090
1612.00,0.0105
1609.00,0.0153
1606.00,0.0263
1603.00,0.0406
1600.00,0.0435
1597.00,0.0314
1594.00,0.0209
1591.00,0.0159
1588.00,0.0148
1585.00,0.0186
1582.00,0.0196
1579.00,0.0144
1576.00,0.0109
1573.00,0.0093
1570.00,0.0083
1567.00,0.0079
1564.00,0.0077
1561.00,0.0078
1558.00,0.0079
1555.00,0.0080
1552.00,0.0083
1549.00,0.0088
1546.00,0.0094
1543.00,0.0097
1540.00,0.0097
1537.00,0.0092
1534.00,0.0083
1531.00,0.0075
1528.00,0.0071
1525.00,0.0067
1522.00,0.0066
1519.00,0.0067
1516.00,0.0067
1513.00,0.0071
1510.00,0.0075
1507.00,0.0084
1504.00,0.0110
1501.00,0.0155
1498.00,0.0328
1495.00,0.0844
1492.00,0.1069
1489.00,0.0632
1486.00,0.0335
1483.00,0.0212
1480.00,0.0156
1477.00,0.0135
1474.00,0.0129
1471.00,0.0140
1468.00,0.0153
1465.00,0.0167
1462.00,0.0189
1459.00,0.0254
1456.00,0.0651
1453.00,0.1073
1450.00,0.1046
1447.00,0.0793
1444.00,0.0623
1441.00,0.0483
1438.00,0.0379
1435.00,0.0275
1432.00,0.0212
1429.00,0.0169
1426.00,0.0148
1423.00,0.0135
1420.00,0.0129
1417.00,0.0124
1414.00,0.0123
1411.00,0.0120
1408.00,0.0118
1405.00,0.0116
1402.00,0.0116
1399.00,0.0118
1396.00,0.0123
1393.00,0.0136
1390.00,0.0155
1387.00,0.0179
1384.00,0.0205
1381.00,0.0226
1378.00,0.0244
1375.00,0.0257
1372.00,0.0261
1369.00,0.0257
1366.00,0.0250
1363.00,0.0242
1360.00,0.0233
1357.00,0.0224
1354.00,0.0219
1351.00,0.0218
1348.00,0.0214
1345.00,0.0207
1342.00,0.0196
1339.00,0.0187
1336.00,0.0190
1333.00,0.0203
1330.00,0.0216
1327.00,0.0219
1324.00,0.0212
1321.00,0.0206
1318.00,0.0206
1315.00,0.0211
1312.00,0.0215
1309.00,0.0211
1306.00,0.0202
1303.00,0.0194
1300.00,0.0186
1297.00,0.0182
1294.00,0.0180
1291.00,0.0177
1288.00,0.0172
1285.00,0.0171
1282.00,0.0171
1279.00,0.0169
1276.00,0.0163
1273.00,0.0157
1270.00,0.0153
1267.00,0.0151
1264.00,0.0152
1261.00,0.0151
1258.00,0.0150
1255.00,0.0150
1252.00,0.0151
1249.00,0.0152
1246.00,0.0152
1243.00,0.0151
1240.00,0.0148
1237.00,0.0146
1234.00,0.0144
1231.00,0.0143
1228.00,0.0143
1225.00,0.0143
1222.00,0.0141
1219.00,0.0140
1216.00,0.0141
1213.00,0.0144
1210.00,0.0149
1207.00,0.0157
1204.00,0.0168
1201.00,0.0181
1198.00,0.0192
1195.00,0.0196
1192.00,0.0198
1189.00,0.0206
1186.00,0.0227
1183.00,0.0264
1180.00,0.0274
1177.00,0.0240
1174.00,0.0210
1171.00,0.0199
1168.00,0.0195
1165.00,0.0193
1162.00,0.0200
1159.00,0.0225
1156.00,0.0264
1153.00,0.0261
1150.00,0.0212
1147.00,0.0173
1144.00,0.0153
1141.00,0.0139
1138.00,0.0131
1135.00,0.0127
1132.00,0.0126
1129.00,0.0127
1126.00,0.0130
1123.00,0.0137
1120.00,0.0145
1117.00,0.0156
1114.00,0.0164
1111.00,0.0165
1108.00,0.0162
1105.00,0.0159
1102.00,0.0160
1099.00,0.0163
1096.00,0.0167
1093.00,0.0171
1090.00,0.0175
1087.00,0.0184
1084.00,0.0199
1081.00,0.0217
1078.00,0.0237
1075.00,0.0268
1072.00,0.0306
1069.00,0.0328
1066.00,0.0314
1063.00,0.0281
1060.00,0.0248
1057.00,0.0223
1054.00,0.0204
1051.00,0.0189
1048.00,0.0177
1045.00,0.0169
1042.00,0.0168
1039.00,0.0180
1036.00,0.0236
1033.00,0.0367
1030.00,0.0506
1027.00,0.0534
1024.00,0.0434
1021.00,0.0340
1018.00,0.0282
1015.00,0.0244
1012.00,0.0220
1009.00,0.0206
1006.00,0.0215
1003.00,0.0225
1000.00,0.0195
997.00,0.0165
994.00,0.0158
991.00,0.0160
988.00,0.0168
985.00,0.0182
982.00,0.0196
979.00,0.0199
976.00,0.0189
973.00,0.0180
970.00,0.0188
967.00,0.0209
964.00,0.0219
961.00,0.0202
958.00,0.0175
955.00,0.0159
952.00,0.0156
949.00,0.0161
946.00,0.0170
943.00,0.0175
940.00,0.0169
937.00,0.0154
934.00,0.0137
931.00,0.0126
928.00,0.0123
925.00,0.0126
922.00,0.0132
919.00,0.0146
916.00,0.0177
913.00,0.0233
910.00,0.0305
907.00,0.0351
904.00,0.0330
901.00,0.0256
898.00,0.0183
895.00,0.0143
892.00,0.0123
889.00,0.0113
886.00,0.0106
883.00,0.0100
880.00,0.0098
877.00,0.0095
874.00,0.0092
871.00,0.0089
868.00,0.0087
865.00,0.0086
862.00,0.0086
859.00,0.0087
856.00,0.0090
853.00,0.0097
850.00,0.0116
847.00,0.0146
844.00,0.0172
841.00,0.0179
838.00,0.0160
835.00,0.0127
832.00,0.0101
829.00,0.0089
826.00,0.0086
823.00,0.0085
820.00,0.0085
817.00,0.0086
814.00,0.0087
811.00,0.0090
808.00,0.0093
805.00,0.0094
802.00,0.0098
799.00,0.0108
796.00,0.0122
793.00,0.0141
790.00,0.0167
787.00,0.0198
784.00,0.0236
781.00,0.0288
778.00,0.0366
775.00,0.0479
772.00,0.0629
769.00,0.0811
766.00,0.0998
763.00,0.1182
760.00,0.1379
757.00,0.1536
754.00,0.1578
751.00,0.1554
748.00,0.1530
745.00,0.1384
742.00,0.1076
739.00,0.0783
736.00,0.0557
733.00,0.0373
730.00,0.0254
727.00,0.0198
724.00,0.0176
721.00,0.0172
718.00,0.0179
715.00,0.0213
712.00,0.0315
709.00,0.0579
706.00,0.1130
703.00,0.2034
700.00,0.3324
697.00,0.4921
694.00,0.5366
691.00,0.3528
688.00,0.2074
685.00,0.1395
682.00,0.1053
679.00,0.0852
676.00,0.0726
673.00,0.0642
670.00,0.0581
667.00,0.0513
664.00,0.0460
661.00,0.0407
658.00,0.0357
655.00,0.0318
652.00,0.0287
649.00,0.0265
646.00,0.0246
643.00,0.0232
640.00,0.0231
637.00,0.0243
634.00,0.0260
631.00,0.0278
628.00,0.0293
625.00,0.0301
622.00,0.0318
619.00,0.0314
616.00,0.0285
613.00,0.0269
610.00,0.0260
607.00,0.0250
604.00,0.0249
601.00,0.0255
598.00,0.0261
595.00,0.0270
592.00,0.0281
589.00,0.0292
586.00,0.0305
583.00,0.0328
580.00,0.0361
577.00,0.0405
574.00,0.0464
571.00,0.0524
568.00,0.0582
565.00,0.0643
562.00,0.0699
559.00,0.0759
556.00,0.0819
553.00,0.0890
550.00,0.0973
547.00,0.1088
544.00,0.1239
541.00,0.1389
538.00,0.1457
535.00,0.1371
532.00,0.1157
529.00,0.0930
526.00,0.0745
523.00,0.0612
520.00,0.0528
517.00,0.0470
514.00,0.0431
511.00,0.0393
508.00,0.0358
505.00,0.0324
502.00,0.0296
499.00,0.0274
496.00,0.0262
493.00,0.0250
490.00,0.0239
487.00,0.0230
484.00,0.0226
481.00,0.0220
478.00,0.0212
475.00,0.0207
472.00,0.0202
469.00,0.0195
466.00,0.0196
463.00,0.0187
460.00,0.0177
457.00,0.0181
454.00,0.0179
451.00,0.0178
448.00,0.0180
445.00,0.0177
442.00,0.0164
439.00,0.0163
436.00,0.0165
433.00,0.0156
430.00,0.0156
427.00,0.0162
424.00,0.0155
421.00,0.0171
418.00,0.0174
415.00,0.0159
412.00,0.0154
409.00,0.0163
406.00,0.0169
403.00,0.0176
400.00,0.0156