File: FTIR/Mary/2025_12_04_Polystyrene_Standard_Scan1.csv
Created as New Dataset,Sample 391 By YargerLab Date Tuesday, December 02 2025
cm-1,A
4000.00,0.0005
3997.00,0.0005
3994.00,0.0004
3991.00,0.0004
3988.00,0.0005
3985.00,0.0004
3982.00,0.0004
3979.00,0.0005
3976.00,0.0005
3973.00,0.0005
3970.00,0.0004
3967.00,0.0004
3964.00,0.0004
3961.00,0.0005
3958.00,0.0004
3955.00,0.0005
3952.00,0.0005
3949.00,0.0005
3946.00,0.0005
3943.00,0.0005
3940.00,0.0005
3937.00,0.0005
3934.00,0.0005
3931.00,0.0004
3928.00,0.0004
3925.00,0.0005
3922.00,0.0005
3919.00,0.0005
3916.00,0.0005
3913.00,0.0005
3910.00,0.0004
3907.00,0.0005
3904.00,0.0005
3901.00,0.0006
3898.00,0.0006
3895.00,0.0005
3892.00,0.0005
3889.00,0.0005
3886.00,0.0005
3883.00,0.0005
3880.00,0.0005
3877.00,0.0005
3874.00,0.0004
3871.00,0.0005
3868.00,0.0005
3865.00,0.0006
3862.00,0.0005
3859.00,0.0005
3856.00,0.0006
3853.00,0.0007
3850.00,0.0007
3847.00,0.0005
3844.00,0.0005
3841.00,0.0005
3838.00,0.0005
3835.00,0.0006
3832.00,0.0005
3829.00,0.0005
3826.00,0.0005
3823.00,0.0005
3820.00,0.0006
3817.00,0.0006
3814.00,0.0006
3811.00,0.0005
3808.00,0.0005
3805.00,0.0006
3802.00,0.0006
3799.00,0.0006
3796.00,0.0006
3793.00,0.0005
3790.00,0.0005
3787.00,0.0005
3784.00,0.0005
3781.00,0.0005
3778.00,0.0005
3775.00,0.0005
3772.00,0.0005
3769.00,0.0005
3766.00,0.0005
3763.00,0.0005
3760.00,0.0005
3757.00,0.0005
3754.00,0.0006
3751.00,0.0007
3748.00,0.0007
3745.00,0.0007
3742.00,0.0007
3739.00,0.0006
3736.00,0.0005
3733.00,0.0005
3730.00,0.0005
3727.00,0.0005
3724.00,0.0005
3721.00,0.0005
3718.00,0.0005
3715.00,0.0005
3712.00,0.0006
3709.00,0.0005
3706.00,0.0005
3703.00,0.0005
3700.00,0.0005
3697.00,0.0005
3694.00,0.0005
3691.00,0.0006
3688.00,0.0005
3685.00,0.0005
3682.00,0.0004
3679.00,0.0005
3676.00,0.0006
3673.00,0.0006
3670.00,0.0005
3667.00,0.0005
3664.00,0.0005
3661.00,0.0005
3658.00,0.0005
3655.00,0.0006
3652.00,0.0007
3649.00,0.0007
3646.00,0.0007
3643.00,0.0006
3640.00,0.0006
3637.00,0.0005
3634.00,0.0005
3631.00,0.0006
3628.00,0.0006
3625.00,0.0007
3622.00,0.0007
3619.00,0.0006
3616.00,0.0007
3613.00,0.0007
3610.00,0.0007
3607.00,0.0008
3604.00,0.0008
3601.00,0.0008
3598.00,0.0008
3595.00,0.0007
3592.00,0.0007
3589.00,0.0008
3586.00,0.0008
3583.00,0.0008
3580.00,0.0008
3577.00,0.0008
3574.00,0.0009
3571.00,0.0009
3568.00,0.0009
3565.00,0.0010
3562.00,0.0010
3559.00,0.0010
3556.00,0.0010
3553.00,0.0010
3550.00,0.0011
3547.00,0.0012
3544.00,0.0012
3541.00,0.0013
3538.00,0.0012
3535.00,0.0012
3532.00,0.0013
3529.00,0.0013
3526.00,0.0013
3523.00,0.0013
3520.00,0.0013
3517.00,0.0014
3514.00,0.0014
3511.00,0.0014
3508.00,0.0015
3505.00,0.0015
3502.00,0.0015
3499.00,0.0016
3496.00,0.0016
3493.00,0.0016
3490.00,0.0017
3487.00,0.0017
3484.00,0.0017
3481.00,0.0017
3478.00,0.0017
3475.00,0.0017
3472.00,0.0018
3469.00,0.0018
3466.00,0.0018
3463.00,0.0019
3460.00,0.0019
3457.00,0.0019
3454.00,0.0020
3451.00,0.0019
3448.00,0.0019
3445.00,0.0020
3442.00,0.0020
3439.00,0.0020
3436.00,0.0020
3433.00,0.0020
3430.00,0.0021
3427.00,0.0021
3424.00,0.0021
3421.00,0.0021
3418.00,0.0022
3415.00,0.0022
3412.00,0.0022
3409.00,0.0022
3406.00,0.0022
3403.00,0.0022
3400.00,0.0022
3397.00,0.0023
3394.00,0.0023
3391.00,0.0023
3388.00,0.0023
3385.00,0.0023
3382.00,0.0023
3379.00,0.0024
3376.00,0.0024
3373.00,0.0025
3370.00,0.0025
3367.00,0.0025
3364.00,0.0025
3361.00,0.0025
3358.00,0.0025
3355.00,0.0026
3352.00,0.0026
3349.00,0.0026
3346.00,0.0026
3343.00,0.0027
3340.00,0.0026
3337.00,0.0027
3334.00,0.0027
3331.00,0.0027
3328.00,0.0027
3325.00,0.0027
3322.00,0.0027
3319.00,0.0028
3316.00,0.0028
3313.00,0.0028
3310.00,0.0029
3307.00,0.0028
3304.00,0.0029
3301.00,0.0029
3298.00,0.0029
3295.00,0.0029
3292.00,0.0030
3289.00,0.0030
3286.00,0.0029
3283.00,0.0029
3280.00,0.0029
3277.00,0.0028
3274.00,0.0028
3271.00,0.0029
3268.00,0.0029
3265.00,0.0028
3262.00,0.0028
3259.00,0.0027
3256.00,0.0027
3253.00,0.0026
3250.00,0.0026
3247.00,0.0027
3244.00,0.0026
3241.00,0.0026
3238.00,0.0026
3235.00,0.0025
3232.00,0.0025
3229.00,0.0025
3226.00,0.0025
3223.00,0.0025
3220.00,0.0024
3217.00,0.0024
3214.00,0.0024
3211.00,0.0024
3208.00,0.0024
3205.00,0.0024
3202.00,0.0024
3199.00,0.0025
3196.00,0.0024
3193.00,0.0023
3190.00,0.0023
3187.00,0.0023
3184.00,0.0022
3181.00,0.0022
3178.00,0.0022
3175.00,0.0022
3172.00,0.0022
3169.00,0.0022
3166.00,0.0022
3163.00,0.0022
3160.00,0.0022
3157.00,0.0022
3154.00,0.0021
3151.00,0.0021
3148.00,0.0021
3145.00,0.0020
3142.00,0.0020
3139.00,0.0020
3136.00,0.0021
3133.00,0.0020
3130.00,0.0020
3127.00,0.0020
3124.00,0.0020
3121.00,0.0020
3118.00,0.0021
3115.00,0.0022
3112.00,0.0023
3109.00,0.0025
3106.00,0.0028
3103.00,0.0030
3100.00,0.0029
3097.00,0.0029
3094.00,0.0029
3091.00,0.0033
3088.00,0.0039
3085.00,0.0049
3082.00,0.0054
3079.00,0.0051
3076.00,0.0045
3073.00,0.0043
3070.00,0.0045
3067.00,0.0050
3064.00,0.0059
3061.00,0.0067
3058.00,0.0068
3055.00,0.0061
3052.00,0.0051
3049.00,0.0044
3046.00,0.0041
3043.00,0.0042
3040.00,0.0046
3037.00,0.0053
3034.00,0.0066
3031.00,0.0085
3028.00,0.0108
3025.00,0.0119
3022.00,0.0107
3019.00,0.0080
3016.00,0.0058
3013.00,0.0045
3010.00,0.0039
3007.00,0.0039
3004.00,0.0041
3001.00,0.0042
2998.00,0.0040
2995.00,0.0034
2992.00,0.0031
2989.00,0.0029
2986.00,0.0029
2983.00,0.0030
2980.00,0.0032
2977.00,0.0033
2974.00,0.0036
2971.00,0.0038
2968.00,0.0041
2965.00,0.0045
2962.00,0.0049
2959.00,0.0053
2956.00,0.0058
2953.00,0.0062
2950.00,0.0067
2947.00,0.0074
2944.00,0.0084
2941.00,0.0096
2938.00,0.0110
2935.00,0.0126
2932.00,0.0144
2929.00,0.0161
2926.00,0.0174
2923.00,0.0182
2920.00,0.0183
2917.00,0.0176
2914.00,0.0163
2911.00,0.0148
2908.00,0.0134
2905.00,0.0121
2902.00,0.0109
2899.00,0.0097
2896.00,0.0087
2893.00,0.0079
2890.00,0.0072
2887.00,0.0067
2884.00,0.0063
2881.00,0.0060
2878.00,0.0057
2875.00,0.0055
2872.00,0.0055
2869.00,0.0054
2866.00,0.0056
2863.00,0.0061
2860.00,0.0068
2857.00,0.0078
2854.00,0.0088
2851.00,0.0093
2848.00,0.0089
2845.00,0.0077
2842.00,0.0062
2839.00,0.0049
2836.00,0.0038
2833.00,0.0031
2830.00,0.0027
2827.00,0.0025
2824.00,0.0023
2821.00,0.0022
2818.00,0.0022
2815.00,0.0021
2812.00,0.0020
2809.00,0.0020
2806.00,0.0020
2803.00,0.0019
2800.00,0.0019
2797.00,0.0018
2794.00,0.0018
2791.00,0.0017
2788.00,0.0017
2785.00,0.0016
2782.00,0.0016
2779.00,0.0017
2776.00,0.0016
2773.00,0.0016
2770.00,0.0015
2767.00,0.0015
2764.00,0.0015
2761.00,0.0015
2758.00,0.0014
2755.00,0.0015
2752.00,0.0014
2749.00,0.0014
2746.00,0.0014
2743.00,0.0014
2740.00,0.0014
2737.00,0.0014
2734.00,0.0014
2731.00,0.0014
2728.00,0.0014
2725.00,0.0014
2722.00,0.0014
2719.00,0.0014
2716.00,0.0014
2713.00,0.0014
2710.00,0.0014
2707.00,0.0014
2704.00,0.0014
2701.00,0.0014
2698.00,0.0014
2695.00,0.0014
2692.00,0.0014
2689.00,0.0014
2686.00,0.0014
2683.00,0.0014
2680.00,0.0014
2677.00,0.0014
2674.00,0.0014
2671.00,0.0014
2668.00,0.0014
2665.00,0.0014
2662.00,0.0015
2659.00,0.0016
2656.00,0.0017
2653.00,0.0017
2650.00,0.0017
2647.00,0.0017
2644.00,0.0017
2641.00,0.0017
2638.00,0.0017
2635.00,0.0017
2632.00,0.0017
2629.00,0.0017
2626.00,0.0016
2623.00,0.0016
2620.00,0.0015
2617.00,0.0015
2614.00,0.0015
2611.00,0.0014
2608.00,0.0015
2605.00,0.0015
2602.00,0.0015
2599.00,0.0015
2596.00,0.0014
2593.00,0.0013
2590.00,0.0014
2587.00,0.0014
2584.00,0.0013
2581.00,0.0013
2578.00,0.0012
2575.00,0.0012
2572.00,0.0013
2569.00,0.0012
2566.00,0.0012
2563.00,0.0011
2560.00,0.0011
2557.00,0.0011
2554.00,0.0010
2551.00,0.0011
2548.00,0.0011
2545.00,0.0010
2542.00,0.0011
2539.00,0.0010
2536.00,0.0010
2533.00,0.0010
2530.00,0.0010
2527.00,0.0010
2524.00,0.0010
2521.00,0.0010
2518.00,0.0010
2515.00,0.0010
2512.00,0.0009
2509.00,0.0010
2506.00,0.0010
2503.00,0.0010
2500.00,0.0009
2497.00,0.0009
2494.00,0.0010
2491.00,0.0009
2488.00,0.0009
2485.00,0.0009
2482.00,0.0008
2479.00,0.0008
2476.00,0.0007
2473.00,0.0008
2470.00,0.0008
2467.00,0.0009
2464.00,0.0009
2461.00,0.0009
2458.00,0.0010
2455.00,0.0010
2452.00,0.0009
2449.00,0.0009
2446.00,0.0008
2443.00,0.0008
2440.00,0.0008
2437.00,0.0008
2434.00,0.0007
2431.00,0.0007
2428.00,0.0007
2425.00,0.0006
2422.00,0.0007
2419.00,0.0006
2416.00,0.0006
2413.00,0.0007
2410.00,0.0007
2407.00,0.0005
2404.00,0.0004
2401.00,0.0005
2398.00,0.0004
2395.00,0.0005
2392.00,0.0004
2389.00,0.0004
2386.00,0.0004
2383.00,0.0004
2380.00,0.0004
2377.00,0.0005
2374.00,0.0005
2371.00,0.0003
2368.00,0.0003
2365.00,0.0004
2362.00,0.0006
2359.00,0.0006
2356.00,0.0006
2353.00,0.0006
2350.00,0.0006
2347.00,0.0008
2344.00,0.0010
2341.00,0.0010
2338.00,0.0010
2335.00,0.0009
2332.00,0.0009
2329.00,0.0010
2326.00,0.0016
2323.00,0.0016
2320.00,0.0014
2317.00,0.0012
2314.00,0.0011
2311.00,0.0011
2308.00,0.0010
2305.00,0.0010
2302.00,0.0009
2299.00,0.0009
2296.00,0.0011
2293.00,0.0013
2290.00,0.0014
2287.00,0.0015
2284.00,0.0014
2281.00,0.0011
2278.00,0.0011
2275.00,0.0011
2272.00,0.0010
2269.00,0.0010
2266.00,0.0009
2263.00,0.0008
2260.00,0.0010
2257.00,0.0010
2254.00,0.0007
2251.00,0.0007
2248.00,0.0006
2245.00,0.0008
2242.00,0.0009
2239.00,0.0007
2236.00,0.0007
2233.00,0.0008
2230.00,0.0007
2227.00,0.0007
2224.00,0.0008
2221.00,0.0009
2218.00,0.0008
2215.00,0.0007
2212.00,0.0007
2209.00,0.0008
2206.00,0.0007
2203.00,0.0007
2200.00,0.0008
2197.00,0.0007
2194.00,0.0008
2191.00,0.0010
2188.00,0.0009
2185.00,0.0009
2182.00,0.0005
2179.00,0.0003
2176.00,0.0002
2173.00,0.0006
2170.00,0.0011
2167.00,0.0014
2164.00,0.0015
2161.00,0.0004
2158.00,-0.0016
2155.00,-0.0011
2152.00,-0.0007
2149.00,-0.0006
2146.00,-0.0006
2143.00,-0.0004
2140.00,-0.0004
2137.00,-0.0006
2134.00,-0.0010
2131.00,-0.0009
2128.00,-0.0005
2125.00,-0.0002
2122.00,-0.0001
2119.00,0.0002
2116.00,0.0006
2113.00,0.0006
2110.00,0.0004
2107.00,0.0004
2104.00,0.0004
2101.00,0.0006
2098.00,0.0004
2095.00,0.0002
2092.00,0.0001
2089.00,0.0003
2086.00,0.0005
2083.00,0.0007
2080.00,0.0006
2077.00,0.0007
2074.00,0.0007
2071.00,0.0007
2068.00,0.0004
2065.00,0.0003
2062.00,0.0004
2059.00,0.0003
2056.00,0.0005
2053.00,0.0009
2050.00,0.0010
2047.00,0.0007
2044.00,0.0010
2041.00,0.0008
2038.00,0.0006
2035.00,0.0002
2032.00,-0.0002
2029.00,0.0003
2026.00,-0.0001
2023.00,0.0001
2020.00,0.0003
2017.00,0.0003
2014.00,0.0005
2011.00,0.0003
2008.00,0.0000
2005.00,-0.0004
2002.00,-0.0001
1999.00,0.0001
1996.00,0.0002
1993.00,0.0004
1990.00,0.0006
1987.00,0.0007
1984.00,0.0010
1981.00,0.0018
1978.00,0.0007
1975.00,-0.0002
1972.00,-0.0001
1969.00,0.0001
1966.00,0.0000
1963.00,0.0003
1960.00,0.0001
1957.00,0.0001
1954.00,0.0005
1951.00,0.0009
1948.00,0.0012
1945.00,0.0013
1942.00,0.0012
1939.00,0.0011
1936.00,0.0010
1933.00,0.0006
1930.00,0.0003
1927.00,0.0002
1924.00,0.0002
1921.00,0.0004
1918.00,0.0003
1915.00,0.0002
1912.00,0.0003
1909.00,0.0003
1906.00,0.0004
1903.00,0.0003
1900.00,0.0003
1897.00,0.0005
1894.00,0.0007
1891.00,0.0007
1888.00,0.0009
1885.00,0.0010
1882.00,0.0012
1879.00,0.0013
1876.00,0.0013
1873.00,0.0015
1870.00,0.0014
1867.00,0.0013
1864.00,0.0012
1861.00,0.0011
1858.00,0.0009
1855.00,0.0007
1852.00,0.0006
1849.00,0.0004
1846.00,0.0003
1843.00,0.0004
1840.00,0.0004
1837.00,0.0004
1834.00,0.0005
1831.00,0.0005
1828.00,0.0007
1825.00,0.0008
1822.00,0.0010
1819.00,0.0010
1816.00,0.0011
1813.00,0.0013
1810.00,0.0016
1807.00,0.0017
1804.00,0.0019
1801.00,0.0020
1798.00,0.0019
1795.00,0.0018
1792.00,0.0016
1789.00,0.0014
1786.00,0.0014
1783.00,0.0015
1780.00,0.0015
1777.00,0.0015
1774.00,0.0016
1771.00,0.0018
1768.00,0.0019
1765.00,0.0021
1762.00,0.0023
1759.00,0.0027
1756.00,0.0033
1753.00,0.0039
1750.00,0.0047
1747.00,0.0054
1744.00,0.0060
1741.00,0.0062
1738.00,0.0062
1735.00,0.0061
1732.00,0.0056
1729.00,0.0054
1726.00,0.0050
1723.00,0.0048
1720.00,0.0045
1717.00,0.0042
1714.00,0.0041
1711.00,0.0041
1708.00,0.0041
1705.00,0.0041
1702.00,0.0042
1699.00,0.0043
1696.00,0.0044
1693.00,0.0048
1690.00,0.0052
1687.00,0.0055
1684.00,0.0058
1681.00,0.0062
1678.00,0.0065
1675.00,0.0067
1672.00,0.0069
1669.00,0.0070
1666.00,0.0072
1663.00,0.0073
1660.00,0.0074
1657.00,0.0075
1654.00,0.0073
1651.00,0.0070
1648.00,0.0069
1645.00,0.0066
1642.00,0.0066
1639.00,0.0064
1636.00,0.0061
1633.00,0.0059
1630.00,0.0058
1627.00,0.0057
1624.00,0.0055
1621.00,0.0054
1618.00,0.0053
1615.00,0.0053
1612.00,0.0056
1609.00,0.0067
1606.00,0.0092
1603.00,0.0127
1600.00,0.0137
1597.00,0.0108
1594.00,0.0081
1591.00,0.0067
1588.00,0.0063
1585.00,0.0071
1582.00,0.0075
1579.00,0.0061
1576.00,0.0051
1573.00,0.0048
1570.00,0.0047
1567.00,0.0046
1564.00,0.0047
1561.00,0.0048
1558.00,0.0049
1555.00,0.0051
1552.00,0.0054
1549.00,0.0056
1546.00,0.0057
1543.00,0.0057
1540.00,0.0054
1537.00,0.0052
1534.00,0.0051
1531.00,0.0049
1528.00,0.0047
1525.00,0.0046
1522.00,0.0044
1519.00,0.0044
1516.00,0.0044
1513.00,0.0043
1510.00,0.0044
1507.00,0.0044
1504.00,0.0047
1501.00,0.0060
1498.00,0.0100
1495.00,0.0216
1492.00,0.0287
1489.00,0.0190
1486.00,0.0108
1483.00,0.0073
1480.00,0.0057
1477.00,0.0052
1474.00,0.0052
1471.00,0.0056
1468.00,0.0061
1465.00,0.0066
1462.00,0.0072
1459.00,0.0089
1456.00,0.0171
1453.00,0.0278
1450.00,0.0285
1447.00,0.0225
1444.00,0.0184
1441.00,0.0149
1438.00,0.0124
1435.00,0.0097
1432.00,0.0080
1429.00,0.0069
1426.00,0.0064
1423.00,0.0062
1420.00,0.0061
1417.00,0.0061
1414.00,0.0060
1411.00,0.0059
1408.00,0.0059
1405.00,0.0059
1402.00,0.0059
1399.00,0.0060
1396.00,0.0061
1393.00,0.0064
1390.00,0.0068
1387.00,0.0074
1384.00,0.0079
1381.00,0.0084
1378.00,0.0089
1375.00,0.0093
1372.00,0.0093
1369.00,0.0092
1366.00,0.0091
1363.00,0.0089
1360.00,0.0087
1357.00,0.0084
1354.00,0.0082
1351.00,0.0081
1348.00,0.0080
1345.00,0.0078
1342.00,0.0075
1339.00,0.0073
1336.00,0.0074
1333.00,0.0077
1330.00,0.0080
1327.00,0.0081
1324.00,0.0080
1321.00,0.0078
1318.00,0.0078
1315.00,0.0079
1312.00,0.0080
1309.00,0.0079
1306.00,0.0076
1303.00,0.0074
1300.00,0.0072
1297.00,0.0071
1294.00,0.0071
1291.00,0.0071
1288.00,0.0070
1285.00,0.0069
1282.00,0.0068
1279.00,0.0067
1276.00,0.0066
1273.00,0.0064
1270.00,0.0063
1267.00,0.0062
1264.00,0.0062
1261.00,0.0062
1258.00,0.0062
1255.00,0.0062
1252.00,0.0063
1249.00,0.0064
1246.00,0.0065
1243.00,0.0065
1240.00,0.0065
1237.00,0.0065
1234.00,0.0064
1231.00,0.0064
1228.00,0.0065
1225.00,0.0065
1222.00,0.0064
1219.00,0.0064
1216.00,0.0064
1213.00,0.0065
1210.00,0.0067
1207.00,0.0068
1204.00,0.0071
1201.00,0.0075
1198.00,0.0078
1195.00,0.0080
1192.00,0.0081
1189.00,0.0083
1186.00,0.0088
1183.00,0.0098
1180.00,0.0101
1177.00,0.0092
1174.00,0.0083
1171.00,0.0080
1168.00,0.0079
1165.00,0.0078
1162.00,0.0080
1159.00,0.0089
1156.00,0.0101
1153.00,0.0101
1150.00,0.0087
1147.00,0.0076
1144.00,0.0069
1141.00,0.0066
1138.00,0.0063
1135.00,0.0061
1132.00,0.0060
1129.00,0.0061
1126.00,0.0062
1123.00,0.0064
1120.00,0.0066
1117.00,0.0071
1114.00,0.0074
1111.00,0.0074
1108.00,0.0074
1105.00,0.0074
1102.00,0.0075
1099.00,0.0076
1096.00,0.0078
1093.00,0.0080
1090.00,0.0081
1087.00,0.0084
1084.00,0.0089
1081.00,0.0094
1078.00,0.0100
1075.00,0.0109
1072.00,0.0119
1069.00,0.0125
1066.00,0.0122
1063.00,0.0112
1060.00,0.0101
1057.00,0.0095
1054.00,0.0090
1051.00,0.0085
1048.00,0.0083
1045.00,0.0082
1042.00,0.0081
1039.00,0.0083
1036.00,0.0098
1033.00,0.0133
1030.00,0.0171
1027.00,0.0180
1024.00,0.0154
1021.00,0.0128
1018.00,0.0111
1015.00,0.0100
1012.00,0.0092
1009.00,0.0088
1006.00,0.0089
1003.00,0.0092
1000.00,0.0084
997.00,0.0074
994.00,0.0071
991.00,0.0071
988.00,0.0073
985.00,0.0077
982.00,0.0080
979.00,0.0080
976.00,0.0077
973.00,0.0074
970.00,0.0076
967.00,0.0081
964.00,0.0084
961.00,0.0079
958.00,0.0071
955.00,0.0065
952.00,0.0063
949.00,0.0064
946.00,0.0066
943.00,0.0068
940.00,0.0066
937.00,0.0062
934.00,0.0057
931.00,0.0053
928.00,0.0053
925.00,0.0052
922.00,0.0055
919.00,0.0059
916.00,0.0069
913.00,0.0084
910.00,0.0103
907.00,0.0115
904.00,0.0111
901.00,0.0091
898.00,0.0070
895.00,0.0057
892.00,0.0052
889.00,0.0048
886.00,0.0044
883.00,0.0042
880.00,0.0041
877.00,0.0042
874.00,0.0041
871.00,0.0039
868.00,0.0038
865.00,0.0038
862.00,0.0038
859.00,0.0038
856.00,0.0039
853.00,0.0042
850.00,0.0047
847.00,0.0056
844.00,0.0063
841.00,0.0065
838.00,0.0060
835.00,0.0051
832.00,0.0043
829.00,0.0040
826.00,0.0038
823.00,0.0037
820.00,0.0037
817.00,0.0037
814.00,0.0039
811.00,0.0039
808.00,0.0040
805.00,0.0040
802.00,0.0043
799.00,0.0046
796.00,0.0049
793.00,0.0055
790.00,0.0061
787.00,0.0069
784.00,0.0082
781.00,0.0098
778.00,0.0119
775.00,0.0150
772.00,0.0192
769.00,0.0241
766.00,0.0290
763.00,0.0336
760.00,0.0384
757.00,0.0421
754.00,0.0431
751.00,0.0427
748.00,0.0422
745.00,0.0393
742.00,0.0317
739.00,0.0239
736.00,0.0176
733.00,0.0125
730.00,0.0090
727.00,0.0075
724.00,0.0069
721.00,0.0069
718.00,0.0070
715.00,0.0079
712.00,0.0108
709.00,0.0185
706.00,0.0334
703.00,0.0557
700.00,0.0826
697.00,0.1079
694.00,0.1147
691.00,0.0886
688.00,0.0589
685.00,0.0421
682.00,0.0329
679.00,0.0270
676.00,0.0232
673.00,0.0207
670.00,0.0192
667.00,0.0169
664.00,0.0155
661.00,0.0141
658.00,0.0125
655.00,0.0113
652.00,0.0103
649.00,0.0096
646.00,0.0089
643.00,0.0085
640.00,0.0085
637.00,0.0088
634.00,0.0094
631.00,0.0099
628.00,0.0103
625.00,0.0106
622.00,0.0110
619.00,0.0109
616.00,0.0100
613.00,0.0095
610.00,0.0092
607.00,0.0090
604.00,0.0089
601.00,0.0092
598.00,0.0095
595.00,0.0096
592.00,0.0100
589.00,0.0103
586.00,0.0108
583.00,0.0113
580.00,0.0121
577.00,0.0134
574.00,0.0152
571.00,0.0170
568.00,0.0187
565.00,0.0204
562.00,0.0222
559.00,0.0234
556.00,0.0254
553.00,0.0276
550.00,0.0299
547.00,0.0327
544.00,0.0370
541.00,0.0411
538.00,0.0427
535.00,0.0406
532.00,0.0353
529.00,0.0296
526.00,0.0245
523.00,0.0204
520.00,0.0180
517.00,0.0164
514.00,0.0155
511.00,0.0141
508.00,0.0130
505.00,0.0119
502.00,0.0112
499.00,0.0107
496.00,0.0101
493.00,0.0099
490.00,0.0095
487.00,0.0095
484.00,0.0100
481.00,0.0096
478.00,0.0088
475.00,0.0084
472.00,0.0086
469.00,0.0093
466.00,0.0087
463.00,0.0080
460.00,0.0082
457.00,0.0084
454.00,0.0082
451.00,0.0073
448.00,0.0079
445.00,0.0082
442.00,0.0077
439.00,0.0065
436.00,0.0067
433.00,0.0075
430.00,0.0068
427.00,0.0051
424.00,0.0057
421.00,0.0081
418.00,0.0083
415.00,0.0058
412.00,0.0054
409.00,0.0068
406.00,0.0042
403.00,0.0037
400.00,0.0034