File: FTIR/Mary/2025_11_16_Polystyrene_Scan2.csv
Created as New Dataset,Sample 370 By YargerLab Date Sunday, November 16 2025
cm-1,A
4000.00,0.0023
3997.00,0.0023
3994.00,0.0023
3991.00,0.0022
3988.00,0.0022
3985.00,0.0022
3982.00,0.0022
3979.00,0.0022
3976.00,0.0022
3973.00,0.0022
3970.00,0.0022
3967.00,0.0022
3964.00,0.0022
3961.00,0.0021
3958.00,0.0021
3955.00,0.0022
3952.00,0.0022
3949.00,0.0022
3946.00,0.0021
3943.00,0.0021
3940.00,0.0022
3937.00,0.0022
3934.00,0.0022
3931.00,0.0022
3928.00,0.0022
3925.00,0.0021
3922.00,0.0022
3919.00,0.0021
3916.00,0.0021
3913.00,0.0021
3910.00,0.0021
3907.00,0.0022
3904.00,0.0022
3901.00,0.0021
3898.00,0.0021
3895.00,0.0021
3892.00,0.0021
3889.00,0.0022
3886.00,0.0022
3883.00,0.0022
3880.00,0.0021
3877.00,0.0022
3874.00,0.0022
3871.00,0.0022
3868.00,0.0022
3865.00,0.0021
3862.00,0.0021
3859.00,0.0021
3856.00,0.0023
3853.00,0.0023
3850.00,0.0022
3847.00,0.0021
3844.00,0.0022
3841.00,0.0022
3838.00,0.0023
3835.00,0.0023
3832.00,0.0022
3829.00,0.0022
3826.00,0.0022
3823.00,0.0023
3820.00,0.0024
3817.00,0.0023
3814.00,0.0022
3811.00,0.0022
3808.00,0.0022
3805.00,0.0023
3802.00,0.0022
3799.00,0.0022
3796.00,0.0021
3793.00,0.0022
3790.00,0.0021
3787.00,0.0021
3784.00,0.0021
3781.00,0.0022
3778.00,0.0021
3775.00,0.0022
3772.00,0.0022
3769.00,0.0022
3766.00,0.0022
3763.00,0.0022
3760.00,0.0022
3757.00,0.0022
3754.00,0.0023
3751.00,0.0024
3748.00,0.0023
3745.00,0.0022
3742.00,0.0022
3739.00,0.0021
3736.00,0.0021
3733.00,0.0021
3730.00,0.0021
3727.00,0.0021
3724.00,0.0020
3721.00,0.0020
3718.00,0.0021
3715.00,0.0021
3712.00,0.0021
3709.00,0.0021
3706.00,0.0021
3703.00,0.0021
3700.00,0.0022
3697.00,0.0021
3694.00,0.0021
3691.00,0.0022
3688.00,0.0023
3685.00,0.0023
3682.00,0.0023
3679.00,0.0024
3676.00,0.0024
3673.00,0.0024
3670.00,0.0023
3667.00,0.0023
3664.00,0.0024
3661.00,0.0024
3658.00,0.0025
3655.00,0.0027
3652.00,0.0026
3649.00,0.0027
3646.00,0.0027
3643.00,0.0026
3640.00,0.0026
3637.00,0.0027
3634.00,0.0027
3631.00,0.0028
3628.00,0.0029
3625.00,0.0029
3622.00,0.0031
3619.00,0.0031
3616.00,0.0031
3613.00,0.0031
3610.00,0.0033
3607.00,0.0033
3604.00,0.0033
3601.00,0.0034
3598.00,0.0035
3595.00,0.0036
3592.00,0.0036
3589.00,0.0037
3586.00,0.0038
3583.00,0.0039
3580.00,0.0040
3577.00,0.0040
3574.00,0.0041
3571.00,0.0042
3568.00,0.0043
3565.00,0.0044
3562.00,0.0045
3559.00,0.0046
3556.00,0.0047
3553.00,0.0048
3550.00,0.0049
3547.00,0.0050
3544.00,0.0051
3541.00,0.0052
3538.00,0.0053
3535.00,0.0055
3532.00,0.0056
3529.00,0.0057
3526.00,0.0057
3523.00,0.0058
3520.00,0.0060
3517.00,0.0061
3514.00,0.0062
3511.00,0.0063
3508.00,0.0063
3505.00,0.0064
3502.00,0.0065
3499.00,0.0067
3496.00,0.0068
3493.00,0.0069
3490.00,0.0070
3487.00,0.0071
3484.00,0.0073
3481.00,0.0073
3478.00,0.0074
3475.00,0.0076
3472.00,0.0077
3469.00,0.0078
3466.00,0.0079
3463.00,0.0080
3460.00,0.0081
3457.00,0.0081
3454.00,0.0082
3451.00,0.0083
3448.00,0.0083
3445.00,0.0084
3442.00,0.0084
3439.00,0.0085
3436.00,0.0085
3433.00,0.0086
3430.00,0.0087
3427.00,0.0087
3424.00,0.0087
3421.00,0.0088
3418.00,0.0088
3415.00,0.0089
3412.00,0.0090
3409.00,0.0091
3406.00,0.0091
3403.00,0.0091
3400.00,0.0092
3397.00,0.0092
3394.00,0.0093
3391.00,0.0093
3388.00,0.0094
3385.00,0.0094
3382.00,0.0095
3379.00,0.0095
3376.00,0.0096
3373.00,0.0096
3370.00,0.0096
3367.00,0.0097
3364.00,0.0097
3361.00,0.0098
3358.00,0.0098
3355.00,0.0099
3352.00,0.0099
3349.00,0.0099
3346.00,0.0100
3343.00,0.0100
3340.00,0.0100
3337.00,0.0100
3334.00,0.0101
3331.00,0.0101
3328.00,0.0101
3325.00,0.0101
3322.00,0.0101
3319.00,0.0102
3316.00,0.0102
3313.00,0.0103
3310.00,0.0102
3307.00,0.0102
3304.00,0.0102
3301.00,0.0103
3298.00,0.0102
3295.00,0.0102
3292.00,0.0102
3289.00,0.0102
3286.00,0.0102
3283.00,0.0102
3280.00,0.0101
3277.00,0.0100
3274.00,0.0100
3271.00,0.0100
3268.00,0.0098
3265.00,0.0097
3262.00,0.0096
3259.00,0.0096
3256.00,0.0095
3253.00,0.0094
3250.00,0.0093
3247.00,0.0092
3244.00,0.0091
3241.00,0.0090
3238.00,0.0090
3235.00,0.0088
3232.00,0.0088
3229.00,0.0087
3226.00,0.0087
3223.00,0.0086
3220.00,0.0085
3217.00,0.0085
3214.00,0.0084
3211.00,0.0084
3208.00,0.0083
3205.00,0.0083
3202.00,0.0084
3199.00,0.0082
3196.00,0.0081
3193.00,0.0080
3190.00,0.0079
3187.00,0.0078
3184.00,0.0077
3181.00,0.0077
3178.00,0.0076
3175.00,0.0075
3172.00,0.0074
3169.00,0.0075
3166.00,0.0075
3163.00,0.0074
3160.00,0.0073
3157.00,0.0071
3154.00,0.0070
3151.00,0.0069
3148.00,0.0068
3145.00,0.0067
3142.00,0.0067
3139.00,0.0067
3136.00,0.0067
3133.00,0.0066
3130.00,0.0066
3127.00,0.0066
3124.00,0.0065
3121.00,0.0066
3118.00,0.0067
3115.00,0.0070
3112.00,0.0076
3109.00,0.0084
3106.00,0.0093
3103.00,0.0097
3100.00,0.0095
3097.00,0.0093
3094.00,0.0096
3091.00,0.0109
3088.00,0.0134
3085.00,0.0166
3082.00,0.0180
3079.00,0.0165
3076.00,0.0146
3073.00,0.0140
3070.00,0.0148
3067.00,0.0170
3064.00,0.0204
3061.00,0.0231
3058.00,0.0227
3055.00,0.0196
3052.00,0.0165
3049.00,0.0143
3046.00,0.0133
3043.00,0.0134
3040.00,0.0148
3037.00,0.0175
3034.00,0.0225
3031.00,0.0300
3028.00,0.0382
3025.00,0.0414
3022.00,0.0359
3019.00,0.0262
3016.00,0.0187
3013.00,0.0145
3010.00,0.0128
3007.00,0.0127
3004.00,0.0136
3001.00,0.0141
2998.00,0.0129
2995.00,0.0111
2992.00,0.0099
2989.00,0.0097
2986.00,0.0097
2983.00,0.0099
2980.00,0.0103
2977.00,0.0109
2974.00,0.0116
2971.00,0.0124
2968.00,0.0135
2965.00,0.0149
2962.00,0.0163
2959.00,0.0177
2956.00,0.0192
2953.00,0.0208
2950.00,0.0227
2947.00,0.0253
2944.00,0.0287
2941.00,0.0331
2938.00,0.0384
2935.00,0.0446
2932.00,0.0511
2929.00,0.0571
2926.00,0.0616
2923.00,0.0640
2920.00,0.0638
2917.00,0.0610
2914.00,0.0560
2911.00,0.0506
2908.00,0.0456
2905.00,0.0410
2902.00,0.0367
2899.00,0.0326
2896.00,0.0291
2893.00,0.0264
2890.00,0.0243
2887.00,0.0226
2884.00,0.0212
2881.00,0.0200
2878.00,0.0192
2875.00,0.0188
2872.00,0.0185
2869.00,0.0185
2866.00,0.0192
2863.00,0.0210
2860.00,0.0238
2857.00,0.0271
2854.00,0.0300
2851.00,0.0314
2848.00,0.0298
2845.00,0.0257
2842.00,0.0208
2839.00,0.0162
2836.00,0.0127
2833.00,0.0105
2830.00,0.0093
2827.00,0.0085
2824.00,0.0081
2821.00,0.0077
2818.00,0.0074
2815.00,0.0072
2812.00,0.0071
2809.00,0.0069
2806.00,0.0067
2803.00,0.0066
2800.00,0.0064
2797.00,0.0062
2794.00,0.0061
2791.00,0.0060
2788.00,0.0059
2785.00,0.0058
2782.00,0.0058
2779.00,0.0057
2776.00,0.0056
2773.00,0.0055
2770.00,0.0054
2767.00,0.0054
2764.00,0.0053
2761.00,0.0052
2758.00,0.0052
2755.00,0.0051
2752.00,0.0051
2749.00,0.0050
2746.00,0.0050
2743.00,0.0050
2740.00,0.0050
2737.00,0.0049
2734.00,0.0050
2731.00,0.0051
2728.00,0.0050
2725.00,0.0050
2722.00,0.0050
2719.00,0.0050
2716.00,0.0049
2713.00,0.0049
2710.00,0.0049
2707.00,0.0049
2704.00,0.0048
2701.00,0.0048
2698.00,0.0048
2695.00,0.0048
2692.00,0.0048
2689.00,0.0048
2686.00,0.0048
2683.00,0.0048
2680.00,0.0048
2677.00,0.0047
2674.00,0.0048
2671.00,0.0048
2668.00,0.0048
2665.00,0.0049
2662.00,0.0050
2659.00,0.0051
2656.00,0.0051
2653.00,0.0050
2650.00,0.0051
2647.00,0.0051
2644.00,0.0051
2641.00,0.0050
2638.00,0.0050
2635.00,0.0051
2632.00,0.0051
2629.00,0.0050
2626.00,0.0049
2623.00,0.0047
2620.00,0.0046
2617.00,0.0046
2614.00,0.0045
2611.00,0.0045
2608.00,0.0046
2605.00,0.0047
2602.00,0.0047
2599.00,0.0046
2596.00,0.0044
2593.00,0.0043
2590.00,0.0042
2587.00,0.0042
2584.00,0.0043
2581.00,0.0043
2578.00,0.0042
2575.00,0.0041
2572.00,0.0040
2569.00,0.0039
2566.00,0.0039
2563.00,0.0039
2560.00,0.0038
2557.00,0.0038
2554.00,0.0038
2551.00,0.0039
2548.00,0.0038
2545.00,0.0038
2542.00,0.0038
2539.00,0.0037
2536.00,0.0037
2533.00,0.0037
2530.00,0.0037
2527.00,0.0037
2524.00,0.0037
2521.00,0.0037
2518.00,0.0037
2515.00,0.0036
2512.00,0.0036
2509.00,0.0036
2506.00,0.0036
2503.00,0.0036
2500.00,0.0035
2497.00,0.0036
2494.00,0.0035
2491.00,0.0034
2488.00,0.0034
2485.00,0.0033
2482.00,0.0033
2479.00,0.0033
2476.00,0.0033
2473.00,0.0033
2470.00,0.0031
2467.00,0.0031
2464.00,0.0032
2461.00,0.0032
2458.00,0.0032
2455.00,0.0032
2452.00,0.0031
2449.00,0.0031
2446.00,0.0030
2443.00,0.0030
2440.00,0.0029
2437.00,0.0029
2434.00,0.0028
2431.00,0.0028
2428.00,0.0028
2425.00,0.0028
2422.00,0.0028
2419.00,0.0027
2416.00,0.0027
2413.00,0.0027
2410.00,0.0027
2407.00,0.0026
2404.00,0.0025
2401.00,0.0026
2398.00,0.0026
2395.00,0.0026
2392.00,0.0026
2389.00,0.0026
2386.00,0.0025
2383.00,0.0025
2380.00,0.0025
2377.00,0.0026
2374.00,0.0026
2371.00,0.0025
2368.00,0.0025
2365.00,0.0027
2362.00,0.0029
2359.00,0.0029
2356.00,0.0029
2353.00,0.0030
2350.00,0.0031
2347.00,0.0032
2344.00,0.0033
2341.00,0.0034
2338.00,0.0036
2335.00,0.0035
2332.00,0.0033
2329.00,0.0034
2326.00,0.0045
2323.00,0.0043
2320.00,0.0039
2317.00,0.0038
2314.00,0.0037
2311.00,0.0037
2308.00,0.0036
2305.00,0.0034
2302.00,0.0033
2299.00,0.0033
2296.00,0.0034
2293.00,0.0036
2290.00,0.0038
2287.00,0.0039
2284.00,0.0036
2281.00,0.0034
2278.00,0.0033
2275.00,0.0032
2272.00,0.0030
2269.00,0.0030
2266.00,0.0029
2263.00,0.0029
2260.00,0.0030
2257.00,0.0029
2254.00,0.0028
2251.00,0.0029
2248.00,0.0027
2245.00,0.0027
2242.00,0.0028
2239.00,0.0028
2236.00,0.0026
2233.00,0.0026
2230.00,0.0026
2227.00,0.0025
2224.00,0.0023
2221.00,0.0023
2218.00,0.0022
2215.00,0.0022
2212.00,0.0022
2209.00,0.0024
2206.00,0.0024
2203.00,0.0024
2200.00,0.0024
2197.00,0.0023
2194.00,0.0026
2191.00,0.0027
2188.00,0.0029
2185.00,0.0025
2182.00,0.0019
2179.00,0.0021
2176.00,0.0015
2173.00,0.0019
2170.00,0.0027
2167.00,0.0032
2164.00,0.0037
2161.00,0.0020
2158.00,-0.0013
2155.00,-0.0008
2152.00,0.0001
2149.00,0.0005
2146.00,0.0004
2143.00,0.0005
2140.00,0.0005
2137.00,-0.0000
2134.00,-0.0003
2131.00,0.0002
2128.00,0.0007
2125.00,0.0009
2122.00,0.0013
2119.00,0.0017
2116.00,0.0020
2113.00,0.0020
2110.00,0.0020
2107.00,0.0020
2104.00,0.0020
2101.00,0.0020
2098.00,0.0017
2095.00,0.0012
2092.00,0.0015
2089.00,0.0018
2086.00,0.0020
2083.00,0.0021
2080.00,0.0021
2077.00,0.0021
2074.00,0.0020
2071.00,0.0019
2068.00,0.0019
2065.00,0.0018
2062.00,0.0017
2059.00,0.0015
2056.00,0.0014
2053.00,0.0022
2050.00,0.0022
2047.00,0.0014
2044.00,0.0014
2041.00,0.0017
2038.00,0.0020
2035.00,0.0018
2032.00,0.0013
2029.00,0.0012
2026.00,0.0010
2023.00,0.0012
2020.00,0.0013
2017.00,0.0012
2014.00,0.0011
2011.00,0.0012
2008.00,0.0008
2005.00,0.0007
2002.00,0.0010
1999.00,0.0014
1996.00,0.0018
1993.00,0.0018
1990.00,0.0020
1987.00,0.0025
1984.00,0.0030
1981.00,0.0037
1978.00,0.0020
1975.00,0.0013
1972.00,0.0016
1969.00,0.0023
1966.00,0.0029
1963.00,0.0033
1960.00,0.0034
1957.00,0.0041
1954.00,0.0046
1951.00,0.0049
1948.00,0.0056
1945.00,0.0063
1942.00,0.0064
1939.00,0.0061
1936.00,0.0051
1933.00,0.0041
1930.00,0.0035
1927.00,0.0029
1924.00,0.0026
1921.00,0.0025
1918.00,0.0023
1915.00,0.0023
1912.00,0.0022
1909.00,0.0023
1906.00,0.0024
1903.00,0.0025
1900.00,0.0027
1897.00,0.0032
1894.00,0.0036
1891.00,0.0040
1888.00,0.0045
1885.00,0.0049
1882.00,0.0052
1879.00,0.0054
1876.00,0.0058
1873.00,0.0061
1870.00,0.0061
1867.00,0.0059
1864.00,0.0055
1861.00,0.0048
1858.00,0.0040
1855.00,0.0035
1852.00,0.0031
1849.00,0.0029
1846.00,0.0028
1843.00,0.0026
1840.00,0.0027
1837.00,0.0027
1834.00,0.0029
1831.00,0.0031
1828.00,0.0034
1825.00,0.0039
1822.00,0.0043
1819.00,0.0045
1816.00,0.0049
1813.00,0.0056
1810.00,0.0062
1807.00,0.0069
1804.00,0.0073
1801.00,0.0073
1798.00,0.0071
1795.00,0.0066
1792.00,0.0058
1789.00,0.0053
1786.00,0.0051
1783.00,0.0050
1780.00,0.0052
1777.00,0.0054
1774.00,0.0057
1771.00,0.0058
1768.00,0.0061
1765.00,0.0067
1762.00,0.0078
1759.00,0.0093
1756.00,0.0116
1753.00,0.0141
1750.00,0.0172
1747.00,0.0202
1744.00,0.0221
1741.00,0.0231
1738.00,0.0228
1735.00,0.0218
1732.00,0.0199
1729.00,0.0186
1726.00,0.0172
1723.00,0.0158
1720.00,0.0148
1717.00,0.0137
1714.00,0.0131
1711.00,0.0129
1708.00,0.0126
1705.00,0.0124
1702.00,0.0123
1699.00,0.0121
1696.00,0.0120
1693.00,0.0121
1690.00,0.0125
1687.00,0.0128
1684.00,0.0134
1681.00,0.0140
1678.00,0.0144
1675.00,0.0152
1672.00,0.0155
1669.00,0.0161
1666.00,0.0164
1663.00,0.0166
1660.00,0.0167
1657.00,0.0164
1654.00,0.0162
1651.00,0.0159
1648.00,0.0156
1645.00,0.0151
1642.00,0.0146
1639.00,0.0141
1636.00,0.0140
1633.00,0.0137
1630.00,0.0133
1627.00,0.0131
1624.00,0.0130
1621.00,0.0128
1618.00,0.0128
1615.00,0.0133
1612.00,0.0147
1609.00,0.0187
1606.00,0.0281
1603.00,0.0407
1600.00,0.0433
1597.00,0.0328
1594.00,0.0235
1591.00,0.0189
1588.00,0.0180
1585.00,0.0213
1582.00,0.0223
1579.00,0.0177
1576.00,0.0144
1573.00,0.0132
1570.00,0.0128
1567.00,0.0125
1564.00,0.0124
1561.00,0.0124
1558.00,0.0131
1555.00,0.0135
1552.00,0.0137
1549.00,0.0143
1546.00,0.0147
1543.00,0.0149
1540.00,0.0147
1537.00,0.0139
1534.00,0.0131
1531.00,0.0122
1528.00,0.0115
1525.00,0.0109
1522.00,0.0107
1519.00,0.0105
1516.00,0.0106
1513.00,0.0106
1510.00,0.0105
1507.00,0.0109
1504.00,0.0130
1501.00,0.0170
1498.00,0.0321
1495.00,0.0770
1492.00,0.0974
1489.00,0.0594
1486.00,0.0329
1483.00,0.0218
1480.00,0.0169
1477.00,0.0153
1474.00,0.0152
1471.00,0.0165
1468.00,0.0179
1465.00,0.0192
1462.00,0.0211
1459.00,0.0268
1456.00,0.0614
1453.00,0.0983
1450.00,0.0963
1447.00,0.0744
1444.00,0.0595
1441.00,0.0473
1438.00,0.0382
1435.00,0.0290
1432.00,0.0234
1429.00,0.0195
1426.00,0.0177
1423.00,0.0168
1420.00,0.0165
1417.00,0.0165
1414.00,0.0164
1411.00,0.0161
1408.00,0.0160
1405.00,0.0159
1402.00,0.0159
1399.00,0.0160
1396.00,0.0164
1393.00,0.0174
1390.00,0.0189
1387.00,0.0210
1384.00,0.0231
1381.00,0.0249
1378.00,0.0264
1375.00,0.0276
1372.00,0.0279
1369.00,0.0275
1366.00,0.0269
1363.00,0.0262
1360.00,0.0254
1357.00,0.0245
1354.00,0.0240
1351.00,0.0238
1348.00,0.0235
1345.00,0.0229
1342.00,0.0219
1339.00,0.0211
1336.00,0.0215
1333.00,0.0226
1330.00,0.0239
1327.00,0.0241
1324.00,0.0234
1321.00,0.0228
1318.00,0.0228
1315.00,0.0233
1312.00,0.0237
1309.00,0.0233
1306.00,0.0226
1303.00,0.0218
1300.00,0.0210
1297.00,0.0206
1294.00,0.0204
1291.00,0.0200
1288.00,0.0196
1285.00,0.0195
1282.00,0.0196
1279.00,0.0194
1276.00,0.0189
1273.00,0.0183
1270.00,0.0180
1267.00,0.0180
1264.00,0.0180
1261.00,0.0180
1258.00,0.0180
1255.00,0.0181
1252.00,0.0183
1249.00,0.0184
1246.00,0.0185
1243.00,0.0185
1240.00,0.0183
1237.00,0.0181
1234.00,0.0179
1231.00,0.0178
1228.00,0.0177
1225.00,0.0177
1222.00,0.0176
1219.00,0.0175
1216.00,0.0174
1213.00,0.0177
1210.00,0.0182
1207.00,0.0190
1204.00,0.0202
1201.00,0.0214
1198.00,0.0222
1195.00,0.0226
1192.00,0.0228
1189.00,0.0234
1186.00,0.0254
1183.00,0.0287
1180.00,0.0296
1177.00,0.0267
1174.00,0.0240
1171.00,0.0229
1168.00,0.0226
1165.00,0.0225
1162.00,0.0232
1159.00,0.0257
1156.00,0.0293
1153.00,0.0291
1150.00,0.0246
1147.00,0.0211
1144.00,0.0193
1141.00,0.0180
1138.00,0.0172
1135.00,0.0167
1132.00,0.0166
1129.00,0.0167
1126.00,0.0170
1123.00,0.0175
1120.00,0.0184
1117.00,0.0196
1114.00,0.0205
1111.00,0.0210
1108.00,0.0210
1105.00,0.0210
1102.00,0.0212
1099.00,0.0214
1096.00,0.0217
1093.00,0.0221
1090.00,0.0226
1087.00,0.0236
1084.00,0.0250
1081.00,0.0268
1078.00,0.0286
1075.00,0.0314
1072.00,0.0347
1069.00,0.0366
1066.00,0.0356
1063.00,0.0326
1060.00,0.0296
1057.00,0.0274
1054.00,0.0259
1051.00,0.0245
1048.00,0.0235
1045.00,0.0228
1042.00,0.0225
1039.00,0.0235
1036.00,0.0285
1033.00,0.0402
1030.00,0.0527
1027.00,0.0553
1024.00,0.0463
1021.00,0.0376
1018.00,0.0322
1015.00,0.0285
1012.00,0.0259
1009.00,0.0245
1006.00,0.0249
1003.00,0.0258
1000.00,0.0229
997.00,0.0200
994.00,0.0192
991.00,0.0191
988.00,0.0197
985.00,0.0208
982.00,0.0219
979.00,0.0221
976.00,0.0210
973.00,0.0201
970.00,0.0208
967.00,0.0227
964.00,0.0234
961.00,0.0219
958.00,0.0194
955.00,0.0178
952.00,0.0174
949.00,0.0177
946.00,0.0185
943.00,0.0190
940.00,0.0185
937.00,0.0171
934.00,0.0156
931.00,0.0145
928.00,0.0141
925.00,0.0143
922.00,0.0149
919.00,0.0161
916.00,0.0189
913.00,0.0240
910.00,0.0305
907.00,0.0347
904.00,0.0329
901.00,0.0264
898.00,0.0198
895.00,0.0160
892.00,0.0141
889.00,0.0131
886.00,0.0124
883.00,0.0118
880.00,0.0114
877.00,0.0112
874.00,0.0110
871.00,0.0108
868.00,0.0107
865.00,0.0105
862.00,0.0104
859.00,0.0106
856.00,0.0108
853.00,0.0115
850.00,0.0132
847.00,0.0159
844.00,0.0183
841.00,0.0188
838.00,0.0172
835.00,0.0142
832.00,0.0118
829.00,0.0109
826.00,0.0106
823.00,0.0105
820.00,0.0105
817.00,0.0106
814.00,0.0108
811.00,0.0111
808.00,0.0114
805.00,0.0115
802.00,0.0119
799.00,0.0128
796.00,0.0141
793.00,0.0158
790.00,0.0183
787.00,0.0213
784.00,0.0248
781.00,0.0294
778.00,0.0363
775.00,0.0466
772.00,0.0601
769.00,0.0766
766.00,0.0936
763.00,0.1101
760.00,0.1277
757.00,0.1417
754.00,0.1454
751.00,0.1438
748.00,0.1419
745.00,0.1292
742.00,0.1019
739.00,0.0753
736.00,0.0550
733.00,0.0382
730.00,0.0273
727.00,0.0222
724.00,0.0203
721.00,0.0199
718.00,0.0205
715.00,0.0234
712.00,0.0325
709.00,0.0566
706.00,0.1065
703.00,0.1874
700.00,0.3000
697.00,0.4335
694.00,0.4732
691.00,0.3239
688.00,0.1961
685.00,0.1344
682.00,0.1028
679.00,0.0840
676.00,0.0726
673.00,0.0650
670.00,0.0590
667.00,0.0528
664.00,0.0479
661.00,0.0428
658.00,0.0382
655.00,0.0346
652.00,0.0317
649.00,0.0295
646.00,0.0279
643.00,0.0268
640.00,0.0266
637.00,0.0277
634.00,0.0295
631.00,0.0310
628.00,0.0325
625.00,0.0334
622.00,0.0347
619.00,0.0345
616.00,0.0319
613.00,0.0304
610.00,0.0295
607.00,0.0286
604.00,0.0285
601.00,0.0288
598.00,0.0294
595.00,0.0303
592.00,0.0311
589.00,0.0322
586.00,0.0334
583.00,0.0354
580.00,0.0386
577.00,0.0428
574.00,0.0480
571.00,0.0535
568.00,0.0588
565.00,0.0641
562.00,0.0695
559.00,0.0750
556.00,0.0806
553.00,0.0869
550.00,0.0947
547.00,0.1055
544.00,0.1188
541.00,0.1326
538.00,0.1393
535.00,0.1318
532.00,0.1123
529.00,0.0918
526.00,0.0748
523.00,0.0626
520.00,0.0545
517.00,0.0489
514.00,0.0452
511.00,0.0419
508.00,0.0383
505.00,0.0354
502.00,0.0327
499.00,0.0308
496.00,0.0294
493.00,0.0282
490.00,0.0269
487.00,0.0260
484.00,0.0257
481.00,0.0251
478.00,0.0240
475.00,0.0239
472.00,0.0236
469.00,0.0232
466.00,0.0224
463.00,0.0215
460.00,0.0206
457.00,0.0207
454.00,0.0210
451.00,0.0204
448.00,0.0202
445.00,0.0205
442.00,0.0200
439.00,0.0194
436.00,0.0193
433.00,0.0186
430.00,0.0184
427.00,0.0186
424.00,0.0190
421.00,0.0199
418.00,0.0187
415.00,0.0168
412.00,0.0172
409.00,0.0192
406.00,0.0204
403.00,0.0190
400.00,0.0168