File: FTIR/Mary/2025_06_11_Standard_Polystyrene_postscan3.csv
Created as New Dataset,Sample 670 By YargerLab Date Wednesday, June 11 2025
cm-1,A
4000.00,0.0017
3997.00,0.0017
3994.00,0.0017
3991.00,0.0017
3988.00,0.0019
3985.00,0.0018
3982.00,0.0017
3979.00,0.0019
3976.00,0.0018
3973.00,0.0017
3970.00,0.0018
3967.00,0.0018
3964.00,0.0017
3961.00,0.0016
3958.00,0.0017
3955.00,0.0017
3952.00,0.0016
3949.00,0.0016
3946.00,0.0015
3943.00,0.0015
3940.00,0.0017
3937.00,0.0017
3934.00,0.0016
3931.00,0.0018
3928.00,0.0017
3925.00,0.0016
3922.00,0.0016
3919.00,0.0016
3916.00,0.0017
3913.00,0.0017
3910.00,0.0018
3907.00,0.0017
3904.00,0.0015
3901.00,0.0012
3898.00,0.0015
3895.00,0.0015
3892.00,0.0015
3889.00,0.0015
3886.00,0.0013
3883.00,0.0013
3880.00,0.0015
3877.00,0.0016
3874.00,0.0016
3871.00,0.0016
3868.00,0.0016
3865.00,0.0015
3862.00,0.0016
3859.00,0.0016
3856.00,0.0015
3853.00,0.0012
3850.00,0.0015
3847.00,0.0016
3844.00,0.0016
3841.00,0.0016
3838.00,0.0016
3835.00,0.0016
3832.00,0.0019
3829.00,0.0016
3826.00,0.0017
3823.00,0.0016
3820.00,0.0015
3817.00,0.0014
3814.00,0.0015
3811.00,0.0016
3808.00,0.0015
3805.00,0.0015
3802.00,0.0016
3799.00,0.0018
3796.00,0.0016
3793.00,0.0015
3790.00,0.0018
3787.00,0.0018
3784.00,0.0016
3781.00,0.0016
3778.00,0.0018
3775.00,0.0017
3772.00,0.0017
3769.00,0.0018
3766.00,0.0017
3763.00,0.0016
3760.00,0.0015
3757.00,0.0016
3754.00,0.0016
3751.00,0.0017
3748.00,0.0014
3745.00,0.0012
3742.00,0.0015
3739.00,0.0016
3736.00,0.0015
3733.00,0.0011
3730.00,0.0014
3727.00,0.0018
3724.00,0.0015
3721.00,0.0013
3718.00,0.0014
3715.00,0.0016
3712.00,0.0016
3709.00,0.0016
3706.00,0.0016
3703.00,0.0015
3700.00,0.0017
3697.00,0.0018
3694.00,0.0016
3691.00,0.0015
3688.00,0.0014
3685.00,0.0014
3682.00,0.0013
3679.00,0.0016
3676.00,0.0017
3673.00,0.0012
3670.00,0.0012
3667.00,0.0016
3664.00,0.0015
3661.00,0.0016
3658.00,0.0017
3655.00,0.0017
3652.00,0.0013
3649.00,0.0012
3646.00,0.0016
3643.00,0.0016
3640.00,0.0015
3637.00,0.0015
3634.00,0.0016
3631.00,0.0017
3628.00,0.0017
3625.00,0.0016
3622.00,0.0019
3619.00,0.0016
3616.00,0.0014
3613.00,0.0012
3610.00,0.0011
3607.00,0.0014
3604.00,0.0016
3601.00,0.0017
3598.00,0.0015
3595.00,0.0013
3592.00,0.0013
3589.00,0.0013
3586.00,0.0014
3583.00,0.0014
3580.00,0.0016
3577.00,0.0017
3574.00,0.0018
3571.00,0.0016
3568.00,0.0015
3565.00,0.0013
3562.00,0.0016
3559.00,0.0017
3556.00,0.0018
3553.00,0.0019
3550.00,0.0017
3547.00,0.0018
3544.00,0.0017
3541.00,0.0018
3538.00,0.0020
3535.00,0.0021
3532.00,0.0020
3529.00,0.0019
3526.00,0.0018
3523.00,0.0019
3520.00,0.0024
3517.00,0.0021
3514.00,0.0019
3511.00,0.0019
3508.00,0.0018
3505.00,0.0018
3502.00,0.0018
3499.00,0.0017
3496.00,0.0017
3493.00,0.0018
3490.00,0.0019
3487.00,0.0020
3484.00,0.0020
3481.00,0.0019
3478.00,0.0021
3475.00,0.0020
3472.00,0.0021
3469.00,0.0020
3466.00,0.0019
3463.00,0.0021
3460.00,0.0021
3457.00,0.0022
3454.00,0.0022
3451.00,0.0023
3448.00,0.0023
3445.00,0.0023
3442.00,0.0024
3439.00,0.0022
3436.00,0.0021
3433.00,0.0022
3430.00,0.0022
3427.00,0.0023
3424.00,0.0025
3421.00,0.0023
3418.00,0.0022
3415.00,0.0023
3412.00,0.0024
3409.00,0.0025
3406.00,0.0025
3403.00,0.0025
3400.00,0.0025
3397.00,0.0026
3394.00,0.0026
3391.00,0.0027
3388.00,0.0026
3385.00,0.0025
3382.00,0.0024
3379.00,0.0024
3376.00,0.0028
3373.00,0.0027
3370.00,0.0024
3367.00,0.0025
3364.00,0.0027
3361.00,0.0026
3358.00,0.0025
3355.00,0.0023
3352.00,0.0027
3349.00,0.0028
3346.00,0.0023
3343.00,0.0022
3340.00,0.0022
3337.00,0.0023
3334.00,0.0024
3331.00,0.0023
3328.00,0.0023
3325.00,0.0023
3322.00,0.0022
3319.00,0.0022
3316.00,0.0025
3313.00,0.0025
3310.00,0.0024
3307.00,0.0021
3304.00,0.0021
3301.00,0.0022
3298.00,0.0021
3295.00,0.0020
3292.00,0.0021
3289.00,0.0020
3286.00,0.0021
3283.00,0.0020
3280.00,0.0019
3277.00,0.0021
3274.00,0.0022
3271.00,0.0024
3268.00,0.0030
3265.00,0.0027
3262.00,0.0023
3259.00,0.0021
3256.00,0.0022
3253.00,0.0023
3250.00,0.0026
3247.00,0.0025
3244.00,0.0023
3241.00,0.0024
3238.00,0.0025
3235.00,0.0025
3232.00,0.0025
3229.00,0.0024
3226.00,0.0025
3223.00,0.0024
3220.00,0.0024
3217.00,0.0026
3214.00,0.0025
3211.00,0.0026
3208.00,0.0026
3205.00,0.0026
3202.00,0.0026
3199.00,0.0025
3196.00,0.0027
3193.00,0.0027
3190.00,0.0028
3187.00,0.0028
3184.00,0.0024
3181.00,0.0026
3178.00,0.0026
3175.00,0.0026
3172.00,0.0028
3169.00,0.0027
3166.00,0.0027
3163.00,0.0027
3160.00,0.0027
3157.00,0.0027
3154.00,0.0027
3151.00,0.0027
3148.00,0.0026
3145.00,0.0026
3142.00,0.0025
3139.00,0.0025
3136.00,0.0025
3133.00,0.0024
3130.00,0.0025
3127.00,0.0025
3124.00,0.0025
3121.00,0.0024
3118.00,0.0025
3115.00,0.0028
3112.00,0.0031
3109.00,0.0033
3106.00,0.0037
3103.00,0.0038
3100.00,0.0038
3097.00,0.0039
3094.00,0.0038
3091.00,0.0044
3088.00,0.0054
3085.00,0.0064
3082.00,0.0069
3079.00,0.0064
3076.00,0.0055
3073.00,0.0054
3070.00,0.0057
3067.00,0.0065
3064.00,0.0076
3061.00,0.0085
3058.00,0.0085
3055.00,0.0076
3052.00,0.0065
3049.00,0.0056
3046.00,0.0052
3043.00,0.0054
3040.00,0.0060
3037.00,0.0068
3034.00,0.0086
3031.00,0.0113
3028.00,0.0140
3025.00,0.0153
3022.00,0.0136
3019.00,0.0098
3016.00,0.0067
3013.00,0.0059
3010.00,0.0051
3007.00,0.0051
3004.00,0.0055
3001.00,0.0055
2998.00,0.0050
2995.00,0.0042
2992.00,0.0038
2989.00,0.0036
2986.00,0.0035
2983.00,0.0035
2980.00,0.0035
2977.00,0.0034
2974.00,0.0035
2971.00,0.0037
2968.00,0.0039
2965.00,0.0041
2962.00,0.0043
2959.00,0.0046
2956.00,0.0050
2953.00,0.0055
2950.00,0.0060
2947.00,0.0068
2944.00,0.0079
2941.00,0.0093
2938.00,0.0108
2935.00,0.0124
2932.00,0.0139
2929.00,0.0156
2926.00,0.0168
2923.00,0.0172
2920.00,0.0172
2917.00,0.0165
2914.00,0.0157
2911.00,0.0147
2908.00,0.0134
2905.00,0.0124
2902.00,0.0113
2899.00,0.0099
2896.00,0.0090
2893.00,0.0082
2890.00,0.0078
2887.00,0.0072
2884.00,0.0068
2881.00,0.0065
2878.00,0.0062
2875.00,0.0057
2872.00,0.0054
2869.00,0.0054
2866.00,0.0054
2863.00,0.0060
2860.00,0.0066
2857.00,0.0071
2854.00,0.0077
2851.00,0.0081
2848.00,0.0083
2845.00,0.0080
2842.00,0.0069
2839.00,0.0057
2836.00,0.0048
2833.00,0.0042
2830.00,0.0037
2827.00,0.0034
2824.00,0.0032
2821.00,0.0031
2818.00,0.0030
2815.00,0.0030
2812.00,0.0031
2809.00,0.0031
2806.00,0.0029
2803.00,0.0029
2800.00,0.0029
2797.00,0.0029
2794.00,0.0029
2791.00,0.0028
2788.00,0.0026
2785.00,0.0028
2782.00,0.0027
2779.00,0.0026
2776.00,0.0026
2773.00,0.0026
2770.00,0.0025
2767.00,0.0026
2764.00,0.0027
2761.00,0.0026
2758.00,0.0023
2755.00,0.0023
2752.00,0.0025
2749.00,0.0024
2746.00,0.0023
2743.00,0.0023
2740.00,0.0025
2737.00,0.0025
2734.00,0.0024
2731.00,0.0024
2728.00,0.0024
2725.00,0.0024
2722.00,0.0023
2719.00,0.0025
2716.00,0.0024
2713.00,0.0024
2710.00,0.0025
2707.00,0.0024
2704.00,0.0025
2701.00,0.0025
2698.00,0.0023
2695.00,0.0023
2692.00,0.0024
2689.00,0.0024
2686.00,0.0023
2683.00,0.0023
2680.00,0.0024
2677.00,0.0023
2674.00,0.0024
2671.00,0.0024
2668.00,0.0023
2665.00,0.0026
2662.00,0.0026
2659.00,0.0026
2656.00,0.0025
2653.00,0.0025
2650.00,0.0026
2647.00,0.0027
2644.00,0.0025
2641.00,0.0025
2638.00,0.0024
2635.00,0.0025
2632.00,0.0027
2629.00,0.0026
2626.00,0.0026
2623.00,0.0025
2620.00,0.0026
2617.00,0.0026
2614.00,0.0024
2611.00,0.0025
2608.00,0.0023
2605.00,0.0023
2602.00,0.0021
2599.00,0.0023
2596.00,0.0023
2593.00,0.0025
2590.00,0.0024
2587.00,0.0022
2584.00,0.0023
2581.00,0.0025
2578.00,0.0024
2575.00,0.0022
2572.00,0.0021
2569.00,0.0021
2566.00,0.0020
2563.00,0.0020
2560.00,0.0019
2557.00,0.0020
2554.00,0.0022
2551.00,0.0024
2548.00,0.0022
2545.00,0.0018
2542.00,0.0020
2539.00,0.0021
2536.00,0.0019
2533.00,0.0019
2530.00,0.0019
2527.00,0.0018
2524.00,0.0017
2521.00,0.0020
2518.00,0.0021
2515.00,0.0019
2512.00,0.0014
2509.00,0.0017
2506.00,0.0016
2503.00,0.0018
2500.00,0.0019
2497.00,0.0019
2494.00,0.0020
2491.00,0.0019
2488.00,0.0018
2485.00,0.0020
2482.00,0.0020
2479.00,0.0019
2476.00,0.0018
2473.00,0.0020
2470.00,0.0021
2467.00,0.0019
2464.00,0.0017
2461.00,0.0017
2458.00,0.0019
2455.00,0.0021
2452.00,0.0019
2449.00,0.0018
2446.00,0.0017
2443.00,0.0018
2440.00,0.0018
2437.00,0.0015
2434.00,0.0017
2431.00,0.0019
2428.00,0.0018
2425.00,0.0016
2422.00,0.0017
2419.00,0.0020
2416.00,0.0015
2413.00,0.0016
2410.00,0.0018
2407.00,0.0016
2404.00,0.0014
2401.00,0.0014
2398.00,0.0014
2395.00,0.0015
2392.00,0.0015
2389.00,0.0014
2386.00,0.0015
2383.00,0.0015
2380.00,0.0012
2377.00,0.0014
2374.00,0.0015
2371.00,0.0016
2368.00,0.0013
2365.00,0.0011
2362.00,0.0013
2359.00,0.0017
2356.00,0.0017
2353.00,0.0012
2350.00,0.0012
2347.00,0.0016
2344.00,0.0016
2341.00,0.0017
2338.00,0.0018
2335.00,0.0017
2332.00,0.0014
2329.00,0.0014
2326.00,0.0021
2323.00,0.0023
2320.00,0.0021
2317.00,0.0018
2314.00,0.0019
2311.00,0.0019
2308.00,0.0022
2305.00,0.0017
2302.00,0.0017
2299.00,0.0021
2296.00,0.0022
2293.00,0.0019
2290.00,0.0021
2287.00,0.0025
2284.00,0.0023
2281.00,0.0022
2278.00,0.0023
2275.00,0.0021
2272.00,0.0020
2269.00,0.0019
2266.00,0.0016
2263.00,0.0008
2260.00,0.0013
2257.00,0.0014
2254.00,0.0014
2251.00,0.0015
2248.00,0.0013
2245.00,0.0014
2242.00,0.0017
2239.00,0.0016
2236.00,0.0011
2233.00,0.0015
2230.00,0.0013
2227.00,0.0012
2224.00,0.0014
2221.00,0.0011
2218.00,0.0012
2215.00,0.0013
2212.00,0.0017
2209.00,0.0018
2206.00,0.0013
2203.00,0.0011
2200.00,0.0017
2197.00,0.0013
2194.00,0.0016
2191.00,0.0012
2188.00,0.0014
2185.00,0.0010
2182.00,-0.0002
2179.00,0.0002
2176.00,0.0002
2173.00,0.0015
2170.00,0.0023
2167.00,0.0030
2164.00,0.0019
2161.00,0.0009
2158.00,-0.0014
2155.00,-0.0011
2152.00,-0.0002
2149.00,0.0006
2146.00,0.0005
2143.00,0.0012
2140.00,0.0007
2137.00,0.0002
2134.00,0.0000
2131.00,0.0003
2128.00,0.0003
2125.00,0.0002
2122.00,0.0008
2119.00,0.0012
2116.00,0.0010
2113.00,0.0012
2110.00,0.0016
2107.00,0.0015
2104.00,0.0012
2101.00,0.0015
2098.00,0.0015
2095.00,0.0007
2092.00,0.0012
2089.00,0.0010
2086.00,0.0012
2083.00,0.0013
2080.00,0.0012
2077.00,0.0013
2074.00,0.0014
2071.00,0.0013
2068.00,0.0013
2065.00,0.0015
2062.00,0.0016
2059.00,0.0010
2056.00,0.0008
2053.00,0.0016
2050.00,0.0022
2047.00,0.0017
2044.00,0.0017
2041.00,0.0005
2038.00,0.0010
2035.00,0.0004
2032.00,-0.0002
2029.00,0.0006
2026.00,0.0001
2023.00,0.0004
2020.00,-0.0003
2017.00,0.0001
2014.00,0.0002
2011.00,0.0009
2008.00,0.0019
2005.00,0.0004
2002.00,0.0003
1999.00,0.0010
1996.00,0.0016
1993.00,0.0016
1990.00,0.0026
1987.00,0.0017
1984.00,0.0018
1981.00,0.0021
1978.00,0.0009
1975.00,-0.0000
1972.00,0.0009
1969.00,0.0014
1966.00,0.0017
1963.00,0.0016
1960.00,0.0012
1957.00,0.0011
1954.00,0.0017
1951.00,0.0019
1948.00,0.0026
1945.00,0.0022
1942.00,0.0021
1939.00,0.0022
1936.00,0.0019
1933.00,0.0018
1930.00,0.0015
1927.00,0.0014
1924.00,0.0013
1921.00,0.0015
1918.00,0.0015
1915.00,0.0013
1912.00,0.0007
1909.00,0.0010
1906.00,0.0010
1903.00,0.0011
1900.00,0.0015
1897.00,0.0015
1894.00,0.0016
1891.00,0.0018
1888.00,0.0021
1885.00,0.0021
1882.00,0.0023
1879.00,0.0022
1876.00,0.0021
1873.00,0.0023
1870.00,0.0025
1867.00,0.0026
1864.00,0.0024
1861.00,0.0021
1858.00,0.0022
1855.00,0.0018
1852.00,0.0015
1849.00,0.0015
1846.00,0.0013
1843.00,0.0014
1840.00,0.0014
1837.00,0.0014
1834.00,0.0015
1831.00,0.0016
1828.00,0.0019
1825.00,0.0019
1822.00,0.0018
1819.00,0.0020
1816.00,0.0021
1813.00,0.0023
1810.00,0.0027
1807.00,0.0029
1804.00,0.0029
1801.00,0.0028
1798.00,0.0028
1795.00,0.0027
1792.00,0.0024
1789.00,0.0021
1786.00,0.0019
1783.00,0.0020
1780.00,0.0019
1777.00,0.0019
1774.00,0.0019
1771.00,0.0019
1768.00,0.0020
1765.00,0.0019
1762.00,0.0020
1759.00,0.0022
1756.00,0.0026
1753.00,0.0026
1750.00,0.0028
1747.00,0.0031
1744.00,0.0033
1741.00,0.0031
1738.00,0.0032
1735.00,0.0032
1732.00,0.0032
1729.00,0.0030
1726.00,0.0029
1723.00,0.0028
1720.00,0.0027
1717.00,0.0026
1714.00,0.0027
1711.00,0.0026
1708.00,0.0026
1705.00,0.0026
1702.00,0.0025
1699.00,0.0026
1696.00,0.0027
1693.00,0.0028
1690.00,0.0032
1687.00,0.0034
1684.00,0.0036
1681.00,0.0038
1678.00,0.0041
1675.00,0.0042
1672.00,0.0043
1669.00,0.0043
1666.00,0.0044
1663.00,0.0047
1660.00,0.0046
1657.00,0.0046
1654.00,0.0047
1651.00,0.0046
1648.00,0.0046
1645.00,0.0044
1642.00,0.0045
1639.00,0.0044
1636.00,0.0044
1633.00,0.0044
1630.00,0.0044
1627.00,0.0044
1624.00,0.0047
1621.00,0.0051
1618.00,0.0054
1615.00,0.0059
1612.00,0.0066
1609.00,0.0081
1606.00,0.0115
1603.00,0.0155
1600.00,0.0163
1597.00,0.0126
1594.00,0.0092
1591.00,0.0075
1588.00,0.0070
1585.00,0.0082
1582.00,0.0085
1579.00,0.0066
1576.00,0.0053
1573.00,0.0048
1570.00,0.0044
1567.00,0.0043
1564.00,0.0042
1561.00,0.0043
1558.00,0.0045
1555.00,0.0046
1552.00,0.0049
1549.00,0.0052
1546.00,0.0054
1543.00,0.0055
1540.00,0.0052
1537.00,0.0053
1534.00,0.0052
1531.00,0.0048
1528.00,0.0047
1525.00,0.0043
1522.00,0.0041
1519.00,0.0041
1516.00,0.0042
1513.00,0.0043
1510.00,0.0047
1507.00,0.0047
1504.00,0.0053
1501.00,0.0071
1498.00,0.0126
1495.00,0.0277
1492.00,0.0354
1489.00,0.0228
1486.00,0.0130
1483.00,0.0089
1480.00,0.0070
1477.00,0.0063
1474.00,0.0061
1471.00,0.0061
1468.00,0.0065
1465.00,0.0070
1462.00,0.0077
1459.00,0.0103
1456.00,0.0218
1453.00,0.0346
1450.00,0.0344
1447.00,0.0268
1444.00,0.0216
1441.00,0.0173
1438.00,0.0140
1435.00,0.0108
1432.00,0.0087
1429.00,0.0072
1426.00,0.0064
1423.00,0.0060
1420.00,0.0060
1417.00,0.0058
1414.00,0.0056
1411.00,0.0055
1408.00,0.0056
1405.00,0.0057
1402.00,0.0057
1399.00,0.0058
1396.00,0.0060
1393.00,0.0064
1390.00,0.0070
1387.00,0.0076
1384.00,0.0083
1381.00,0.0089
1378.00,0.0094
1375.00,0.0099
1372.00,0.0100
1369.00,0.0100
1366.00,0.0098
1363.00,0.0096
1360.00,0.0094
1357.00,0.0091
1354.00,0.0088
1351.00,0.0087
1348.00,0.0086
1345.00,0.0085
1342.00,0.0081
1339.00,0.0079
1336.00,0.0080
1333.00,0.0083
1330.00,0.0087
1327.00,0.0088
1324.00,0.0086
1321.00,0.0084
1318.00,0.0086
1315.00,0.0088
1312.00,0.0089
1309.00,0.0086
1306.00,0.0083
1303.00,0.0079
1300.00,0.0076
1297.00,0.0072
1294.00,0.0071
1291.00,0.0071
1288.00,0.0069
1285.00,0.0068
1282.00,0.0069
1279.00,0.0067
1276.00,0.0066
1273.00,0.0062
1270.00,0.0059
1267.00,0.0058
1264.00,0.0055
1261.00,0.0052
1258.00,0.0051
1255.00,0.0052
1252.00,0.0056
1249.00,0.0059
1246.00,0.0057
1243.00,0.0059
1240.00,0.0058
1237.00,0.0058
1234.00,0.0057
1231.00,0.0056
1228.00,0.0057
1225.00,0.0058
1222.00,0.0056
1219.00,0.0056
1216.00,0.0058
1213.00,0.0059
1210.00,0.0061
1207.00,0.0065
1204.00,0.0069
1201.00,0.0074
1198.00,0.0076
1195.00,0.0078
1192.00,0.0080
1189.00,0.0081
1186.00,0.0087
1183.00,0.0098
1180.00,0.0100
1177.00,0.0086
1174.00,0.0073
1171.00,0.0067
1168.00,0.0066
1165.00,0.0065
1162.00,0.0071
1159.00,0.0081
1156.00,0.0098
1153.00,0.0099
1150.00,0.0082
1147.00,0.0068
1144.00,0.0061
1141.00,0.0058
1138.00,0.0056
1135.00,0.0056
1132.00,0.0056
1129.00,0.0055
1126.00,0.0055
1123.00,0.0057
1120.00,0.0059
1117.00,0.0063
1114.00,0.0070
1111.00,0.0071
1108.00,0.0070
1105.00,0.0067
1102.00,0.0071
1099.00,0.0075
1096.00,0.0079
1093.00,0.0081
1090.00,0.0083
1087.00,0.0088
1084.00,0.0093
1081.00,0.0102
1078.00,0.0108
1075.00,0.0123
1072.00,0.0135
1069.00,0.0143
1066.00,0.0137
1063.00,0.0123
1060.00,0.0110
1057.00,0.0099
1054.00,0.0094
1051.00,0.0092
1048.00,0.0089
1045.00,0.0086
1042.00,0.0088
1039.00,0.0092
1036.00,0.0112
1033.00,0.0158
1030.00,0.0208
1027.00,0.0215
1024.00,0.0182
1021.00,0.0151
1018.00,0.0131
1015.00,0.0116
1012.00,0.0107
1009.00,0.0098
1006.00,0.0102
1003.00,0.0109
1000.00,0.0095
997.00,0.0086
994.00,0.0082
991.00,0.0083
988.00,0.0088
985.00,0.0092
982.00,0.0097
979.00,0.0097
976.00,0.0094
973.00,0.0093
970.00,0.0099
967.00,0.0106
964.00,0.0110
961.00,0.0104
958.00,0.0092
955.00,0.0085
952.00,0.0085
949.00,0.0087
946.00,0.0089
943.00,0.0094
940.00,0.0090
937.00,0.0081
934.00,0.0073
931.00,0.0070
928.00,0.0069
925.00,0.0073
922.00,0.0075
919.00,0.0082
916.00,0.0095
913.00,0.0116
910.00,0.0145
907.00,0.0162
904.00,0.0154
901.00,0.0126
898.00,0.0097
895.00,0.0079
892.00,0.0072
889.00,0.0068
886.00,0.0062
883.00,0.0058
880.00,0.0060
877.00,0.0057
874.00,0.0057
871.00,0.0058
868.00,0.0053
865.00,0.0053
862.00,0.0055
859.00,0.0053
856.00,0.0052
853.00,0.0057
850.00,0.0064
847.00,0.0071
844.00,0.0082
841.00,0.0088
838.00,0.0078
835.00,0.0067
832.00,0.0056
829.00,0.0048
826.00,0.0049
823.00,0.0048
820.00,0.0049
817.00,0.0054
814.00,0.0053
811.00,0.0050
808.00,0.0049
805.00,0.0052
802.00,0.0058
799.00,0.0063
796.00,0.0068
793.00,0.0075
790.00,0.0086
787.00,0.0100
784.00,0.0114
781.00,0.0132
778.00,0.0161
775.00,0.0200
772.00,0.0251
769.00,0.0313
766.00,0.0378
763.00,0.0442
760.00,0.0507
757.00,0.0566
754.00,0.0608
751.00,0.0574
748.00,0.0560
745.00,0.0516
742.00,0.0418
739.00,0.0315
736.00,0.0234
733.00,0.0164
730.00,0.0118
727.00,0.0101
724.00,0.0092
721.00,0.0089
718.00,0.0095
715.00,0.0110
712.00,0.0147
709.00,0.0246
706.00,0.0440
703.00,0.0747
700.00,0.1122
697.00,0.1485
694.00,0.1609
691.00,0.1250
688.00,0.0829
685.00,0.0590
682.00,0.0459
679.00,0.0382
676.00,0.0327
673.00,0.0293
670.00,0.0270
667.00,0.0246
664.00,0.0224
661.00,0.0200
658.00,0.0178
655.00,0.0161
652.00,0.0145
649.00,0.0134
646.00,0.0128
643.00,0.0124
640.00,0.0125
637.00,0.0129
634.00,0.0132
631.00,0.0141
628.00,0.0150
625.00,0.0151
622.00,0.0154
619.00,0.0154
616.00,0.0144
613.00,0.0137
610.00,0.0133
607.00,0.0128
604.00,0.0132
601.00,0.0137
598.00,0.0137
595.00,0.0142
592.00,0.0143
589.00,0.0150
586.00,0.0159
583.00,0.0165
580.00,0.0180
577.00,0.0196
574.00,0.0214
571.00,0.0246
568.00,0.0268
565.00,0.0292
562.00,0.0317
559.00,0.0338
556.00,0.0359
553.00,0.0392
550.00,0.0428
547.00,0.0473
544.00,0.0530
541.00,0.0589
538.00,0.0621
535.00,0.0595
532.00,0.0520
529.00,0.0437
526.00,0.0367
523.00,0.0318
520.00,0.0270
517.00,0.0242
514.00,0.0223
511.00,0.0212
508.00,0.0204
505.00,0.0167
502.00,0.0136
499.00,0.0157
496.00,0.0145
493.00,0.0147
490.00,0.0149
487.00,0.0153
484.00,0.0144
481.00,0.0132
478.00,0.0135
475.00,0.0138
472.00,0.0133
469.00,0.0136
466.00,0.0133
463.00,0.0125
460.00,0.0112
457.00,0.0114
454.00,0.0132
451.00,0.0126
448.00,0.0111
445.00,0.0120
442.00,0.0122
439.00,0.0118
436.00,0.0114
433.00,0.0107
430.00,0.0110
427.00,0.0111
424.00,0.0110
421.00,0.0111
418.00,0.0110
415.00,0.0104
412.00,0.0108
409.00,0.0107
406.00,0.0136
403.00,0.0115
400.00,0.0071