File: FTIR/Mary/2025_06_10_Standard_Polystyrene_2.csv
Created as New Dataset,Sample 642 By YargerLab Date Tuesday, June 10 2025
cm-1,A
4000.00,0.0019
3997.00,0.0019
3994.00,0.0019
3991.00,0.0020
3988.00,0.0019
3985.00,0.0018
3982.00,0.0018
3979.00,0.0018
3976.00,0.0018
3973.00,0.0018
3970.00,0.0018
3967.00,0.0018
3964.00,0.0017
3961.00,0.0017
3958.00,0.0017
3955.00,0.0018
3952.00,0.0017
3949.00,0.0017
3946.00,0.0016
3943.00,0.0017
3940.00,0.0016
3937.00,0.0016
3934.00,0.0013
3931.00,0.0015
3928.00,0.0016
3925.00,0.0018
3922.00,0.0015
3919.00,0.0013
3916.00,0.0014
3913.00,0.0016
3910.00,0.0017
3907.00,0.0016
3904.00,0.0010
3901.00,0.0005
3898.00,0.0010
3895.00,0.0013
3892.00,0.0016
3889.00,0.0013
3886.00,0.0009
3883.00,0.0010
3880.00,0.0011
3877.00,0.0011
3874.00,0.0013
3871.00,0.0009
3868.00,0.0009
3865.00,0.0009
3862.00,0.0010
3859.00,0.0011
3856.00,0.0016
3853.00,0.0012
3850.00,0.0008
3847.00,0.0010
3844.00,0.0010
3841.00,0.0009
3838.00,0.0008
3835.00,0.0010
3832.00,0.0010
3829.00,0.0011
3826.00,0.0011
3823.00,0.0008
3820.00,0.0010
3817.00,0.0007
3814.00,0.0013
3811.00,0.0014
3808.00,0.0014
3805.00,0.0012
3802.00,0.0009
3799.00,0.0010
3796.00,0.0011
3793.00,0.0014
3790.00,0.0017
3787.00,0.0016
3784.00,0.0015
3781.00,0.0013
3778.00,0.0013
3775.00,0.0014
3772.00,0.0014
3769.00,0.0012
3766.00,0.0011
3763.00,0.0011
3760.00,0.0010
3757.00,0.0008
3754.00,0.0006
3751.00,0.0002
3748.00,-0.0002
3745.00,-0.0004
3742.00,0.0001
3739.00,-0.0003
3736.00,-0.0003
3733.00,-0.0001
3730.00,0.0004
3727.00,0.0005
3724.00,0.0007
3721.00,0.0009
3718.00,0.0011
3715.00,0.0010
3712.00,0.0007
3709.00,0.0007
3706.00,0.0009
3703.00,0.0010
3700.00,0.0012
3697.00,0.0012
3694.00,0.0012
3691.00,0.0010
3688.00,0.0006
3685.00,0.0008
3682.00,0.0008
3679.00,0.0009
3676.00,0.0004
3673.00,0.0002
3670.00,0.0002
3667.00,0.0006
3664.00,0.0009
3661.00,0.0011
3658.00,0.0010
3655.00,0.0008
3652.00,0.0000
3649.00,-0.0002
3646.00,0.0000
3643.00,0.0007
3640.00,0.0011
3637.00,0.0010
3634.00,0.0008
3631.00,0.0006
3628.00,0.0005
3625.00,0.0004
3622.00,0.0007
3619.00,0.0008
3616.00,0.0002
3613.00,0.0001
3610.00,0.0001
3607.00,0.0006
3604.00,0.0008
3601.00,0.0010
3598.00,0.0009
3595.00,0.0008
3592.00,0.0007
3589.00,0.0004
3586.00,0.0007
3583.00,0.0009
3580.00,0.0013
3577.00,0.0014
3574.00,0.0014
3571.00,0.0011
3568.00,0.0006
3565.00,0.0007
3562.00,0.0010
3559.00,0.0014
3556.00,0.0015
3553.00,0.0015
3550.00,0.0013
3547.00,0.0010
3544.00,0.0012
3541.00,0.0015
3538.00,0.0017
3535.00,0.0017
3532.00,0.0017
3529.00,0.0017
3526.00,0.0016
3523.00,0.0017
3520.00,0.0018
3517.00,0.0019
3514.00,0.0020
3511.00,0.0020
3508.00,0.0019
3505.00,0.0018
3502.00,0.0019
3499.00,0.0020
3496.00,0.0021
3493.00,0.0022
3490.00,0.0023
3487.00,0.0023
3484.00,0.0023
3481.00,0.0024
3478.00,0.0024
3475.00,0.0024
3472.00,0.0025
3469.00,0.0025
3466.00,0.0026
3463.00,0.0026
3460.00,0.0026
3457.00,0.0028
3454.00,0.0028
3451.00,0.0028
3448.00,0.0027
3445.00,0.0027
3442.00,0.0028
3439.00,0.0028
3436.00,0.0028
3433.00,0.0029
3430.00,0.0030
3427.00,0.0030
3424.00,0.0030
3421.00,0.0032
3418.00,0.0032
3415.00,0.0031
3412.00,0.0032
3409.00,0.0033
3406.00,0.0033
3403.00,0.0034
3400.00,0.0033
3397.00,0.0033
3394.00,0.0033
3391.00,0.0033
3388.00,0.0034
3385.00,0.0035
3382.00,0.0035
3379.00,0.0035
3376.00,0.0036
3373.00,0.0036
3370.00,0.0036
3367.00,0.0037
3364.00,0.0038
3361.00,0.0038
3358.00,0.0038
3355.00,0.0039
3352.00,0.0039
3349.00,0.0040
3346.00,0.0041
3343.00,0.0041
3340.00,0.0041
3337.00,0.0041
3334.00,0.0041
3331.00,0.0041
3328.00,0.0041
3325.00,0.0040
3322.00,0.0040
3319.00,0.0040
3316.00,0.0040
3313.00,0.0040
3310.00,0.0040
3307.00,0.0040
3304.00,0.0041
3301.00,0.0041
3298.00,0.0041
3295.00,0.0040
3292.00,0.0040
3289.00,0.0041
3286.00,0.0042
3283.00,0.0041
3280.00,0.0040
3277.00,0.0039
3274.00,0.0039
3271.00,0.0039
3268.00,0.0039
3265.00,0.0039
3262.00,0.0039
3259.00,0.0038
3256.00,0.0037
3253.00,0.0036
3250.00,0.0036
3247.00,0.0035
3244.00,0.0035
3241.00,0.0035
3238.00,0.0034
3235.00,0.0033
3232.00,0.0033
3229.00,0.0032
3226.00,0.0032
3223.00,0.0032
3220.00,0.0031
3217.00,0.0031
3214.00,0.0030
3211.00,0.0030
3208.00,0.0029
3205.00,0.0029
3202.00,0.0030
3199.00,0.0030
3196.00,0.0029
3193.00,0.0029
3190.00,0.0029
3187.00,0.0028
3184.00,0.0029
3181.00,0.0029
3178.00,0.0028
3175.00,0.0028
3172.00,0.0029
3169.00,0.0028
3166.00,0.0029
3163.00,0.0028
3160.00,0.0027
3157.00,0.0026
3154.00,0.0026
3151.00,0.0026
3148.00,0.0026
3145.00,0.0026
3142.00,0.0025
3139.00,0.0024
3136.00,0.0025
3133.00,0.0025
3130.00,0.0025
3127.00,0.0025
3124.00,0.0024
3121.00,0.0023
3118.00,0.0024
3115.00,0.0025
3112.00,0.0028
3109.00,0.0032
3106.00,0.0034
3103.00,0.0035
3100.00,0.0034
3097.00,0.0034
3094.00,0.0036
3091.00,0.0040
3088.00,0.0048
3085.00,0.0058
3082.00,0.0063
3079.00,0.0059
3076.00,0.0053
3073.00,0.0052
3070.00,0.0054
3067.00,0.0061
3064.00,0.0072
3061.00,0.0081
3058.00,0.0080
3055.00,0.0070
3052.00,0.0059
3049.00,0.0053
3046.00,0.0050
3043.00,0.0049
3040.00,0.0054
3037.00,0.0064
3034.00,0.0080
3031.00,0.0105
3028.00,0.0133
3025.00,0.0145
3022.00,0.0127
3019.00,0.0094
3016.00,0.0067
3013.00,0.0051
3010.00,0.0044
3007.00,0.0042
3004.00,0.0044
3001.00,0.0044
2998.00,0.0038
2995.00,0.0030
2992.00,0.0025
2989.00,0.0022
2986.00,0.0021
2983.00,0.0016
2980.00,0.0014
2977.00,0.0019
2974.00,0.0022
2971.00,0.0024
2968.00,0.0030
2965.00,0.0035
2962.00,0.0040
2959.00,0.0046
2956.00,0.0052
2953.00,0.0058
2950.00,0.0065
2947.00,0.0075
2944.00,0.0087
2941.00,0.0101
2938.00,0.0118
2935.00,0.0137
2932.00,0.0156
2929.00,0.0175
2926.00,0.0191
2923.00,0.0197
2920.00,0.0196
2917.00,0.0189
2914.00,0.0177
2911.00,0.0162
2908.00,0.0148
2905.00,0.0134
2902.00,0.0120
2899.00,0.0108
2896.00,0.0096
2893.00,0.0087
2890.00,0.0080
2887.00,0.0075
2884.00,0.0070
2881.00,0.0067
2878.00,0.0065
2875.00,0.0063
2872.00,0.0062
2869.00,0.0061
2866.00,0.0064
2863.00,0.0070
2860.00,0.0078
2857.00,0.0088
2854.00,0.0097
2851.00,0.0101
2848.00,0.0098
2845.00,0.0088
2842.00,0.0075
2839.00,0.0060
2836.00,0.0048
2833.00,0.0041
2830.00,0.0037
2827.00,0.0035
2824.00,0.0033
2821.00,0.0032
2818.00,0.0032
2815.00,0.0031
2812.00,0.0030
2809.00,0.0030
2806.00,0.0029
2803.00,0.0029
2800.00,0.0028
2797.00,0.0027
2794.00,0.0027
2791.00,0.0027
2788.00,0.0027
2785.00,0.0027
2782.00,0.0026
2779.00,0.0026
2776.00,0.0026
2773.00,0.0025
2770.00,0.0026
2767.00,0.0025
2764.00,0.0025
2761.00,0.0025
2758.00,0.0025
2755.00,0.0025
2752.00,0.0025
2749.00,0.0024
2746.00,0.0024
2743.00,0.0025
2740.00,0.0025
2737.00,0.0025
2734.00,0.0025
2731.00,0.0024
2728.00,0.0024
2725.00,0.0024
2722.00,0.0024
2719.00,0.0025
2716.00,0.0025
2713.00,0.0025
2710.00,0.0025
2707.00,0.0025
2704.00,0.0024
2701.00,0.0025
2698.00,0.0025
2695.00,0.0024
2692.00,0.0024
2689.00,0.0024
2686.00,0.0024
2683.00,0.0024
2680.00,0.0024
2677.00,0.0024
2674.00,0.0024
2671.00,0.0024
2668.00,0.0024
2665.00,0.0025
2662.00,0.0026
2659.00,0.0027
2656.00,0.0027
2653.00,0.0027
2650.00,0.0027
2647.00,0.0027
2644.00,0.0027
2641.00,0.0027
2638.00,0.0027
2635.00,0.0027
2632.00,0.0027
2629.00,0.0026
2626.00,0.0026
2623.00,0.0026
2620.00,0.0025
2617.00,0.0025
2614.00,0.0024
2611.00,0.0024
2608.00,0.0024
2605.00,0.0024
2602.00,0.0025
2599.00,0.0024
2596.00,0.0023
2593.00,0.0023
2590.00,0.0023
2587.00,0.0023
2584.00,0.0023
2581.00,0.0023
2578.00,0.0022
2575.00,0.0023
2572.00,0.0022
2569.00,0.0022
2566.00,0.0021
2563.00,0.0021
2560.00,0.0021
2557.00,0.0021
2554.00,0.0020
2551.00,0.0020
2548.00,0.0021
2545.00,0.0020
2542.00,0.0020
2539.00,0.0020
2536.00,0.0020
2533.00,0.0019
2530.00,0.0019
2527.00,0.0020
2524.00,0.0020
2521.00,0.0020
2518.00,0.0019
2515.00,0.0020
2512.00,0.0019
2509.00,0.0019
2506.00,0.0018
2503.00,0.0019
2500.00,0.0019
2497.00,0.0019
2494.00,0.0019
2491.00,0.0018
2488.00,0.0018
2485.00,0.0017
2482.00,0.0017
2479.00,0.0019
2476.00,0.0018
2473.00,0.0016
2470.00,0.0017
2467.00,0.0017
2464.00,0.0017
2461.00,0.0018
2458.00,0.0018
2455.00,0.0018
2452.00,0.0019
2449.00,0.0017
2446.00,0.0016
2443.00,0.0017
2440.00,0.0018
2437.00,0.0017
2434.00,0.0016
2431.00,0.0017
2428.00,0.0016
2425.00,0.0016
2422.00,0.0016
2419.00,0.0016
2416.00,0.0015
2413.00,0.0015
2410.00,0.0016
2407.00,0.0015
2404.00,0.0014
2401.00,0.0015
2398.00,0.0015
2395.00,0.0014
2392.00,0.0014
2389.00,0.0014
2386.00,0.0015
2383.00,0.0015
2380.00,0.0015
2377.00,0.0014
2374.00,0.0016
2371.00,0.0016
2368.00,0.0016
2365.00,0.0017
2362.00,0.0017
2359.00,0.0018
2356.00,0.0019
2353.00,0.0018
2350.00,0.0018
2347.00,0.0020
2344.00,0.0020
2341.00,0.0022
2338.00,0.0021
2335.00,0.0021
2332.00,0.0021
2329.00,0.0021
2326.00,0.0029
2323.00,0.0028
2320.00,0.0024
2317.00,0.0023
2314.00,0.0022
2311.00,0.0021
2308.00,0.0020
2305.00,0.0020
2302.00,0.0021
2299.00,0.0020
2296.00,0.0021
2293.00,0.0022
2290.00,0.0023
2287.00,0.0023
2284.00,0.0022
2281.00,0.0022
2278.00,0.0020
2275.00,0.0019
2272.00,0.0019
2269.00,0.0018
2266.00,0.0018
2263.00,0.0015
2260.00,0.0016
2257.00,0.0017
2254.00,0.0015
2251.00,0.0015
2248.00,0.0016
2245.00,0.0016
2242.00,0.0018
2239.00,0.0016
2236.00,0.0014
2233.00,0.0016
2230.00,0.0018
2227.00,0.0017
2224.00,0.0017
2221.00,0.0015
2218.00,0.0014
2215.00,0.0015
2212.00,0.0017
2209.00,0.0016
2206.00,0.0014
2203.00,0.0016
2200.00,0.0014
2197.00,0.0011
2194.00,0.0014
2191.00,0.0015
2188.00,0.0018
2185.00,0.0020
2182.00,0.0014
2179.00,0.0012
2176.00,0.0012
2173.00,0.0012
2170.00,0.0015
2167.00,0.0019
2164.00,0.0021
2161.00,0.0015
2158.00,-0.0005
2155.00,-0.0007
2152.00,-0.0003
2149.00,0.0003
2146.00,0.0004
2143.00,0.0000
2140.00,-0.0001
2137.00,-0.0006
2134.00,-0.0005
2131.00,-0.0001
2128.00,0.0003
2125.00,0.0005
2122.00,0.0006
2119.00,0.0008
2116.00,0.0011
2113.00,0.0011
2110.00,0.0013
2107.00,0.0012
2104.00,0.0012
2101.00,0.0013
2098.00,0.0012
2095.00,0.0008
2092.00,0.0010
2089.00,0.0013
2086.00,0.0013
2083.00,0.0013
2080.00,0.0014
2077.00,0.0013
2074.00,0.0007
2071.00,0.0009
2068.00,0.0009
2065.00,0.0008
2062.00,0.0013
2059.00,0.0012
2056.00,0.0009
2053.00,0.0014
2050.00,0.0014
2047.00,0.0012
2044.00,0.0013
2041.00,0.0011
2038.00,0.0008
2035.00,0.0003
2032.00,-0.0002
2029.00,0.0000
2026.00,0.0003
2023.00,0.0001
2020.00,0.0007
2017.00,0.0003
2014.00,0.0005
2011.00,0.0008
2008.00,-0.0002
2005.00,0.0001
2002.00,0.0006
1999.00,0.0006
1996.00,0.0006
1993.00,0.0007
1990.00,0.0011
1987.00,0.0012
1984.00,0.0014
1981.00,0.0016
1978.00,0.0001
1975.00,0.0001
1972.00,0.0005
1969.00,0.0005
1966.00,0.0009
1963.00,0.0012
1960.00,0.0007
1957.00,0.0011
1954.00,0.0014
1951.00,0.0013
1948.00,0.0014
1945.00,0.0020
1942.00,0.0023
1939.00,0.0019
1936.00,0.0016
1933.00,0.0017
1930.00,0.0014
1927.00,0.0010
1924.00,0.0011
1921.00,0.0009
1918.00,0.0008
1915.00,0.0008
1912.00,0.0009
1909.00,0.0011
1906.00,0.0011
1903.00,0.0010
1900.00,0.0011
1897.00,0.0013
1894.00,0.0014
1891.00,0.0016
1888.00,0.0019
1885.00,0.0020
1882.00,0.0020
1879.00,0.0022
1876.00,0.0023
1873.00,0.0023
1870.00,0.0024
1867.00,0.0024
1864.00,0.0022
1861.00,0.0020
1858.00,0.0017
1855.00,0.0015
1852.00,0.0013
1849.00,0.0012
1846.00,0.0012
1843.00,0.0011
1840.00,0.0011
1837.00,0.0012
1834.00,0.0013
1831.00,0.0016
1828.00,0.0016
1825.00,0.0017
1822.00,0.0020
1819.00,0.0020
1816.00,0.0022
1813.00,0.0024
1810.00,0.0027
1807.00,0.0029
1804.00,0.0031
1801.00,0.0031
1798.00,0.0029
1795.00,0.0027
1792.00,0.0024
1789.00,0.0020
1786.00,0.0021
1783.00,0.0022
1780.00,0.0021
1777.00,0.0021
1774.00,0.0024
1771.00,0.0025
1768.00,0.0025
1765.00,0.0028
1762.00,0.0035
1759.00,0.0038
1756.00,0.0041
1753.00,0.0044
1750.00,0.0050
1747.00,0.0057
1744.00,0.0064
1741.00,0.0066
1738.00,0.0065
1735.00,0.0060
1732.00,0.0056
1729.00,0.0057
1726.00,0.0055
1723.00,0.0053
1720.00,0.0051
1717.00,0.0047
1714.00,0.0044
1711.00,0.0043
1708.00,0.0041
1705.00,0.0041
1702.00,0.0035
1699.00,0.0032
1696.00,0.0029
1693.00,0.0029
1690.00,0.0030
1687.00,0.0030
1684.00,0.0031
1681.00,0.0034
1678.00,0.0035
1675.00,0.0036
1672.00,0.0037
1669.00,0.0040
1666.00,0.0040
1663.00,0.0041
1660.00,0.0039
1657.00,0.0041
1654.00,0.0041
1651.00,0.0039
1648.00,0.0037
1645.00,0.0036
1642.00,0.0037
1639.00,0.0037
1636.00,0.0036
1633.00,0.0038
1630.00,0.0038
1627.00,0.0039
1624.00,0.0040
1621.00,0.0040
1618.00,0.0039
1615.00,0.0042
1612.00,0.0048
1609.00,0.0063
1606.00,0.0097
1603.00,0.0142
1600.00,0.0153
1597.00,0.0116
1594.00,0.0081
1591.00,0.0064
1588.00,0.0061
1585.00,0.0071
1582.00,0.0072
1579.00,0.0055
1576.00,0.0041
1573.00,0.0038
1570.00,0.0035
1567.00,0.0031
1564.00,0.0033
1561.00,0.0035
1558.00,0.0031
1555.00,0.0034
1552.00,0.0034
1549.00,0.0035
1546.00,0.0036
1543.00,0.0040
1540.00,0.0036
1537.00,0.0031
1534.00,0.0030
1531.00,0.0028
1528.00,0.0028
1525.00,0.0030
1522.00,0.0033
1519.00,0.0033
1516.00,0.0031
1513.00,0.0032
1510.00,0.0036
1507.00,0.0039
1504.00,0.0044
1501.00,0.0062
1498.00,0.0117
1495.00,0.0266
1492.00,0.0343
1489.00,0.0217
1486.00,0.0120
1483.00,0.0080
1480.00,0.0061
1477.00,0.0054
1474.00,0.0053
1471.00,0.0053
1468.00,0.0059
1465.00,0.0065
1462.00,0.0072
1459.00,0.0100
1456.00,0.0212
1453.00,0.0346
1450.00,0.0345
1447.00,0.0267
1444.00,0.0214
1441.00,0.0172
1438.00,0.0141
1435.00,0.0106
1432.00,0.0085
1429.00,0.0073
1426.00,0.0067
1423.00,0.0061
1420.00,0.0060
1417.00,0.0056
1414.00,0.0055
1411.00,0.0055
1408.00,0.0053
1405.00,0.0052
1402.00,0.0050
1399.00,0.0049
1396.00,0.0052
1393.00,0.0055
1390.00,0.0061
1387.00,0.0070
1384.00,0.0077
1381.00,0.0085
1378.00,0.0093
1375.00,0.0101
1372.00,0.0105
1369.00,0.0104
1366.00,0.0102
1363.00,0.0101
1360.00,0.0096
1357.00,0.0092
1354.00,0.0090
1351.00,0.0090
1348.00,0.0090
1345.00,0.0088
1342.00,0.0088
1339.00,0.0089
1336.00,0.0089
1333.00,0.0093
1330.00,0.0097
1327.00,0.0097
1324.00,0.0095
1321.00,0.0093
1318.00,0.0095
1315.00,0.0099
1312.00,0.0098
1309.00,0.0096
1306.00,0.0092
1303.00,0.0088
1300.00,0.0084
1297.00,0.0083
1294.00,0.0082
1291.00,0.0082
1288.00,0.0080
1285.00,0.0079
1282.00,0.0080
1279.00,0.0079
1276.00,0.0077
1273.00,0.0075
1270.00,0.0074
1267.00,0.0073
1264.00,0.0073
1261.00,0.0073
1258.00,0.0072
1255.00,0.0072
1252.00,0.0074
1249.00,0.0076
1246.00,0.0077
1243.00,0.0078
1240.00,0.0078
1237.00,0.0078
1234.00,0.0078
1231.00,0.0077
1228.00,0.0077
1225.00,0.0075
1222.00,0.0071
1219.00,0.0068
1216.00,0.0066
1213.00,0.0066
1210.00,0.0068
1207.00,0.0073
1204.00,0.0078
1201.00,0.0083
1198.00,0.0086
1195.00,0.0086
1192.00,0.0085
1189.00,0.0087
1186.00,0.0093
1183.00,0.0105
1180.00,0.0107
1177.00,0.0094
1174.00,0.0083
1171.00,0.0082
1168.00,0.0084
1165.00,0.0088
1162.00,0.0095
1159.00,0.0106
1156.00,0.0121
1153.00,0.0119
1150.00,0.0098
1147.00,0.0082
1144.00,0.0076
1141.00,0.0071
1138.00,0.0069
1135.00,0.0068
1132.00,0.0068
1129.00,0.0073
1126.00,0.0077
1123.00,0.0082
1120.00,0.0088
1117.00,0.0096
1114.00,0.0107
1111.00,0.0113
1108.00,0.0113
1105.00,0.0112
1102.00,0.0113
1099.00,0.0113
1096.00,0.0113
1093.00,0.0113
1090.00,0.0115
1087.00,0.0118
1084.00,0.0123
1081.00,0.0132
1078.00,0.0140
1075.00,0.0153
1072.00,0.0168
1069.00,0.0179
1066.00,0.0176
1063.00,0.0170
1060.00,0.0162
1057.00,0.0157
1054.00,0.0152
1051.00,0.0146
1048.00,0.0142
1045.00,0.0139
1042.00,0.0139
1039.00,0.0146
1036.00,0.0170
1033.00,0.0220
1030.00,0.0271
1027.00,0.0280
1024.00,0.0245
1021.00,0.0211
1018.00,0.0191
1015.00,0.0177
1012.00,0.0164
1009.00,0.0157
1006.00,0.0161
1003.00,0.0166
1000.00,0.0155
997.00,0.0141
994.00,0.0135
991.00,0.0135
988.00,0.0138
985.00,0.0144
982.00,0.0147
979.00,0.0143
976.00,0.0134
973.00,0.0126
970.00,0.0126
967.00,0.0131
964.00,0.0133
961.00,0.0123
958.00,0.0109
955.00,0.0100
952.00,0.0097
949.00,0.0098
946.00,0.0100
943.00,0.0100
940.00,0.0098
937.00,0.0091
934.00,0.0084
931.00,0.0080
928.00,0.0080
925.00,0.0081
922.00,0.0083
919.00,0.0089
916.00,0.0101
913.00,0.0123
910.00,0.0151
907.00,0.0168
904.00,0.0161
901.00,0.0134
898.00,0.0106
895.00,0.0090
892.00,0.0081
889.00,0.0075
886.00,0.0070
883.00,0.0068
880.00,0.0068
877.00,0.0066
874.00,0.0065
871.00,0.0063
868.00,0.0061
865.00,0.0060
862.00,0.0060
859.00,0.0060
856.00,0.0061
853.00,0.0064
850.00,0.0071
847.00,0.0082
844.00,0.0093
841.00,0.0095
838.00,0.0087
835.00,0.0074
832.00,0.0062
829.00,0.0057
826.00,0.0056
823.00,0.0054
820.00,0.0055
817.00,0.0057
814.00,0.0058
811.00,0.0060
808.00,0.0060
805.00,0.0061
802.00,0.0064
799.00,0.0067
796.00,0.0073
793.00,0.0081
790.00,0.0091
787.00,0.0102
784.00,0.0117
781.00,0.0137
778.00,0.0168
775.00,0.0210
772.00,0.0265
769.00,0.0332
766.00,0.0399
763.00,0.0461
760.00,0.0525
757.00,0.0577
754.00,0.0592
751.00,0.0586
748.00,0.0582
745.00,0.0539
742.00,0.0435
739.00,0.0329
736.00,0.0246
733.00,0.0175
730.00,0.0131
727.00,0.0114
724.00,0.0110
721.00,0.0109
718.00,0.0112
715.00,0.0126
712.00,0.0168
709.00,0.0270
706.00,0.0479
703.00,0.0805
700.00,0.1208
697.00,0.1598
694.00,0.1704
691.00,0.1299
688.00,0.0859
685.00,0.0614
682.00,0.0481
679.00,0.0398
676.00,0.0344
673.00,0.0310
670.00,0.0288
667.00,0.0265
664.00,0.0241
661.00,0.0219
658.00,0.0197
655.00,0.0178
652.00,0.0163
649.00,0.0153
646.00,0.0146
643.00,0.0141
640.00,0.0139
637.00,0.0144
634.00,0.0151
631.00,0.0161
628.00,0.0166
625.00,0.0171
622.00,0.0179
619.00,0.0180
616.00,0.0170
613.00,0.0162
610.00,0.0160
607.00,0.0157
604.00,0.0157
601.00,0.0157
598.00,0.0159
595.00,0.0163
592.00,0.0170
589.00,0.0176
586.00,0.0182
583.00,0.0189
580.00,0.0202
577.00,0.0219
574.00,0.0245
571.00,0.0273
568.00,0.0297
565.00,0.0324
562.00,0.0349
559.00,0.0374
556.00,0.0399
553.00,0.0423
550.00,0.0454
547.00,0.0501
544.00,0.0560
541.00,0.0620
538.00,0.0646
535.00,0.0614
532.00,0.0543
529.00,0.0455
526.00,0.0379
523.00,0.0330
520.00,0.0291
517.00,0.0266
514.00,0.0248
511.00,0.0231
508.00,0.0210
505.00,0.0192
502.00,0.0176
499.00,0.0175
496.00,0.0174
493.00,0.0169
490.00,0.0157
487.00,0.0150
484.00,0.0147
481.00,0.0145
478.00,0.0146
475.00,0.0142
472.00,0.0136
469.00,0.0140
466.00,0.0137
463.00,0.0135
460.00,0.0134
457.00,0.0121
454.00,0.0126
451.00,0.0130
448.00,0.0130
445.00,0.0129
442.00,0.0122
439.00,0.0118
436.00,0.0129
433.00,0.0121
430.00,0.0114
427.00,0.0113
424.00,0.0120
421.00,0.0107
418.00,0.0094
415.00,0.0109
412.00,0.0128
409.00,0.0116
406.00,0.0118
403.00,0.0108
400.00,0.0010