File: FTIR/Mary/2025_06_11_Standard_Polystyrene_prescan_2.csv
Created as New Dataset,Sample 656 By YargerLab Date Wednesday, June 11 2025
cm-1,A
4000.00,0.0033
3997.00,0.0032
3994.00,0.0032
3991.00,0.0033
3988.00,0.0033
3985.00,0.0033
3982.00,0.0032
3979.00,0.0032
3976.00,0.0032
3973.00,0.0032
3970.00,0.0033
3967.00,0.0033
3964.00,0.0033
3961.00,0.0032
3958.00,0.0033
3955.00,0.0033
3952.00,0.0033
3949.00,0.0034
3946.00,0.0035
3943.00,0.0033
3940.00,0.0033
3937.00,0.0034
3934.00,0.0036
3931.00,0.0035
3928.00,0.0034
3925.00,0.0033
3922.00,0.0035
3919.00,0.0037
3916.00,0.0035
3913.00,0.0033
3910.00,0.0032
3907.00,0.0033
3904.00,0.0037
3901.00,0.0043
3898.00,0.0039
3895.00,0.0037
3892.00,0.0034
3889.00,0.0037
3886.00,0.0040
3883.00,0.0038
3880.00,0.0037
3877.00,0.0038
3874.00,0.0037
3871.00,0.0040
3868.00,0.0040
3865.00,0.0041
3862.00,0.0040
3859.00,0.0038
3856.00,0.0031
3853.00,0.0034
3850.00,0.0040
3847.00,0.0040
3844.00,0.0039
3841.00,0.0040
3838.00,0.0041
3835.00,0.0040
3832.00,0.0040
3829.00,0.0039
3826.00,0.0038
3823.00,0.0040
3820.00,0.0038
3817.00,0.0041
3814.00,0.0036
3811.00,0.0035
3808.00,0.0036
3805.00,0.0039
3802.00,0.0041
3799.00,0.0039
3796.00,0.0038
3793.00,0.0035
3790.00,0.0033
3787.00,0.0032
3784.00,0.0032
3781.00,0.0035
3778.00,0.0035
3775.00,0.0034
3772.00,0.0035
3769.00,0.0037
3766.00,0.0038
3763.00,0.0038
3760.00,0.0039
3757.00,0.0039
3754.00,0.0042
3751.00,0.0044
3748.00,0.0047
3745.00,0.0049
3742.00,0.0046
3739.00,0.0050
3736.00,0.0050
3733.00,0.0048
3730.00,0.0043
3727.00,0.0042
3724.00,0.0041
3721.00,0.0039
3718.00,0.0037
3715.00,0.0037
3712.00,0.0040
3709.00,0.0040
3706.00,0.0038
3703.00,0.0035
3700.00,0.0033
3697.00,0.0033
3694.00,0.0034
3691.00,0.0035
3688.00,0.0038
3685.00,0.0037
3682.00,0.0036
3679.00,0.0038
3676.00,0.0043
3673.00,0.0043
3670.00,0.0043
3667.00,0.0039
3664.00,0.0035
3661.00,0.0034
3658.00,0.0035
3655.00,0.0039
3652.00,0.0045
3649.00,0.0048
3646.00,0.0046
3643.00,0.0039
3640.00,0.0035
3637.00,0.0035
3634.00,0.0037
3631.00,0.0040
3628.00,0.0043
3625.00,0.0044
3622.00,0.0041
3619.00,0.0039
3616.00,0.0044
3613.00,0.0044
3610.00,0.0047
3607.00,0.0044
3604.00,0.0041
3601.00,0.0040
3598.00,0.0042
3595.00,0.0042
3592.00,0.0043
3589.00,0.0045
3586.00,0.0044
3583.00,0.0044
3580.00,0.0039
3577.00,0.0038
3574.00,0.0039
3571.00,0.0042
3568.00,0.0047
3565.00,0.0046
3562.00,0.0044
3559.00,0.0041
3556.00,0.0041
3553.00,0.0041
3550.00,0.0043
3547.00,0.0046
3544.00,0.0045
3541.00,0.0044
3538.00,0.0043
3535.00,0.0042
3532.00,0.0043
3529.00,0.0044
3526.00,0.0047
3523.00,0.0047
3520.00,0.0047
3517.00,0.0045
3514.00,0.0045
3511.00,0.0045
3508.00,0.0045
3505.00,0.0047
3502.00,0.0047
3499.00,0.0048
3496.00,0.0047
3493.00,0.0047
3490.00,0.0046
3487.00,0.0047
3484.00,0.0048
3481.00,0.0048
3478.00,0.0049
3475.00,0.0048
3472.00,0.0049
3469.00,0.0050
3466.00,0.0049
3463.00,0.0049
3460.00,0.0050
3457.00,0.0053
3454.00,0.0052
3451.00,0.0050
3448.00,0.0052
3445.00,0.0052
3442.00,0.0052
3439.00,0.0052
3436.00,0.0052
3433.00,0.0052
3430.00,0.0053
3427.00,0.0054
3424.00,0.0053
3421.00,0.0054
3418.00,0.0055
3415.00,0.0055
3412.00,0.0055
3409.00,0.0055
3406.00,0.0056
3403.00,0.0056
3400.00,0.0058
3397.00,0.0058
3394.00,0.0058
3391.00,0.0058
3388.00,0.0059
3385.00,0.0060
3382.00,0.0060
3379.00,0.0061
3376.00,0.0061
3373.00,0.0061
3370.00,0.0062
3367.00,0.0063
3364.00,0.0065
3361.00,0.0066
3358.00,0.0065
3355.00,0.0066
3352.00,0.0067
3349.00,0.0068
3346.00,0.0069
3343.00,0.0070
3340.00,0.0071
3337.00,0.0073
3334.00,0.0072
3331.00,0.0072
3328.00,0.0074
3325.00,0.0075
3322.00,0.0076
3319.00,0.0077
3316.00,0.0078
3313.00,0.0079
3310.00,0.0081
3307.00,0.0081
3304.00,0.0082
3301.00,0.0083
3298.00,0.0085
3295.00,0.0085
3292.00,0.0085
3289.00,0.0085
3286.00,0.0085
3283.00,0.0085
3280.00,0.0084
3277.00,0.0084
3274.00,0.0084
3271.00,0.0084
3268.00,0.0084
3265.00,0.0081
3262.00,0.0078
3259.00,0.0077
3256.00,0.0075
3253.00,0.0074
3250.00,0.0073
3247.00,0.0073
3244.00,0.0072
3241.00,0.0071
3238.00,0.0070
3235.00,0.0069
3232.00,0.0069
3229.00,0.0068
3226.00,0.0067
3223.00,0.0066
3220.00,0.0065
3217.00,0.0065
3214.00,0.0065
3211.00,0.0064
3208.00,0.0063
3205.00,0.0062
3202.00,0.0062
3199.00,0.0061
3196.00,0.0060
3193.00,0.0059
3190.00,0.0059
3187.00,0.0058
3184.00,0.0057
3181.00,0.0057
3178.00,0.0056
3175.00,0.0056
3172.00,0.0054
3169.00,0.0054
3166.00,0.0054
3163.00,0.0053
3160.00,0.0052
3157.00,0.0052
3154.00,0.0052
3151.00,0.0052
3148.00,0.0051
3145.00,0.0051
3142.00,0.0052
3139.00,0.0052
3136.00,0.0050
3133.00,0.0049
3130.00,0.0050
3127.00,0.0050
3124.00,0.0050
3121.00,0.0050
3118.00,0.0051
3115.00,0.0053
3112.00,0.0054
3109.00,0.0058
3106.00,0.0061
3103.00,0.0062
3100.00,0.0063
3097.00,0.0061
3094.00,0.0062
3091.00,0.0068
3088.00,0.0078
3085.00,0.0090
3082.00,0.0095
3079.00,0.0091
3076.00,0.0083
3073.00,0.0080
3070.00,0.0083
3067.00,0.0092
3064.00,0.0104
3061.00,0.0114
3058.00,0.0113
3055.00,0.0102
3052.00,0.0089
3049.00,0.0082
3046.00,0.0079
3043.00,0.0079
3040.00,0.0083
3037.00,0.0093
3034.00,0.0111
3031.00,0.0137
3028.00,0.0167
3025.00,0.0180
3022.00,0.0160
3019.00,0.0124
3016.00,0.0095
3013.00,0.0078
3010.00,0.0071
3007.00,0.0070
3004.00,0.0072
3001.00,0.0074
2998.00,0.0069
2995.00,0.0062
2992.00,0.0056
2989.00,0.0054
2986.00,0.0053
2983.00,0.0054
2980.00,0.0055
2977.00,0.0055
2974.00,0.0055
2971.00,0.0056
2968.00,0.0057
2965.00,0.0059
2962.00,0.0061
2959.00,0.0064
2956.00,0.0067
2953.00,0.0073
2950.00,0.0079
2947.00,0.0089
2944.00,0.0100
2941.00,0.0112
2938.00,0.0127
2935.00,0.0143
2932.00,0.0161
2929.00,0.0178
2926.00,0.0192
2923.00,0.0201
2920.00,0.0205
2917.00,0.0204
2914.00,0.0193
2911.00,0.0178
2908.00,0.0164
2905.00,0.0149
2902.00,0.0135
2899.00,0.0123
2896.00,0.0113
2893.00,0.0104
2890.00,0.0097
2887.00,0.0092
2884.00,0.0088
2881.00,0.0083
2878.00,0.0080
2875.00,0.0077
2872.00,0.0074
2869.00,0.0073
2866.00,0.0073
2863.00,0.0075
2860.00,0.0081
2857.00,0.0089
2854.00,0.0098
2851.00,0.0107
2848.00,0.0109
2845.00,0.0102
2842.00,0.0089
2839.00,0.0076
2836.00,0.0064
2833.00,0.0056
2830.00,0.0052
2827.00,0.0050
2824.00,0.0048
2821.00,0.0047
2818.00,0.0047
2815.00,0.0046
2812.00,0.0045
2809.00,0.0045
2806.00,0.0045
2803.00,0.0044
2800.00,0.0044
2797.00,0.0042
2794.00,0.0042
2791.00,0.0042
2788.00,0.0042
2785.00,0.0042
2782.00,0.0041
2779.00,0.0041
2776.00,0.0041
2773.00,0.0040
2770.00,0.0039
2767.00,0.0039
2764.00,0.0038
2761.00,0.0039
2758.00,0.0039
2755.00,0.0039
2752.00,0.0038
2749.00,0.0038
2746.00,0.0038
2743.00,0.0038
2740.00,0.0039
2737.00,0.0038
2734.00,0.0037
2731.00,0.0036
2728.00,0.0037
2725.00,0.0038
2722.00,0.0038
2719.00,0.0037
2716.00,0.0037
2713.00,0.0037
2710.00,0.0037
2707.00,0.0037
2704.00,0.0037
2701.00,0.0037
2698.00,0.0037
2695.00,0.0036
2692.00,0.0036
2689.00,0.0036
2686.00,0.0036
2683.00,0.0037
2680.00,0.0036
2677.00,0.0036
2674.00,0.0036
2671.00,0.0035
2668.00,0.0036
2665.00,0.0038
2662.00,0.0038
2659.00,0.0038
2656.00,0.0038
2653.00,0.0038
2650.00,0.0038
2647.00,0.0038
2644.00,0.0038
2641.00,0.0037
2638.00,0.0037
2635.00,0.0038
2632.00,0.0039
2629.00,0.0038
2626.00,0.0037
2623.00,0.0037
2620.00,0.0036
2617.00,0.0037
2614.00,0.0036
2611.00,0.0036
2608.00,0.0036
2605.00,0.0036
2602.00,0.0035
2599.00,0.0035
2596.00,0.0034
2593.00,0.0034
2590.00,0.0035
2587.00,0.0034
2584.00,0.0033
2581.00,0.0032
2578.00,0.0031
2575.00,0.0031
2572.00,0.0033
2569.00,0.0032
2566.00,0.0032
2563.00,0.0032
2560.00,0.0032
2557.00,0.0031
2554.00,0.0031
2551.00,0.0031
2548.00,0.0031
2545.00,0.0031
2542.00,0.0032
2539.00,0.0031
2536.00,0.0030
2533.00,0.0031
2530.00,0.0031
2527.00,0.0031
2524.00,0.0030
2521.00,0.0029
2518.00,0.0030
2515.00,0.0031
2512.00,0.0029
2509.00,0.0031
2506.00,0.0030
2503.00,0.0030
2500.00,0.0030
2497.00,0.0029
2494.00,0.0030
2491.00,0.0029
2488.00,0.0030
2485.00,0.0030
2482.00,0.0030
2479.00,0.0029
2476.00,0.0029
2473.00,0.0029
2470.00,0.0029
2467.00,0.0029
2464.00,0.0029
2461.00,0.0029
2458.00,0.0030
2455.00,0.0028
2452.00,0.0028
2449.00,0.0027
2446.00,0.0027
2443.00,0.0028
2440.00,0.0028
2437.00,0.0028
2434.00,0.0028
2431.00,0.0027
2428.00,0.0026
2425.00,0.0026
2422.00,0.0027
2419.00,0.0027
2416.00,0.0026
2413.00,0.0026
2410.00,0.0026
2407.00,0.0025
2404.00,0.0026
2401.00,0.0025
2398.00,0.0025
2395.00,0.0024
2392.00,0.0025
2389.00,0.0025
2386.00,0.0025
2383.00,0.0025
2380.00,0.0025
2377.00,0.0025
2374.00,0.0025
2371.00,0.0026
2368.00,0.0024
2365.00,0.0024
2362.00,0.0029
2359.00,0.0028
2356.00,0.0025
2353.00,0.0027
2350.00,0.0028
2347.00,0.0028
2344.00,0.0029
2341.00,0.0029
2338.00,0.0030
2335.00,0.0030
2332.00,0.0028
2329.00,0.0031
2326.00,0.0034
2323.00,0.0034
2320.00,0.0033
2317.00,0.0032
2314.00,0.0031
2311.00,0.0032
2308.00,0.0032
2305.00,0.0031
2302.00,0.0030
2299.00,0.0031
2296.00,0.0032
2293.00,0.0033
2290.00,0.0031
2287.00,0.0032
2284.00,0.0031
2281.00,0.0030
2278.00,0.0029
2275.00,0.0028
2272.00,0.0027
2269.00,0.0028
2266.00,0.0029
2263.00,0.0027
2260.00,0.0026
2257.00,0.0025
2254.00,0.0026
2251.00,0.0028
2248.00,0.0027
2245.00,0.0025
2242.00,0.0025
2239.00,0.0027
2236.00,0.0027
2233.00,0.0025
2230.00,0.0027
2227.00,0.0025
2224.00,0.0024
2221.00,0.0024
2218.00,0.0026
2215.00,0.0024
2212.00,0.0024
2209.00,0.0025
2206.00,0.0027
2203.00,0.0027
2200.00,0.0027
2197.00,0.0026
2194.00,0.0023
2191.00,0.0025
2188.00,0.0028
2185.00,0.0028
2182.00,0.0022
2179.00,0.0022
2176.00,0.0024
2173.00,0.0027
2170.00,0.0028
2167.00,0.0030
2164.00,0.0031
2161.00,0.0021
2158.00,0.0002
2155.00,0.0005
2152.00,0.0011
2149.00,0.0013
2146.00,0.0014
2143.00,0.0013
2140.00,0.0012
2137.00,0.0005
2134.00,0.0005
2131.00,0.0011
2128.00,0.0016
2125.00,0.0017
2122.00,0.0017
2119.00,0.0020
2116.00,0.0022
2113.00,0.0021
2110.00,0.0020
2107.00,0.0023
2104.00,0.0022
2101.00,0.0020
2098.00,0.0020
2095.00,0.0018
2092.00,0.0018
2089.00,0.0020
2086.00,0.0020
2083.00,0.0022
2080.00,0.0024
2077.00,0.0026
2074.00,0.0027
2071.00,0.0025
2068.00,0.0022
2065.00,0.0019
2062.00,0.0018
2059.00,0.0017
2056.00,0.0022
2053.00,0.0028
2050.00,0.0025
2047.00,0.0019
2044.00,0.0021
2041.00,0.0023
2038.00,0.0019
2035.00,0.0017
2032.00,0.0016
2029.00,0.0012
2026.00,0.0012
2023.00,0.0014
2020.00,0.0015
2017.00,0.0017
2014.00,0.0010
2011.00,-0.0009
2008.00,0.0006
2005.00,0.0018
2002.00,0.0020
1999.00,0.0017
1996.00,0.0014
1993.00,0.0018
1990.00,0.0020
1987.00,0.0023
1984.00,0.0026
1981.00,0.0036
1978.00,0.0026
1975.00,0.0012
1972.00,0.0018
1969.00,0.0023
1966.00,0.0023
1963.00,0.0024
1960.00,0.0022
1957.00,0.0024
1954.00,0.0028
1951.00,0.0029
1948.00,0.0035
1945.00,0.0034
1942.00,0.0036
1939.00,0.0034
1936.00,0.0030
1933.00,0.0026
1930.00,0.0024
1927.00,0.0022
1924.00,0.0020
1921.00,0.0021
1918.00,0.0022
1915.00,0.0020
1912.00,0.0020
1909.00,0.0020
1906.00,0.0020
1903.00,0.0019
1900.00,0.0019
1897.00,0.0023
1894.00,0.0025
1891.00,0.0027
1888.00,0.0029
1885.00,0.0031
1882.00,0.0030
1879.00,0.0030
1876.00,0.0032
1873.00,0.0034
1870.00,0.0034
1867.00,0.0033
1864.00,0.0031
1861.00,0.0027
1858.00,0.0025
1855.00,0.0025
1852.00,0.0023
1849.00,0.0022
1846.00,0.0023
1843.00,0.0021
1840.00,0.0020
1837.00,0.0020
1834.00,0.0021
1831.00,0.0020
1828.00,0.0023
1825.00,0.0025
1822.00,0.0026
1819.00,0.0025
1816.00,0.0027
1813.00,0.0031
1810.00,0.0032
1807.00,0.0035
1804.00,0.0036
1801.00,0.0037
1798.00,0.0036
1795.00,0.0034
1792.00,0.0032
1789.00,0.0029
1786.00,0.0026
1783.00,0.0025
1780.00,0.0025
1777.00,0.0026
1774.00,0.0025
1771.00,0.0024
1768.00,0.0025
1765.00,0.0023
1762.00,0.0020
1759.00,0.0021
1756.00,0.0024
1753.00,0.0027
1750.00,0.0027
1747.00,0.0025
1744.00,0.0022
1741.00,0.0020
1738.00,0.0020
1735.00,0.0025
1732.00,0.0026
1729.00,0.0023
1726.00,0.0021
1723.00,0.0022
1720.00,0.0024
1717.00,0.0026
1714.00,0.0028
1711.00,0.0028
1708.00,0.0033
1705.00,0.0038
1702.00,0.0047
1699.00,0.0058
1696.00,0.0065
1693.00,0.0068
1690.00,0.0073
1687.00,0.0079
1684.00,0.0086
1681.00,0.0091
1678.00,0.0096
1675.00,0.0102
1672.00,0.0109
1669.00,0.0113
1666.00,0.0118
1663.00,0.0122
1660.00,0.0128
1657.00,0.0130
1654.00,0.0130
1651.00,0.0136
1648.00,0.0139
1645.00,0.0139
1642.00,0.0139
1639.00,0.0139
1636.00,0.0140
1633.00,0.0137
1630.00,0.0135
1627.00,0.0132
1624.00,0.0127
1621.00,0.0119
1618.00,0.0114
1615.00,0.0110
1612.00,0.0110
1609.00,0.0119
1606.00,0.0149
1603.00,0.0190
1600.00,0.0195
1597.00,0.0154
1594.00,0.0118
1591.00,0.0099
1588.00,0.0094
1585.00,0.0107
1582.00,0.0112
1579.00,0.0094
1576.00,0.0084
1573.00,0.0082
1570.00,0.0082
1567.00,0.0087
1564.00,0.0088
1561.00,0.0089
1558.00,0.0100
1555.00,0.0103
1552.00,0.0111
1549.00,0.0117
1546.00,0.0124
1543.00,0.0126
1540.00,0.0131
1537.00,0.0132
1534.00,0.0130
1531.00,0.0128
1528.00,0.0126
1525.00,0.0126
1522.00,0.0127
1519.00,0.0131
1516.00,0.0135
1513.00,0.0133
1510.00,0.0129
1507.00,0.0127
1504.00,0.0129
1501.00,0.0139
1498.00,0.0188
1495.00,0.0342
1492.00,0.0426
1489.00,0.0285
1486.00,0.0173
1483.00,0.0125
1480.00,0.0102
1477.00,0.0095
1474.00,0.0091
1471.00,0.0091
1468.00,0.0089
1465.00,0.0093
1462.00,0.0104
1459.00,0.0129
1456.00,0.0251
1453.00,0.0393
1450.00,0.0393
1447.00,0.0311
1444.00,0.0255
1441.00,0.0209
1438.00,0.0174
1435.00,0.0137
1432.00,0.0115
1429.00,0.0097
1426.00,0.0089
1423.00,0.0086
1420.00,0.0083
1417.00,0.0084
1414.00,0.0082
1411.00,0.0082
1408.00,0.0083
1405.00,0.0082
1402.00,0.0082
1399.00,0.0083
1396.00,0.0082
1393.00,0.0083
1390.00,0.0089
1387.00,0.0095
1384.00,0.0103
1381.00,0.0108
1378.00,0.0115
1375.00,0.0121
1372.00,0.0123
1369.00,0.0122
1366.00,0.0119
1363.00,0.0116
1360.00,0.0113
1357.00,0.0109
1354.00,0.0106
1351.00,0.0107
1348.00,0.0105
1345.00,0.0102
1342.00,0.0099
1339.00,0.0095
1336.00,0.0097
1333.00,0.0101
1330.00,0.0105
1327.00,0.0103
1324.00,0.0100
1321.00,0.0097
1318.00,0.0099
1315.00,0.0101
1312.00,0.0101
1309.00,0.0100
1306.00,0.0096
1303.00,0.0092
1300.00,0.0088
1297.00,0.0085
1294.00,0.0084
1291.00,0.0083
1288.00,0.0081
1285.00,0.0081
1282.00,0.0080
1279.00,0.0079
1276.00,0.0077
1273.00,0.0073
1270.00,0.0073
1267.00,0.0071
1264.00,0.0069
1261.00,0.0070
1258.00,0.0070
1255.00,0.0070
1252.00,0.0072
1249.00,0.0071
1246.00,0.0073
1243.00,0.0072
1240.00,0.0073
1237.00,0.0072
1234.00,0.0072
1231.00,0.0074
1228.00,0.0074
1225.00,0.0074
1222.00,0.0073
1219.00,0.0075
1216.00,0.0075
1213.00,0.0076
1210.00,0.0077
1207.00,0.0079
1204.00,0.0081
1201.00,0.0085
1198.00,0.0086
1195.00,0.0087
1192.00,0.0086
1189.00,0.0086
1186.00,0.0093
1183.00,0.0103
1180.00,0.0106
1177.00,0.0092
1174.00,0.0079
1171.00,0.0072
1168.00,0.0070
1165.00,0.0071
1162.00,0.0075
1159.00,0.0087
1156.00,0.0103
1153.00,0.0103
1150.00,0.0084
1147.00,0.0069
1144.00,0.0061
1141.00,0.0056
1138.00,0.0053
1135.00,0.0052
1132.00,0.0052
1129.00,0.0051
1126.00,0.0050
1123.00,0.0051
1120.00,0.0056
1117.00,0.0060
1114.00,0.0063
1111.00,0.0065
1108.00,0.0064
1105.00,0.0063
1102.00,0.0065
1099.00,0.0066
1096.00,0.0068
1093.00,0.0072
1090.00,0.0075
1087.00,0.0080
1084.00,0.0088
1081.00,0.0095
1078.00,0.0106
1075.00,0.0118
1072.00,0.0131
1069.00,0.0138
1066.00,0.0135
1063.00,0.0122
1060.00,0.0110
1057.00,0.0103
1054.00,0.0096
1051.00,0.0091
1048.00,0.0085
1045.00,0.0083
1042.00,0.0084
1039.00,0.0091
1036.00,0.0110
1033.00,0.0158
1030.00,0.0213
1027.00,0.0225
1024.00,0.0188
1021.00,0.0154
1018.00,0.0130
1015.00,0.0117
1012.00,0.0109
1009.00,0.0106
1006.00,0.0108
1003.00,0.0112
1000.00,0.0100
997.00,0.0087
994.00,0.0082
991.00,0.0082
988.00,0.0085
985.00,0.0093
982.00,0.0098
979.00,0.0100
976.00,0.0095
973.00,0.0089
970.00,0.0095
967.00,0.0101
964.00,0.0106
961.00,0.0100
958.00,0.0088
955.00,0.0079
952.00,0.0081
949.00,0.0083
946.00,0.0086
943.00,0.0087
940.00,0.0084
937.00,0.0080
934.00,0.0074
931.00,0.0068
928.00,0.0065
925.00,0.0068
922.00,0.0071
919.00,0.0077
916.00,0.0089
913.00,0.0111
910.00,0.0140
907.00,0.0160
904.00,0.0153
901.00,0.0124
898.00,0.0093
895.00,0.0074
892.00,0.0065
889.00,0.0059
886.00,0.0057
883.00,0.0056
880.00,0.0053
877.00,0.0049
874.00,0.0048
871.00,0.0047
868.00,0.0048
865.00,0.0046
862.00,0.0045
859.00,0.0047
856.00,0.0049
853.00,0.0053
850.00,0.0059
847.00,0.0072
844.00,0.0085
841.00,0.0087
838.00,0.0081
835.00,0.0067
832.00,0.0055
829.00,0.0053
826.00,0.0051
823.00,0.0050
820.00,0.0048
817.00,0.0048
814.00,0.0052
811.00,0.0054
808.00,0.0054
805.00,0.0053
802.00,0.0056
799.00,0.0061
796.00,0.0067
793.00,0.0075
790.00,0.0085
787.00,0.0099
784.00,0.0115
781.00,0.0136
778.00,0.0168
775.00,0.0212
772.00,0.0269
769.00,0.0339
766.00,0.0409
763.00,0.0477
760.00,0.0550
757.00,0.0608
754.00,0.0625
751.00,0.0623
748.00,0.0620
745.00,0.0571
742.00,0.0460
739.00,0.0350
736.00,0.0260
733.00,0.0183
730.00,0.0132
727.00,0.0109
724.00,0.0100
721.00,0.0100
718.00,0.0105
715.00,0.0120
712.00,0.0162
709.00,0.0273
706.00,0.0492
703.00,0.0838
700.00,0.1267
697.00,0.1698
694.00,0.1857
691.00,0.1439
688.00,0.0951
685.00,0.0675
682.00,0.0525
679.00,0.0430
676.00,0.0369
673.00,0.0331
670.00,0.0306
667.00,0.0274
664.00,0.0250
661.00,0.0224
658.00,0.0204
655.00,0.0182
652.00,0.0168
649.00,0.0158
646.00,0.0146
643.00,0.0143
640.00,0.0143
637.00,0.0146
634.00,0.0154
631.00,0.0161
628.00,0.0169
625.00,0.0171
622.00,0.0177
619.00,0.0177
616.00,0.0165
613.00,0.0156
610.00,0.0154
607.00,0.0146
604.00,0.0145
601.00,0.0147
598.00,0.0152
595.00,0.0157
592.00,0.0161
589.00,0.0163
586.00,0.0171
583.00,0.0180
580.00,0.0196
577.00,0.0221
574.00,0.0242
571.00,0.0270
568.00,0.0296
565.00,0.0318
562.00,0.0345
559.00,0.0374
556.00,0.0396
553.00,0.0430
550.00,0.0470
547.00,0.0518
544.00,0.0580
541.00,0.0649
538.00,0.0686
535.00,0.0664
532.00,0.0574
529.00,0.0474
526.00,0.0397
523.00,0.0334
520.00,0.0292
517.00,0.0267
514.00,0.0248
511.00,0.0229
508.00,0.0204
505.00,0.0193
502.00,0.0192
499.00,0.0175
496.00,0.0162
493.00,0.0152
490.00,0.0146
487.00,0.0141
484.00,0.0133
481.00,0.0127
478.00,0.0127
475.00,0.0122
472.00,0.0118
469.00,0.0123
466.00,0.0123
463.00,0.0126
460.00,0.0122
457.00,0.0117
454.00,0.0100
451.00,0.0101
448.00,0.0098
445.00,0.0099
442.00,0.0106
439.00,0.0096
436.00,0.0091
433.00,0.0081
430.00,0.0083
427.00,0.0083
424.00,0.0084
421.00,0.0102
418.00,0.0074
415.00,0.0073
412.00,0.0092
409.00,0.0097
406.00,0.0057
403.00,0.0076
400.00,0.0039