File: FTIR/Mary/2025_12_02_Polystyrene_Standard_Scan1.csv
Created as New Dataset,Sample 384 By YargerLab Date Tuesday, December 02 2025
cm-1,A
4000.00,0.0005
3997.00,0.0005
3994.00,0.0005
3991.00,0.0005
3988.00,0.0006
3985.00,0.0006
3982.00,0.0005
3979.00,0.0005
3976.00,0.0005
3973.00,0.0005
3970.00,0.0005
3967.00,0.0006
3964.00,0.0006
3961.00,0.0005
3958.00,0.0005
3955.00,0.0005
3952.00,0.0005
3949.00,0.0005
3946.00,0.0005
3943.00,0.0005
3940.00,0.0005
3937.00,0.0005
3934.00,0.0005
3931.00,0.0005
3928.00,0.0005
3925.00,0.0005
3922.00,0.0005
3919.00,0.0004
3916.00,0.0004
3913.00,0.0004
3910.00,0.0005
3907.00,0.0005
3904.00,0.0005
3901.00,0.0004
3898.00,0.0004
3895.00,0.0004
3892.00,0.0004
3889.00,0.0005
3886.00,0.0005
3883.00,0.0004
3880.00,0.0004
3877.00,0.0004
3874.00,0.0006
3871.00,0.0005
3868.00,0.0005
3865.00,0.0005
3862.00,0.0005
3859.00,0.0006
3856.00,0.0005
3853.00,0.0005
3850.00,0.0003
3847.00,0.0004
3844.00,0.0006
3841.00,0.0005
3838.00,0.0004
3835.00,0.0005
3832.00,0.0005
3829.00,0.0004
3826.00,0.0005
3823.00,0.0004
3820.00,0.0006
3817.00,0.0004
3814.00,0.0005
3811.00,0.0005
3808.00,0.0005
3805.00,0.0006
3802.00,0.0006
3799.00,0.0005
3796.00,0.0004
3793.00,0.0004
3790.00,0.0006
3787.00,0.0006
3784.00,0.0005
3781.00,0.0005
3778.00,0.0005
3775.00,0.0006
3772.00,0.0005
3769.00,0.0005
3766.00,0.0005
3763.00,0.0005
3760.00,0.0005
3757.00,0.0005
3754.00,0.0006
3751.00,0.0006
3748.00,0.0005
3745.00,0.0004
3742.00,0.0004
3739.00,0.0005
3736.00,0.0005
3733.00,0.0004
3730.00,0.0005
3727.00,0.0005
3724.00,0.0005
3721.00,0.0005
3718.00,0.0005
3715.00,0.0005
3712.00,0.0005
3709.00,0.0003
3706.00,0.0003
3703.00,0.0004
3700.00,0.0004
3697.00,0.0004
3694.00,0.0004
3691.00,0.0004
3688.00,0.0004
3685.00,0.0004
3682.00,0.0005
3679.00,0.0005
3676.00,0.0005
3673.00,0.0004
3670.00,0.0004
3667.00,0.0004
3664.00,0.0004
3661.00,0.0005
3658.00,0.0005
3655.00,0.0005
3652.00,0.0005
3649.00,0.0005
3646.00,0.0004
3643.00,0.0005
3640.00,0.0006
3637.00,0.0005
3634.00,0.0006
3631.00,0.0006
3628.00,0.0006
3625.00,0.0005
3622.00,0.0006
3619.00,0.0006
3616.00,0.0006
3613.00,0.0005
3610.00,0.0005
3607.00,0.0005
3604.00,0.0005
3601.00,0.0006
3598.00,0.0007
3595.00,0.0007
3592.00,0.0008
3589.00,0.0007
3586.00,0.0007
3583.00,0.0007
3580.00,0.0007
3577.00,0.0007
3574.00,0.0008
3571.00,0.0009
3568.00,0.0008
3565.00,0.0007
3562.00,0.0008
3559.00,0.0009
3556.00,0.0010
3553.00,0.0010
3550.00,0.0010
3547.00,0.0010
3544.00,0.0010
3541.00,0.0010
3538.00,0.0011
3535.00,0.0011
3532.00,0.0011
3529.00,0.0011
3526.00,0.0012
3523.00,0.0012
3520.00,0.0011
3517.00,0.0012
3514.00,0.0012
3511.00,0.0013
3508.00,0.0013
3505.00,0.0013
3502.00,0.0014
3499.00,0.0014
3496.00,0.0014
3493.00,0.0014
3490.00,0.0014
3487.00,0.0015
3484.00,0.0015
3481.00,0.0016
3478.00,0.0016
3475.00,0.0016
3472.00,0.0016
3469.00,0.0016
3466.00,0.0016
3463.00,0.0015
3460.00,0.0016
3457.00,0.0016
3454.00,0.0017
3451.00,0.0017
3448.00,0.0017
3445.00,0.0017
3442.00,0.0017
3439.00,0.0018
3436.00,0.0018
3433.00,0.0017
3430.00,0.0018
3427.00,0.0018
3424.00,0.0018
3421.00,0.0018
3418.00,0.0018
3415.00,0.0018
3412.00,0.0018
3409.00,0.0018
3406.00,0.0018
3403.00,0.0019
3400.00,0.0019
3397.00,0.0018
3394.00,0.0019
3391.00,0.0018
3388.00,0.0019
3385.00,0.0019
3382.00,0.0018
3379.00,0.0019
3376.00,0.0019
3373.00,0.0019
3370.00,0.0019
3367.00,0.0019
3364.00,0.0019
3361.00,0.0020
3358.00,0.0020
3355.00,0.0020
3352.00,0.0020
3349.00,0.0020
3346.00,0.0020
3343.00,0.0020
3340.00,0.0020
3337.00,0.0020
3334.00,0.0021
3331.00,0.0021
3328.00,0.0021
3325.00,0.0021
3322.00,0.0021
3319.00,0.0021
3316.00,0.0021
3313.00,0.0021
3310.00,0.0021
3307.00,0.0020
3304.00,0.0021
3301.00,0.0021
3298.00,0.0021
3295.00,0.0021
3292.00,0.0021
3289.00,0.0021
3286.00,0.0021
3283.00,0.0021
3280.00,0.0021
3277.00,0.0020
3274.00,0.0020
3271.00,0.0020
3268.00,0.0021
3265.00,0.0020
3262.00,0.0020
3259.00,0.0020
3256.00,0.0020
3253.00,0.0020
3250.00,0.0020
3247.00,0.0020
3244.00,0.0019
3241.00,0.0019
3238.00,0.0020
3235.00,0.0019
3232.00,0.0019
3229.00,0.0019
3226.00,0.0019
3223.00,0.0020
3220.00,0.0019
3217.00,0.0019
3214.00,0.0019
3211.00,0.0020
3208.00,0.0020
3205.00,0.0019
3202.00,0.0019
3199.00,0.0019
3196.00,0.0019
3193.00,0.0018
3190.00,0.0018
3187.00,0.0019
3184.00,0.0018
3181.00,0.0018
3178.00,0.0018
3175.00,0.0017
3172.00,0.0017
3169.00,0.0018
3166.00,0.0018
3163.00,0.0019
3160.00,0.0018
3157.00,0.0018
3154.00,0.0018
3151.00,0.0018
3148.00,0.0017
3145.00,0.0017
3142.00,0.0017
3139.00,0.0018
3136.00,0.0018
3133.00,0.0018
3130.00,0.0017
3127.00,0.0018
3124.00,0.0018
3121.00,0.0018
3118.00,0.0019
3115.00,0.0020
3112.00,0.0021
3109.00,0.0023
3106.00,0.0026
3103.00,0.0028
3100.00,0.0028
3097.00,0.0027
3094.00,0.0028
3091.00,0.0031
3088.00,0.0038
3085.00,0.0048
3082.00,0.0053
3079.00,0.0049
3076.00,0.0044
3073.00,0.0042
3070.00,0.0044
3067.00,0.0050
3064.00,0.0059
3061.00,0.0068
3058.00,0.0069
3055.00,0.0061
3052.00,0.0051
3049.00,0.0044
3046.00,0.0041
3043.00,0.0041
3040.00,0.0045
3037.00,0.0052
3034.00,0.0065
3031.00,0.0086
3028.00,0.0111
3025.00,0.0123
3022.00,0.0112
3019.00,0.0085
3016.00,0.0062
3013.00,0.0045
3010.00,0.0039
3007.00,0.0038
3004.00,0.0040
3001.00,0.0042
2998.00,0.0039
2995.00,0.0034
2992.00,0.0030
2989.00,0.0028
2986.00,0.0027
2983.00,0.0028
2980.00,0.0029
2977.00,0.0031
2974.00,0.0033
2971.00,0.0034
2968.00,0.0037
2965.00,0.0040
2962.00,0.0044
2959.00,0.0048
2956.00,0.0052
2953.00,0.0057
2950.00,0.0062
2947.00,0.0069
2944.00,0.0078
2941.00,0.0090
2938.00,0.0104
2935.00,0.0120
2932.00,0.0138
2929.00,0.0154
2926.00,0.0167
2923.00,0.0173
2920.00,0.0173
2917.00,0.0167
2914.00,0.0156
2911.00,0.0143
2908.00,0.0130
2905.00,0.0117
2902.00,0.0105
2899.00,0.0093
2896.00,0.0083
2893.00,0.0076
2890.00,0.0070
2887.00,0.0064
2884.00,0.0060
2881.00,0.0057
2878.00,0.0053
2875.00,0.0051
2872.00,0.0050
2869.00,0.0050
2866.00,0.0052
2863.00,0.0056
2860.00,0.0063
2857.00,0.0072
2854.00,0.0080
2851.00,0.0085
2848.00,0.0082
2845.00,0.0073
2842.00,0.0060
2839.00,0.0047
2836.00,0.0036
2833.00,0.0029
2830.00,0.0025
2827.00,0.0023
2824.00,0.0021
2821.00,0.0020
2818.00,0.0019
2815.00,0.0019
2812.00,0.0019
2809.00,0.0019
2806.00,0.0018
2803.00,0.0017
2800.00,0.0017
2797.00,0.0016
2794.00,0.0016
2791.00,0.0016
2788.00,0.0016
2785.00,0.0015
2782.00,0.0015
2779.00,0.0015
2776.00,0.0014
2773.00,0.0014
2770.00,0.0014
2767.00,0.0014
2764.00,0.0014
2761.00,0.0014
2758.00,0.0013
2755.00,0.0013
2752.00,0.0013
2749.00,0.0013
2746.00,0.0013
2743.00,0.0013
2740.00,0.0013
2737.00,0.0013
2734.00,0.0013
2731.00,0.0013
2728.00,0.0013
2725.00,0.0013
2722.00,0.0013
2719.00,0.0013
2716.00,0.0013
2713.00,0.0013
2710.00,0.0012
2707.00,0.0012
2704.00,0.0013
2701.00,0.0013
2698.00,0.0012
2695.00,0.0012
2692.00,0.0012
2689.00,0.0012
2686.00,0.0012
2683.00,0.0013
2680.00,0.0013
2677.00,0.0012
2674.00,0.0012
2671.00,0.0012
2668.00,0.0012
2665.00,0.0013
2662.00,0.0015
2659.00,0.0015
2656.00,0.0015
2653.00,0.0016
2650.00,0.0016
2647.00,0.0016
2644.00,0.0016
2641.00,0.0016
2638.00,0.0016
2635.00,0.0016
2632.00,0.0016
2629.00,0.0016
2626.00,0.0015
2623.00,0.0014
2620.00,0.0014
2617.00,0.0014
2614.00,0.0013
2611.00,0.0013
2608.00,0.0013
2605.00,0.0014
2602.00,0.0014
2599.00,0.0013
2596.00,0.0012
2593.00,0.0012
2590.00,0.0011
2587.00,0.0011
2584.00,0.0012
2581.00,0.0012
2578.00,0.0012
2575.00,0.0011
2572.00,0.0011
2569.00,0.0011
2566.00,0.0010
2563.00,0.0010
2560.00,0.0010
2557.00,0.0010
2554.00,0.0010
2551.00,0.0009
2548.00,0.0009
2545.00,0.0009
2542.00,0.0009
2539.00,0.0009
2536.00,0.0009
2533.00,0.0009
2530.00,0.0008
2527.00,0.0009
2524.00,0.0008
2521.00,0.0008
2518.00,0.0008
2515.00,0.0009
2512.00,0.0008
2509.00,0.0007
2506.00,0.0008
2503.00,0.0008
2500.00,0.0008
2497.00,0.0008
2494.00,0.0007
2491.00,0.0007
2488.00,0.0008
2485.00,0.0007
2482.00,0.0008
2479.00,0.0007
2476.00,0.0007
2473.00,0.0007
2470.00,0.0007
2467.00,0.0006
2464.00,0.0007
2461.00,0.0008
2458.00,0.0008
2455.00,0.0008
2452.00,0.0008
2449.00,0.0007
2446.00,0.0007
2443.00,0.0006
2440.00,0.0007
2437.00,0.0006
2434.00,0.0005
2431.00,0.0006
2428.00,0.0005
2425.00,0.0005
2422.00,0.0004
2419.00,0.0004
2416.00,0.0005
2413.00,0.0004
2410.00,0.0004
2407.00,0.0003
2404.00,0.0003
2401.00,0.0004
2398.00,0.0003
2395.00,0.0003
2392.00,0.0003
2389.00,0.0003
2386.00,0.0003
2383.00,0.0003
2380.00,0.0003
2377.00,0.0003
2374.00,0.0003
2371.00,0.0002
2368.00,0.0003
2365.00,0.0004
2362.00,0.0005
2359.00,0.0006
2356.00,0.0004
2353.00,0.0003
2350.00,0.0006
2347.00,0.0006
2344.00,0.0008
2341.00,0.0008
2338.00,0.0009
2335.00,0.0009
2332.00,0.0007
2329.00,0.0010
2326.00,0.0017
2323.00,0.0015
2320.00,0.0012
2317.00,0.0012
2314.00,0.0012
2311.00,0.0011
2308.00,0.0011
2305.00,0.0010
2302.00,0.0009
2299.00,0.0009
2296.00,0.0011
2293.00,0.0013
2290.00,0.0015
2287.00,0.0015
2284.00,0.0013
2281.00,0.0011
2278.00,0.0010
2275.00,0.0009
2272.00,0.0009
2269.00,0.0008
2266.00,0.0007
2263.00,0.0007
2260.00,0.0008
2257.00,0.0007
2254.00,0.0006
2251.00,0.0008
2248.00,0.0008
2245.00,0.0007
2242.00,0.0007
2239.00,0.0007
2236.00,0.0007
2233.00,0.0006
2230.00,0.0006
2227.00,0.0007
2224.00,0.0006
2221.00,0.0004
2218.00,0.0004
2215.00,0.0004
2212.00,0.0007
2209.00,0.0007
2206.00,0.0005
2203.00,0.0008
2200.00,0.0006
2197.00,0.0006
2194.00,0.0007
2191.00,0.0009
2188.00,0.0009
2185.00,0.0005
2182.00,0.0000
2179.00,-0.0000
2176.00,0.0001
2173.00,0.0005
2170.00,0.0010
2167.00,0.0015
2164.00,0.0014
2161.00,0.0003
2158.00,-0.0018
2155.00,-0.0015
2152.00,-0.0010
2149.00,-0.0009
2146.00,-0.0010
2143.00,-0.0010
2140.00,-0.0009
2137.00,-0.0012
2134.00,-0.0015
2131.00,-0.0011
2128.00,-0.0007
2125.00,-0.0006
2122.00,-0.0003
2119.00,-0.0000
2116.00,0.0002
2113.00,0.0002
2110.00,0.0002
2107.00,0.0003
2104.00,0.0002
2101.00,0.0002
2098.00,-0.0000
2095.00,-0.0003
2092.00,0.0001
2089.00,0.0003
2086.00,0.0004
2083.00,0.0006
2080.00,0.0005
2077.00,0.0004
2074.00,0.0004
2071.00,0.0003
2068.00,0.0003
2065.00,0.0005
2062.00,0.0004
2059.00,0.0002
2056.00,0.0003
2053.00,0.0010
2050.00,0.0010
2047.00,0.0007
2044.00,0.0004
2041.00,0.0007
2038.00,0.0009
2035.00,0.0004
2032.00,0.0001
2029.00,0.0000
2026.00,-0.0002
2023.00,-0.0004
2020.00,-0.0007
2017.00,-0.0007
2014.00,-0.0012
2011.00,-0.0023
2008.00,-0.0008
2005.00,-0.0009
2002.00,-0.0006
1999.00,-0.0003
1996.00,0.0001
1993.00,0.0002
1990.00,0.0002
1987.00,0.0008
1984.00,0.0007
1981.00,0.0014
1978.00,0.0008
1975.00,0.0003
1972.00,-0.0002
1969.00,0.0001
1966.00,0.0002
1963.00,0.0003
1960.00,0.0001
1957.00,0.0006
1954.00,0.0008
1951.00,0.0007
1948.00,0.0010
1945.00,0.0014
1942.00,0.0013
1939.00,0.0010
1936.00,0.0009
1933.00,0.0007
1930.00,0.0005
1927.00,0.0003
1924.00,0.0002
1921.00,0.0002
1918.00,0.0003
1915.00,0.0003
1912.00,0.0002
1909.00,0.0002
1906.00,0.0001
1903.00,0.0001
1900.00,0.0002
1897.00,0.0003
1894.00,0.0005
1891.00,0.0006
1888.00,0.0008
1885.00,0.0008
1882.00,0.0011
1879.00,0.0012
1876.00,0.0012
1873.00,0.0013
1870.00,0.0014
1867.00,0.0014
1864.00,0.0012
1861.00,0.0009
1858.00,0.0008
1855.00,0.0007
1852.00,0.0005
1849.00,0.0004
1846.00,0.0003
1843.00,0.0004
1840.00,0.0003
1837.00,0.0003
1834.00,0.0004
1831.00,0.0005
1828.00,0.0006
1825.00,0.0008
1822.00,0.0009
1819.00,0.0009
1816.00,0.0010
1813.00,0.0013
1810.00,0.0015
1807.00,0.0017
1804.00,0.0019
1801.00,0.0019
1798.00,0.0019
1795.00,0.0017
1792.00,0.0015
1789.00,0.0014
1786.00,0.0014
1783.00,0.0013
1780.00,0.0015
1777.00,0.0015
1774.00,0.0015
1771.00,0.0017
1768.00,0.0019
1765.00,0.0019
1762.00,0.0022
1759.00,0.0025
1756.00,0.0030
1753.00,0.0038
1750.00,0.0045
1747.00,0.0051
1744.00,0.0056
1741.00,0.0058
1738.00,0.0057
1735.00,0.0057
1732.00,0.0052
1729.00,0.0049
1726.00,0.0046
1723.00,0.0044
1720.00,0.0042
1717.00,0.0041
1714.00,0.0038
1711.00,0.0038
1708.00,0.0037
1705.00,0.0037
1702.00,0.0037
1699.00,0.0037
1696.00,0.0037
1693.00,0.0039
1690.00,0.0043
1687.00,0.0046
1684.00,0.0048
1681.00,0.0049
1678.00,0.0051
1675.00,0.0052
1672.00,0.0053
1669.00,0.0054
1666.00,0.0054
1663.00,0.0055
1660.00,0.0054
1657.00,0.0054
1654.00,0.0053
1651.00,0.0049
1648.00,0.0049
1645.00,0.0047
1642.00,0.0047
1639.00,0.0045
1636.00,0.0043
1633.00,0.0042
1630.00,0.0042
1627.00,0.0042
1624.00,0.0041
1621.00,0.0041
1618.00,0.0042
1615.00,0.0042
1612.00,0.0046
1609.00,0.0057
1606.00,0.0083
1603.00,0.0119
1600.00,0.0129
1597.00,0.0101
1594.00,0.0071
1591.00,0.0057
1588.00,0.0052
1585.00,0.0060
1582.00,0.0063
1579.00,0.0049
1576.00,0.0037
1573.00,0.0032
1570.00,0.0030
1567.00,0.0029
1564.00,0.0029
1561.00,0.0028
1558.00,0.0028
1555.00,0.0030
1552.00,0.0033
1549.00,0.0035
1546.00,0.0037
1543.00,0.0037
1540.00,0.0036
1537.00,0.0035
1534.00,0.0034
1531.00,0.0032
1528.00,0.0031
1525.00,0.0030
1522.00,0.0030
1519.00,0.0030
1516.00,0.0031
1513.00,0.0031
1510.00,0.0032
1507.00,0.0033
1504.00,0.0038
1501.00,0.0051
1498.00,0.0094
1495.00,0.0212
1492.00,0.0289
1489.00,0.0188
1486.00,0.0102
1483.00,0.0068
1480.00,0.0052
1477.00,0.0047
1474.00,0.0045
1471.00,0.0046
1468.00,0.0051
1465.00,0.0056
1462.00,0.0063
1459.00,0.0082
1456.00,0.0163
1453.00,0.0274
1450.00,0.0282
1447.00,0.0219
1444.00,0.0176
1441.00,0.0141
1438.00,0.0116
1435.00,0.0086
1432.00,0.0070
1429.00,0.0059
1426.00,0.0053
1423.00,0.0050
1420.00,0.0049
1417.00,0.0048
1414.00,0.0048
1411.00,0.0047
1408.00,0.0047
1405.00,0.0048
1402.00,0.0048
1399.00,0.0049
1396.00,0.0050
1393.00,0.0053
1390.00,0.0058
1387.00,0.0064
1384.00,0.0069
1381.00,0.0075
1378.00,0.0080
1375.00,0.0085
1372.00,0.0085
1369.00,0.0085
1366.00,0.0084
1363.00,0.0083
1360.00,0.0079
1357.00,0.0077
1354.00,0.0075
1351.00,0.0075
1348.00,0.0073
1345.00,0.0071
1342.00,0.0069
1339.00,0.0067
1336.00,0.0067
1333.00,0.0071
1330.00,0.0075
1327.00,0.0076
1324.00,0.0074
1321.00,0.0072
1318.00,0.0072
1315.00,0.0073
1312.00,0.0073
1309.00,0.0072
1306.00,0.0069
1303.00,0.0066
1300.00,0.0064
1297.00,0.0064
1294.00,0.0064
1291.00,0.0063
1288.00,0.0062
1285.00,0.0061
1282.00,0.0060
1279.00,0.0059
1276.00,0.0057
1273.00,0.0055
1270.00,0.0054
1267.00,0.0053
1264.00,0.0051
1261.00,0.0051
1258.00,0.0051
1255.00,0.0051
1252.00,0.0052
1249.00,0.0053
1246.00,0.0054
1243.00,0.0054
1240.00,0.0054
1237.00,0.0055
1234.00,0.0055
1231.00,0.0055
1228.00,0.0056
1225.00,0.0056
1222.00,0.0056
1219.00,0.0056
1216.00,0.0056
1213.00,0.0056
1210.00,0.0057
1207.00,0.0060
1204.00,0.0063
1201.00,0.0066
1198.00,0.0069
1195.00,0.0071
1192.00,0.0072
1189.00,0.0073
1186.00,0.0079
1183.00,0.0088
1180.00,0.0091
1177.00,0.0081
1174.00,0.0072
1171.00,0.0068
1168.00,0.0067
1165.00,0.0067
1162.00,0.0068
1159.00,0.0076
1156.00,0.0089
1153.00,0.0089
1150.00,0.0075
1147.00,0.0064
1144.00,0.0058
1141.00,0.0053
1138.00,0.0051
1135.00,0.0049
1132.00,0.0048
1129.00,0.0048
1126.00,0.0048
1123.00,0.0050
1120.00,0.0053
1117.00,0.0057
1114.00,0.0059
1111.00,0.0060
1108.00,0.0060
1105.00,0.0060
1102.00,0.0061
1099.00,0.0062
1096.00,0.0063
1093.00,0.0065
1090.00,0.0068
1087.00,0.0072
1084.00,0.0075
1081.00,0.0080
1078.00,0.0086
1075.00,0.0095
1072.00,0.0107
1069.00,0.0113
1066.00,0.0108
1063.00,0.0098
1060.00,0.0089
1057.00,0.0082
1054.00,0.0076
1051.00,0.0072
1048.00,0.0068
1045.00,0.0067
1042.00,0.0066
1039.00,0.0068
1036.00,0.0084
1033.00,0.0119
1030.00,0.0159
1027.00,0.0167
1024.00,0.0140
1021.00,0.0115
1018.00,0.0098
1015.00,0.0087
1012.00,0.0079
1009.00,0.0077
1006.00,0.0079
1003.00,0.0081
1000.00,0.0073
997.00,0.0064
994.00,0.0062
991.00,0.0062
988.00,0.0064
985.00,0.0067
982.00,0.0072
979.00,0.0074
976.00,0.0069
973.00,0.0067
970.00,0.0070
967.00,0.0076
964.00,0.0077
961.00,0.0073
958.00,0.0065
955.00,0.0060
952.00,0.0059
949.00,0.0059
946.00,0.0062
943.00,0.0065
940.00,0.0062
937.00,0.0058
934.00,0.0053
931.00,0.0050
928.00,0.0049
925.00,0.0049
922.00,0.0051
919.00,0.0055
916.00,0.0064
913.00,0.0081
910.00,0.0099
907.00,0.0113
904.00,0.0108
901.00,0.0088
898.00,0.0067
895.00,0.0054
892.00,0.0047
889.00,0.0044
886.00,0.0041
883.00,0.0039
880.00,0.0038
877.00,0.0036
874.00,0.0036
871.00,0.0035
868.00,0.0034
865.00,0.0035
862.00,0.0035
859.00,0.0035
856.00,0.0036
853.00,0.0038
850.00,0.0043
847.00,0.0052
844.00,0.0060
841.00,0.0062
838.00,0.0057
835.00,0.0047
832.00,0.0038
829.00,0.0037
826.00,0.0035
823.00,0.0033
820.00,0.0032
817.00,0.0033
814.00,0.0033
811.00,0.0034
808.00,0.0034
805.00,0.0034
802.00,0.0036
799.00,0.0040
796.00,0.0044
793.00,0.0048
790.00,0.0056
787.00,0.0066
784.00,0.0078
781.00,0.0094
778.00,0.0116
775.00,0.0147
772.00,0.0189
769.00,0.0239
766.00,0.0288
763.00,0.0333
760.00,0.0380
757.00,0.0418
754.00,0.0429
751.00,0.0425
748.00,0.0422
745.00,0.0390
742.00,0.0315
739.00,0.0235
736.00,0.0171
733.00,0.0117
730.00,0.0083
727.00,0.0068
724.00,0.0061
721.00,0.0061
718.00,0.0063
715.00,0.0073
712.00,0.0102
709.00,0.0177
706.00,0.0328
703.00,0.0547
700.00,0.0805
697.00,0.1052
694.00,0.1127
691.00,0.0881
688.00,0.0586
685.00,0.0415
682.00,0.0320
679.00,0.0260
676.00,0.0223
673.00,0.0200
670.00,0.0182
667.00,0.0159
664.00,0.0145
661.00,0.0129
658.00,0.0115
655.00,0.0103
652.00,0.0095
649.00,0.0088
646.00,0.0080
643.00,0.0076
640.00,0.0077
637.00,0.0080
634.00,0.0084
631.00,0.0089
628.00,0.0092
625.00,0.0094
622.00,0.0100
619.00,0.0099
616.00,0.0092
613.00,0.0086
610.00,0.0080
607.00,0.0080
604.00,0.0082
601.00,0.0082
598.00,0.0084
595.00,0.0088
592.00,0.0092
589.00,0.0095
586.00,0.0098
583.00,0.0104
580.00,0.0116
577.00,0.0128
574.00,0.0145
571.00,0.0165
568.00,0.0179
565.00,0.0194
562.00,0.0213
559.00,0.0229
556.00,0.0243
553.00,0.0266
550.00,0.0291
547.00,0.0321
544.00,0.0357
541.00,0.0397
538.00,0.0414
535.00,0.0397
532.00,0.0345
529.00,0.0289
526.00,0.0234
523.00,0.0197
520.00,0.0175
517.00,0.0158
514.00,0.0143
511.00,0.0134
508.00,0.0123
505.00,0.0112
502.00,0.0105
499.00,0.0098
496.00,0.0095
493.00,0.0090
490.00,0.0085
487.00,0.0083
484.00,0.0083
481.00,0.0079
478.00,0.0078
475.00,0.0076
472.00,0.0070
469.00,0.0069
466.00,0.0073
463.00,0.0073
460.00,0.0073
457.00,0.0070
454.00,0.0067
451.00,0.0066
448.00,0.0072
445.00,0.0066
442.00,0.0066
439.00,0.0069
436.00,0.0064
433.00,0.0060
430.00,0.0060
427.00,0.0053
424.00,0.0052
421.00,0.0050
418.00,0.0057
415.00,0.0060
412.00,0.0069
409.00,0.0065
406.00,0.0067
403.00,0.0057
400.00,0.0044