File: FTIR/Mary/2025_10_03_Polystyrene_PostScan_Calibration_2.csv
Created as New Dataset,Sample 181 By YargerLab Date Friday, October 03 2025
cm-1,A
4000.00,0.0014
3997.00,0.0014
3994.00,0.0013
3991.00,0.0014
3988.00,0.0014
3985.00,0.0013
3982.00,0.0013
3979.00,0.0013
3976.00,0.0014
3973.00,0.0014
3970.00,0.0014
3967.00,0.0013
3964.00,0.0013
3961.00,0.0013
3958.00,0.0013
3955.00,0.0013
3952.00,0.0013
3949.00,0.0013
3946.00,0.0013
3943.00,0.0013
3940.00,0.0014
3937.00,0.0013
3934.00,0.0013
3931.00,0.0014
3928.00,0.0014
3925.00,0.0014
3922.00,0.0014
3919.00,0.0012
3916.00,0.0012
3913.00,0.0013
3910.00,0.0014
3907.00,0.0014
3904.00,0.0013
3901.00,0.0012
3898.00,0.0012
3895.00,0.0013
3892.00,0.0014
3889.00,0.0014
3886.00,0.0012
3883.00,0.0013
3880.00,0.0013
3877.00,0.0013
3874.00,0.0014
3871.00,0.0013
3868.00,0.0013
3865.00,0.0012
3862.00,0.0013
3859.00,0.0012
3856.00,0.0015
3853.00,0.0013
3850.00,0.0012
3847.00,0.0012
3844.00,0.0013
3841.00,0.0014
3838.00,0.0014
3835.00,0.0014
3832.00,0.0013
3829.00,0.0014
3826.00,0.0014
3823.00,0.0014
3820.00,0.0015
3817.00,0.0013
3814.00,0.0014
3811.00,0.0013
3808.00,0.0014
3805.00,0.0014
3802.00,0.0014
3799.00,0.0014
3796.00,0.0013
3793.00,0.0014
3790.00,0.0013
3787.00,0.0014
3784.00,0.0014
3781.00,0.0014
3778.00,0.0014
3775.00,0.0014
3772.00,0.0014
3769.00,0.0014
3766.00,0.0013
3763.00,0.0014
3760.00,0.0014
3757.00,0.0014
3754.00,0.0013
3751.00,0.0013
3748.00,0.0012
3745.00,0.0012
3742.00,0.0012
3739.00,0.0011
3736.00,0.0012
3733.00,0.0011
3730.00,0.0011
3727.00,0.0012
3724.00,0.0012
3721.00,0.0012
3718.00,0.0012
3715.00,0.0013
3712.00,0.0013
3709.00,0.0012
3706.00,0.0012
3703.00,0.0013
3700.00,0.0012
3697.00,0.0012
3694.00,0.0013
3691.00,0.0014
3688.00,0.0012
3685.00,0.0012
3682.00,0.0012
3679.00,0.0013
3676.00,0.0012
3673.00,0.0013
3670.00,0.0012
3667.00,0.0012
3664.00,0.0012
3661.00,0.0014
3658.00,0.0014
3655.00,0.0014
3652.00,0.0014
3649.00,0.0013
3646.00,0.0013
3643.00,0.0013
3640.00,0.0013
3637.00,0.0013
3634.00,0.0013
3631.00,0.0013
3628.00,0.0012
3625.00,0.0012
3622.00,0.0013
3619.00,0.0013
3616.00,0.0012
3613.00,0.0013
3610.00,0.0012
3607.00,0.0012
3604.00,0.0012
3601.00,0.0013
3598.00,0.0013
3595.00,0.0013
3592.00,0.0013
3589.00,0.0013
3586.00,0.0013
3583.00,0.0013
3580.00,0.0014
3577.00,0.0014
3574.00,0.0015
3571.00,0.0015
3568.00,0.0013
3565.00,0.0014
3562.00,0.0014
3559.00,0.0015
3556.00,0.0015
3553.00,0.0016
3550.00,0.0016
3547.00,0.0015
3544.00,0.0017
3541.00,0.0017
3538.00,0.0017
3535.00,0.0018
3532.00,0.0017
3529.00,0.0018
3526.00,0.0018
3523.00,0.0018
3520.00,0.0019
3517.00,0.0019
3514.00,0.0019
3511.00,0.0020
3508.00,0.0019
3505.00,0.0019
3502.00,0.0020
3499.00,0.0019
3496.00,0.0020
3493.00,0.0021
3490.00,0.0022
3487.00,0.0022
3484.00,0.0022
3481.00,0.0022
3478.00,0.0022
3475.00,0.0022
3472.00,0.0023
3469.00,0.0023
3466.00,0.0023
3463.00,0.0023
3460.00,0.0023
3457.00,0.0023
3454.00,0.0023
3451.00,0.0024
3448.00,0.0024
3445.00,0.0024
3442.00,0.0025
3439.00,0.0025
3436.00,0.0025
3433.00,0.0025
3430.00,0.0024
3427.00,0.0025
3424.00,0.0025
3421.00,0.0025
3418.00,0.0025
3415.00,0.0025
3412.00,0.0026
3409.00,0.0026
3406.00,0.0027
3403.00,0.0027
3400.00,0.0026
3397.00,0.0027
3394.00,0.0027
3391.00,0.0026
3388.00,0.0026
3385.00,0.0027
3382.00,0.0027
3379.00,0.0028
3376.00,0.0028
3373.00,0.0027
3370.00,0.0028
3367.00,0.0028
3364.00,0.0028
3361.00,0.0028
3358.00,0.0029
3355.00,0.0029
3352.00,0.0029
3349.00,0.0030
3346.00,0.0030
3343.00,0.0030
3340.00,0.0030
3337.00,0.0030
3334.00,0.0030
3331.00,0.0031
3328.00,0.0031
3325.00,0.0031
3322.00,0.0032
3319.00,0.0032
3316.00,0.0031
3313.00,0.0032
3310.00,0.0032
3307.00,0.0033
3304.00,0.0032
3301.00,0.0033
3298.00,0.0033
3295.00,0.0033
3292.00,0.0033
3289.00,0.0033
3286.00,0.0033
3283.00,0.0033
3280.00,0.0033
3277.00,0.0033
3274.00,0.0032
3271.00,0.0032
3268.00,0.0033
3265.00,0.0033
3262.00,0.0032
3259.00,0.0031
3256.00,0.0031
3253.00,0.0031
3250.00,0.0030
3247.00,0.0030
3244.00,0.0030
3241.00,0.0029
3238.00,0.0029
3235.00,0.0028
3232.00,0.0028
3229.00,0.0028
3226.00,0.0028
3223.00,0.0028
3220.00,0.0028
3217.00,0.0028
3214.00,0.0028
3211.00,0.0028
3208.00,0.0029
3205.00,0.0028
3202.00,0.0028
3199.00,0.0028
3196.00,0.0027
3193.00,0.0027
3190.00,0.0027
3187.00,0.0027
3184.00,0.0026
3181.00,0.0026
3178.00,0.0026
3175.00,0.0025
3172.00,0.0026
3169.00,0.0026
3166.00,0.0027
3163.00,0.0026
3160.00,0.0026
3157.00,0.0025
3154.00,0.0025
3151.00,0.0024
3148.00,0.0024
3145.00,0.0024
3142.00,0.0023
3139.00,0.0023
3136.00,0.0023
3133.00,0.0023
3130.00,0.0023
3127.00,0.0024
3124.00,0.0024
3121.00,0.0024
3118.00,0.0026
3115.00,0.0027
3112.00,0.0031
3109.00,0.0036
3106.00,0.0040
3103.00,0.0041
3100.00,0.0040
3097.00,0.0039
3094.00,0.0042
3091.00,0.0050
3088.00,0.0064
3085.00,0.0079
3082.00,0.0083
3079.00,0.0076
3076.00,0.0067
3073.00,0.0065
3070.00,0.0070
3067.00,0.0082
3064.00,0.0098
3061.00,0.0109
3058.00,0.0106
3055.00,0.0092
3052.00,0.0078
3049.00,0.0068
3046.00,0.0063
3043.00,0.0065
3040.00,0.0073
3037.00,0.0088
3034.00,0.0113
3031.00,0.0149
3028.00,0.0185
3025.00,0.0196
3022.00,0.0169
3019.00,0.0124
3016.00,0.0089
3013.00,0.0070
3010.00,0.0062
3007.00,0.0063
3004.00,0.0067
3001.00,0.0068
2998.00,0.0061
2995.00,0.0052
2992.00,0.0046
2989.00,0.0045
2986.00,0.0045
2983.00,0.0046
2980.00,0.0047
2977.00,0.0050
2974.00,0.0052
2971.00,0.0056
2968.00,0.0061
2965.00,0.0067
2962.00,0.0075
2959.00,0.0082
2956.00,0.0089
2953.00,0.0096
2950.00,0.0105
2947.00,0.0117
2944.00,0.0133
2941.00,0.0153
2938.00,0.0177
2935.00,0.0205
2932.00,0.0233
2929.00,0.0259
2926.00,0.0276
2923.00,0.0284
2920.00,0.0283
2917.00,0.0271
2914.00,0.0251
2911.00,0.0228
2908.00,0.0207
2905.00,0.0187
2902.00,0.0167
2899.00,0.0147
2896.00,0.0130
2893.00,0.0117
2890.00,0.0107
2887.00,0.0099
2884.00,0.0091
2881.00,0.0087
2878.00,0.0083
2875.00,0.0080
2872.00,0.0078
2869.00,0.0079
2866.00,0.0082
2863.00,0.0090
2860.00,0.0103
2857.00,0.0117
2854.00,0.0130
2851.00,0.0136
2848.00,0.0130
2845.00,0.0115
2842.00,0.0096
2839.00,0.0077
2836.00,0.0061
2833.00,0.0050
2830.00,0.0043
2827.00,0.0039
2824.00,0.0037
2821.00,0.0036
2818.00,0.0034
2815.00,0.0033
2812.00,0.0033
2809.00,0.0032
2806.00,0.0031
2803.00,0.0030
2800.00,0.0030
2797.00,0.0030
2794.00,0.0029
2791.00,0.0029
2788.00,0.0028
2785.00,0.0028
2782.00,0.0028
2779.00,0.0028
2776.00,0.0027
2773.00,0.0027
2770.00,0.0026
2767.00,0.0026
2764.00,0.0026
2761.00,0.0026
2758.00,0.0025
2755.00,0.0025
2752.00,0.0025
2749.00,0.0025
2746.00,0.0025
2743.00,0.0025
2740.00,0.0025
2737.00,0.0025
2734.00,0.0025
2731.00,0.0025
2728.00,0.0025
2725.00,0.0025
2722.00,0.0025
2719.00,0.0025
2716.00,0.0025
2713.00,0.0025
2710.00,0.0024
2707.00,0.0024
2704.00,0.0024
2701.00,0.0024
2698.00,0.0024
2695.00,0.0024
2692.00,0.0024
2689.00,0.0024
2686.00,0.0024
2683.00,0.0024
2680.00,0.0024
2677.00,0.0024
2674.00,0.0025
2671.00,0.0024
2668.00,0.0025
2665.00,0.0026
2662.00,0.0027
2659.00,0.0028
2656.00,0.0029
2653.00,0.0029
2650.00,0.0029
2647.00,0.0029
2644.00,0.0029
2641.00,0.0029
2638.00,0.0029
2635.00,0.0029
2632.00,0.0029
2629.00,0.0029
2626.00,0.0028
2623.00,0.0027
2620.00,0.0027
2617.00,0.0026
2614.00,0.0026
2611.00,0.0026
2608.00,0.0026
2605.00,0.0026
2602.00,0.0026
2599.00,0.0026
2596.00,0.0025
2593.00,0.0025
2590.00,0.0024
2587.00,0.0024
2584.00,0.0024
2581.00,0.0024
2578.00,0.0024
2575.00,0.0024
2572.00,0.0023
2569.00,0.0022
2566.00,0.0022
2563.00,0.0023
2560.00,0.0022
2557.00,0.0021
2554.00,0.0022
2551.00,0.0022
2548.00,0.0022
2545.00,0.0022
2542.00,0.0022
2539.00,0.0021
2536.00,0.0020
2533.00,0.0020
2530.00,0.0020
2527.00,0.0020
2524.00,0.0020
2521.00,0.0021
2518.00,0.0021
2515.00,0.0020
2512.00,0.0020
2509.00,0.0020
2506.00,0.0019
2503.00,0.0019
2500.00,0.0019
2497.00,0.0020
2494.00,0.0019
2491.00,0.0020
2488.00,0.0020
2485.00,0.0019
2482.00,0.0019
2479.00,0.0019
2476.00,0.0020
2473.00,0.0018
2470.00,0.0018
2467.00,0.0018
2464.00,0.0018
2461.00,0.0018
2458.00,0.0019
2455.00,0.0019
2452.00,0.0018
2449.00,0.0018
2446.00,0.0018
2443.00,0.0018
2440.00,0.0018
2437.00,0.0017
2434.00,0.0016
2431.00,0.0016
2428.00,0.0015
2425.00,0.0016
2422.00,0.0015
2419.00,0.0015
2416.00,0.0015
2413.00,0.0015
2410.00,0.0015
2407.00,0.0013
2404.00,0.0013
2401.00,0.0014
2398.00,0.0014
2395.00,0.0014
2392.00,0.0014
2389.00,0.0013
2386.00,0.0012
2383.00,0.0012
2380.00,0.0012
2377.00,0.0012
2374.00,0.0012
2371.00,0.0011
2368.00,0.0010
2365.00,0.0011
2362.00,0.0012
2359.00,0.0013
2356.00,0.0013
2353.00,0.0012
2350.00,0.0013
2347.00,0.0017
2344.00,0.0016
2341.00,0.0017
2338.00,0.0018
2335.00,0.0018
2332.00,0.0017
2329.00,0.0020
2326.00,0.0031
2323.00,0.0028
2320.00,0.0024
2317.00,0.0023
2314.00,0.0023
2311.00,0.0022
2308.00,0.0020
2305.00,0.0020
2302.00,0.0020
2299.00,0.0021
2296.00,0.0022
2293.00,0.0024
2290.00,0.0027
2287.00,0.0026
2284.00,0.0025
2281.00,0.0023
2278.00,0.0022
2275.00,0.0021
2272.00,0.0022
2269.00,0.0020
2266.00,0.0018
2263.00,0.0017
2260.00,0.0020
2257.00,0.0019
2254.00,0.0016
2251.00,0.0017
2248.00,0.0017
2245.00,0.0018
2242.00,0.0017
2239.00,0.0016
2236.00,0.0018
2233.00,0.0016
2230.00,0.0015
2227.00,0.0016
2224.00,0.0018
2221.00,0.0015
2218.00,0.0015
2215.00,0.0017
2212.00,0.0016
2209.00,0.0017
2206.00,0.0017
2203.00,0.0017
2200.00,0.0017
2197.00,0.0017
2194.00,0.0018
2191.00,0.0018
2188.00,0.0019
2185.00,0.0019
2182.00,0.0012
2179.00,0.0015
2176.00,0.0012
2173.00,0.0014
2170.00,0.0023
2167.00,0.0027
2164.00,0.0026
2161.00,0.0014
2158.00,-0.0019
2155.00,-0.0012
2152.00,-0.0008
2149.00,-0.0007
2146.00,-0.0003
2143.00,-0.0001
2140.00,-0.0003
2137.00,-0.0005
2134.00,-0.0008
2131.00,-0.0000
2128.00,0.0001
2125.00,0.0003
2122.00,0.0006
2119.00,0.0009
2116.00,0.0013
2113.00,0.0013
2110.00,0.0013
2107.00,0.0014
2104.00,0.0013
2101.00,0.0013
2098.00,0.0010
2095.00,0.0007
2092.00,0.0010
2089.00,0.0014
2086.00,0.0011
2083.00,0.0012
2080.00,0.0014
2077.00,0.0013
2074.00,0.0011
2071.00,0.0012
2068.00,0.0012
2065.00,0.0010
2062.00,0.0010
2059.00,0.0010
2056.00,0.0011
2053.00,0.0017
2050.00,0.0017
2047.00,0.0011
2044.00,0.0012
2041.00,0.0011
2038.00,0.0015
2035.00,0.0008
2032.00,0.0005
2029.00,0.0009
2026.00,0.0008
2023.00,0.0005
2020.00,0.0005
2017.00,0.0005
2014.00,0.0006
2011.00,0.0011
2008.00,0.0005
2005.00,0.0002
2002.00,0.0002
1999.00,0.0004
1996.00,0.0008
1993.00,0.0012
1990.00,0.0011
1987.00,0.0012
1984.00,0.0021
1981.00,0.0027
1978.00,0.0013
1975.00,0.0005
1972.00,0.0003
1969.00,0.0010
1966.00,0.0014
1963.00,0.0016
1960.00,0.0015
1957.00,0.0015
1954.00,0.0020
1951.00,0.0022
1948.00,0.0028
1945.00,0.0031
1942.00,0.0030
1939.00,0.0028
1936.00,0.0024
1933.00,0.0019
1930.00,0.0016
1927.00,0.0012
1924.00,0.0011
1921.00,0.0010
1918.00,0.0010
1915.00,0.0011
1912.00,0.0011
1909.00,0.0012
1906.00,0.0013
1903.00,0.0013
1900.00,0.0014
1897.00,0.0015
1894.00,0.0018
1891.00,0.0020
1888.00,0.0022
1885.00,0.0024
1882.00,0.0026
1879.00,0.0027
1876.00,0.0029
1873.00,0.0030
1870.00,0.0030
1867.00,0.0030
1864.00,0.0027
1861.00,0.0024
1858.00,0.0022
1855.00,0.0016
1852.00,0.0016
1849.00,0.0014
1846.00,0.0012
1843.00,0.0013
1840.00,0.0012
1837.00,0.0013
1834.00,0.0014
1831.00,0.0015
1828.00,0.0016
1825.00,0.0018
1822.00,0.0021
1819.00,0.0021
1816.00,0.0023
1813.00,0.0026
1810.00,0.0030
1807.00,0.0032
1804.00,0.0035
1801.00,0.0035
1798.00,0.0032
1795.00,0.0029
1792.00,0.0026
1789.00,0.0023
1786.00,0.0022
1783.00,0.0021
1780.00,0.0021
1777.00,0.0022
1774.00,0.0022
1771.00,0.0023
1768.00,0.0024
1765.00,0.0026
1762.00,0.0029
1759.00,0.0033
1756.00,0.0040
1753.00,0.0046
1750.00,0.0054
1747.00,0.0062
1744.00,0.0068
1741.00,0.0072
1738.00,0.0073
1735.00,0.0072
1732.00,0.0070
1729.00,0.0066
1726.00,0.0059
1723.00,0.0053
1720.00,0.0048
1717.00,0.0043
1714.00,0.0041
1711.00,0.0041
1708.00,0.0040
1705.00,0.0040
1702.00,0.0039
1699.00,0.0040
1696.00,0.0041
1693.00,0.0044
1690.00,0.0047
1687.00,0.0049
1684.00,0.0053
1681.00,0.0056
1678.00,0.0058
1675.00,0.0061
1672.00,0.0063
1669.00,0.0066
1666.00,0.0069
1663.00,0.0070
1660.00,0.0071
1657.00,0.0072
1654.00,0.0072
1651.00,0.0072
1648.00,0.0072
1645.00,0.0069
1642.00,0.0069
1639.00,0.0067
1636.00,0.0064
1633.00,0.0063
1630.00,0.0063
1627.00,0.0062
1624.00,0.0059
1621.00,0.0057
1618.00,0.0057
1615.00,0.0060
1612.00,0.0067
1609.00,0.0088
1606.00,0.0135
1603.00,0.0190
1600.00,0.0196
1597.00,0.0147
1594.00,0.0104
1591.00,0.0084
1588.00,0.0080
1585.00,0.0095
1582.00,0.0097
1579.00,0.0074
1576.00,0.0060
1573.00,0.0053
1570.00,0.0049
1567.00,0.0048
1564.00,0.0048
1561.00,0.0048
1558.00,0.0049
1555.00,0.0054
1552.00,0.0059
1549.00,0.0063
1546.00,0.0066
1543.00,0.0068
1540.00,0.0068
1537.00,0.0066
1534.00,0.0064
1531.00,0.0061
1528.00,0.0059
1525.00,0.0057
1522.00,0.0056
1519.00,0.0056
1516.00,0.0056
1513.00,0.0057
1510.00,0.0058
1507.00,0.0060
1504.00,0.0069
1501.00,0.0091
1498.00,0.0167
1495.00,0.0370
1492.00,0.0444
1489.00,0.0278
1486.00,0.0159
1483.00,0.0107
1480.00,0.0082
1477.00,0.0071
1474.00,0.0067
1471.00,0.0071
1468.00,0.0077
1465.00,0.0084
1462.00,0.0097
1459.00,0.0128
1456.00,0.0294
1453.00,0.0447
1450.00,0.0433
1447.00,0.0340
1444.00,0.0273
1441.00,0.0218
1438.00,0.0177
1435.00,0.0134
1432.00,0.0106
1429.00,0.0087
1426.00,0.0076
1423.00,0.0070
1420.00,0.0067
1417.00,0.0065
1414.00,0.0064
1411.00,0.0063
1408.00,0.0062
1405.00,0.0061
1402.00,0.0061
1399.00,0.0062
1396.00,0.0065
1393.00,0.0072
1390.00,0.0080
1387.00,0.0091
1384.00,0.0101
1381.00,0.0111
1378.00,0.0121
1375.00,0.0127
1372.00,0.0127
1369.00,0.0124
1366.00,0.0120
1363.00,0.0116
1360.00,0.0111
1357.00,0.0106
1354.00,0.0104
1351.00,0.0103
1348.00,0.0101
1345.00,0.0098
1342.00,0.0096
1339.00,0.0094
1336.00,0.0095
1333.00,0.0100
1330.00,0.0105
1327.00,0.0105
1324.00,0.0102
1321.00,0.0100
1318.00,0.0101
1315.00,0.0103
1312.00,0.0104
1309.00,0.0102
1306.00,0.0099
1303.00,0.0095
1300.00,0.0091
1297.00,0.0089
1294.00,0.0088
1291.00,0.0087
1288.00,0.0084
1285.00,0.0083
1282.00,0.0082
1279.00,0.0081
1276.00,0.0080
1273.00,0.0079
1270.00,0.0078
1267.00,0.0077
1264.00,0.0076
1261.00,0.0076
1258.00,0.0076
1255.00,0.0076
1252.00,0.0077
1249.00,0.0077
1246.00,0.0078
1243.00,0.0077
1240.00,0.0077
1237.00,0.0076
1234.00,0.0075
1231.00,0.0076
1228.00,0.0076
1225.00,0.0077
1222.00,0.0077
1219.00,0.0076
1216.00,0.0076
1213.00,0.0078
1210.00,0.0079
1207.00,0.0082
1204.00,0.0087
1201.00,0.0093
1198.00,0.0096
1195.00,0.0098
1192.00,0.0099
1189.00,0.0103
1186.00,0.0112
1183.00,0.0126
1180.00,0.0127
1177.00,0.0113
1174.00,0.0099
1171.00,0.0094
1168.00,0.0091
1165.00,0.0091
1162.00,0.0095
1159.00,0.0106
1156.00,0.0119
1153.00,0.0116
1150.00,0.0093
1147.00,0.0074
1144.00,0.0066
1141.00,0.0060
1138.00,0.0056
1135.00,0.0054
1132.00,0.0054
1129.00,0.0053
1126.00,0.0053
1123.00,0.0052
1120.00,0.0052
1117.00,0.0057
1114.00,0.0061
1111.00,0.0062
1108.00,0.0061
1105.00,0.0063
1102.00,0.0066
1099.00,0.0068
1096.00,0.0071
1093.00,0.0075
1090.00,0.0080
1087.00,0.0086
1084.00,0.0095
1081.00,0.0105
1078.00,0.0116
1075.00,0.0129
1072.00,0.0143
1069.00,0.0150
1066.00,0.0144
1063.00,0.0130
1060.00,0.0116
1057.00,0.0107
1054.00,0.0102
1051.00,0.0098
1048.00,0.0094
1045.00,0.0092
1042.00,0.0091
1039.00,0.0098
1036.00,0.0123
1033.00,0.0177
1030.00,0.0231
1027.00,0.0240
1024.00,0.0200
1021.00,0.0164
1018.00,0.0142
1015.00,0.0127
1012.00,0.0116
1009.00,0.0112
1006.00,0.0116
1003.00,0.0119
1000.00,0.0105
997.00,0.0093
994.00,0.0089
991.00,0.0088
988.00,0.0093
985.00,0.0099
982.00,0.0104
979.00,0.0105
976.00,0.0101
973.00,0.0098
970.00,0.0102
967.00,0.0110
964.00,0.0113
961.00,0.0106
958.00,0.0094
955.00,0.0085
952.00,0.0082
949.00,0.0084
946.00,0.0087
943.00,0.0089
940.00,0.0087
937.00,0.0082
934.00,0.0075
931.00,0.0070
928.00,0.0069
925.00,0.0071
922.00,0.0074
919.00,0.0081
916.00,0.0096
913.00,0.0119
910.00,0.0147
907.00,0.0164
904.00,0.0157
901.00,0.0128
898.00,0.0100
895.00,0.0081
892.00,0.0072
889.00,0.0067
886.00,0.0063
883.00,0.0060
880.00,0.0058
877.00,0.0056
874.00,0.0053
871.00,0.0052
868.00,0.0053
865.00,0.0052
862.00,0.0051
859.00,0.0052
856.00,0.0053
853.00,0.0058
850.00,0.0066
847.00,0.0077
844.00,0.0087
841.00,0.0090
838.00,0.0084
835.00,0.0070
832.00,0.0059
829.00,0.0054
826.00,0.0052
823.00,0.0051
820.00,0.0052
817.00,0.0052
814.00,0.0053
811.00,0.0054
808.00,0.0054
805.00,0.0056
802.00,0.0059
799.00,0.0062
796.00,0.0069
793.00,0.0078
790.00,0.0090
787.00,0.0104
784.00,0.0123
781.00,0.0146
778.00,0.0180
775.00,0.0229
772.00,0.0291
769.00,0.0365
766.00,0.0439
763.00,0.0511
760.00,0.0586
757.00,0.0644
754.00,0.0661
751.00,0.0655
748.00,0.0648
745.00,0.0597
742.00,0.0484
739.00,0.0367
736.00,0.0275
733.00,0.0194
730.00,0.0139
727.00,0.0113
724.00,0.0103
721.00,0.0101
718.00,0.0105
715.00,0.0121
712.00,0.0169
709.00,0.0291
706.00,0.0525
703.00,0.0868
700.00,0.1282
697.00,0.1684
694.00,0.1790
691.00,0.1356
688.00,0.0893
685.00,0.0638
682.00,0.0497
679.00,0.0412
676.00,0.0359
673.00,0.0322
670.00,0.0297
667.00,0.0272
664.00,0.0244
661.00,0.0219
658.00,0.0197
655.00,0.0180
652.00,0.0164
649.00,0.0153
646.00,0.0146
643.00,0.0139
640.00,0.0140
637.00,0.0146
634.00,0.0153
631.00,0.0159
628.00,0.0164
625.00,0.0170
622.00,0.0177
619.00,0.0176
616.00,0.0164
613.00,0.0158
610.00,0.0154
607.00,0.0147
604.00,0.0145
601.00,0.0149
598.00,0.0153
595.00,0.0156
592.00,0.0162
589.00,0.0169
586.00,0.0174
583.00,0.0182
580.00,0.0197
577.00,0.0219
574.00,0.0242
571.00,0.0266
568.00,0.0294
565.00,0.0322
562.00,0.0346
559.00,0.0368
556.00,0.0395
553.00,0.0429
550.00,0.0464
547.00,0.0513
544.00,0.0575
541.00,0.0635
538.00,0.0662
535.00,0.0630
532.00,0.0549
529.00,0.0459
526.00,0.0385
523.00,0.0323
520.00,0.0284
517.00,0.0261
514.00,0.0241
511.00,0.0223
508.00,0.0209
505.00,0.0195
502.00,0.0179
499.00,0.0170
496.00,0.0164
493.00,0.0155
490.00,0.0149
487.00,0.0145
484.00,0.0143
481.00,0.0144
478.00,0.0134
475.00,0.0132
472.00,0.0127
469.00,0.0130
466.00,0.0134
463.00,0.0126
460.00,0.0117
457.00,0.0117
454.00,0.0119
451.00,0.0114
448.00,0.0116
445.00,0.0117
442.00,0.0109
439.00,0.0107
436.00,0.0104
433.00,0.0105
430.00,0.0107
427.00,0.0103
424.00,0.0092
421.00,0.0091
418.00,0.0073
415.00,0.0091
412.00,0.0105
409.00,0.0111
406.00,0.0103
403.00,0.0098
400.00,0.0087