File: FTIR/Mary/2025_10_03_Polystyrene_PostScan_Calibration_1.csv
Created as New Dataset,Sample 180 By YargerLab Date Friday, October 03 2025
cm-1,A
4000.00,0.0013
3997.00,0.0012
3994.00,0.0013
3991.00,0.0013
3988.00,0.0013
3985.00,0.0013
3982.00,0.0013
3979.00,0.0012
3976.00,0.0012
3973.00,0.0013
3970.00,0.0013
3967.00,0.0012
3964.00,0.0012
3961.00,0.0012
3958.00,0.0012
3955.00,0.0013
3952.00,0.0013
3949.00,0.0012
3946.00,0.0012
3943.00,0.0012
3940.00,0.0013
3937.00,0.0012
3934.00,0.0012
3931.00,0.0012
3928.00,0.0012
3925.00,0.0013
3922.00,0.0012
3919.00,0.0011
3916.00,0.0012
3913.00,0.0012
3910.00,0.0012
3907.00,0.0012
3904.00,0.0011
3901.00,0.0010
3898.00,0.0011
3895.00,0.0011
3892.00,0.0012
3889.00,0.0012
3886.00,0.0011
3883.00,0.0011
3880.00,0.0011
3877.00,0.0012
3874.00,0.0012
3871.00,0.0011
3868.00,0.0012
3865.00,0.0011
3862.00,0.0011
3859.00,0.0011
3856.00,0.0012
3853.00,0.0012
3850.00,0.0011
3847.00,0.0011
3844.00,0.0011
3841.00,0.0012
3838.00,0.0012
3835.00,0.0012
3832.00,0.0012
3829.00,0.0012
3826.00,0.0012
3823.00,0.0012
3820.00,0.0012
3817.00,0.0011
3814.00,0.0012
3811.00,0.0012
3808.00,0.0012
3805.00,0.0013
3802.00,0.0013
3799.00,0.0013
3796.00,0.0012
3793.00,0.0013
3790.00,0.0013
3787.00,0.0013
3784.00,0.0013
3781.00,0.0013
3778.00,0.0013
3775.00,0.0013
3772.00,0.0013
3769.00,0.0013
3766.00,0.0012
3763.00,0.0013
3760.00,0.0012
3757.00,0.0012
3754.00,0.0011
3751.00,0.0011
3748.00,0.0011
3745.00,0.0011
3742.00,0.0011
3739.00,0.0010
3736.00,0.0010
3733.00,0.0010
3730.00,0.0011
3727.00,0.0011
3724.00,0.0011
3721.00,0.0011
3718.00,0.0012
3715.00,0.0011
3712.00,0.0011
3709.00,0.0011
3706.00,0.0011
3703.00,0.0012
3700.00,0.0011
3697.00,0.0011
3694.00,0.0012
3691.00,0.0012
3688.00,0.0011
3685.00,0.0011
3682.00,0.0011
3679.00,0.0011
3676.00,0.0011
3673.00,0.0010
3670.00,0.0010
3667.00,0.0011
3664.00,0.0011
3661.00,0.0013
3658.00,0.0012
3655.00,0.0012
3652.00,0.0012
3649.00,0.0011
3646.00,0.0012
3643.00,0.0012
3640.00,0.0013
3637.00,0.0013
3634.00,0.0012
3631.00,0.0012
3628.00,0.0011
3625.00,0.0011
3622.00,0.0012
3619.00,0.0013
3616.00,0.0012
3613.00,0.0012
3610.00,0.0012
3607.00,0.0012
3604.00,0.0012
3601.00,0.0013
3598.00,0.0012
3595.00,0.0013
3592.00,0.0013
3589.00,0.0012
3586.00,0.0013
3583.00,0.0013
3580.00,0.0014
3577.00,0.0014
3574.00,0.0015
3571.00,0.0014
3568.00,0.0013
3565.00,0.0014
3562.00,0.0015
3559.00,0.0015
3556.00,0.0015
3553.00,0.0016
3550.00,0.0016
3547.00,0.0016
3544.00,0.0017
3541.00,0.0017
3538.00,0.0017
3535.00,0.0017
3532.00,0.0017
3529.00,0.0018
3526.00,0.0018
3523.00,0.0018
3520.00,0.0019
3517.00,0.0020
3514.00,0.0020
3511.00,0.0019
3508.00,0.0020
3505.00,0.0020
3502.00,0.0020
3499.00,0.0020
3496.00,0.0020
3493.00,0.0021
3490.00,0.0021
3487.00,0.0022
3484.00,0.0022
3481.00,0.0023
3478.00,0.0023
3475.00,0.0023
3472.00,0.0023
3469.00,0.0023
3466.00,0.0023
3463.00,0.0024
3460.00,0.0024
3457.00,0.0024
3454.00,0.0024
3451.00,0.0024
3448.00,0.0025
3445.00,0.0025
3442.00,0.0025
3439.00,0.0025
3436.00,0.0025
3433.00,0.0026
3430.00,0.0025
3427.00,0.0025
3424.00,0.0025
3421.00,0.0025
3418.00,0.0026
3415.00,0.0026
3412.00,0.0026
3409.00,0.0027
3406.00,0.0027
3403.00,0.0027
3400.00,0.0027
3397.00,0.0027
3394.00,0.0027
3391.00,0.0027
3388.00,0.0027
3385.00,0.0027
3382.00,0.0028
3379.00,0.0029
3376.00,0.0028
3373.00,0.0028
3370.00,0.0029
3367.00,0.0029
3364.00,0.0029
3361.00,0.0029
3358.00,0.0030
3355.00,0.0030
3352.00,0.0030
3349.00,0.0030
3346.00,0.0031
3343.00,0.0031
3340.00,0.0031
3337.00,0.0031
3334.00,0.0032
3331.00,0.0032
3328.00,0.0032
3325.00,0.0032
3322.00,0.0032
3319.00,0.0033
3316.00,0.0033
3313.00,0.0033
3310.00,0.0033
3307.00,0.0034
3304.00,0.0034
3301.00,0.0034
3298.00,0.0034
3295.00,0.0034
3292.00,0.0034
3289.00,0.0033
3286.00,0.0034
3283.00,0.0034
3280.00,0.0034
3277.00,0.0034
3274.00,0.0033
3271.00,0.0033
3268.00,0.0033
3265.00,0.0033
3262.00,0.0033
3259.00,0.0032
3256.00,0.0032
3253.00,0.0031
3250.00,0.0031
3247.00,0.0031
3244.00,0.0030
3241.00,0.0030
3238.00,0.0030
3235.00,0.0029
3232.00,0.0029
3229.00,0.0029
3226.00,0.0029
3223.00,0.0029
3220.00,0.0029
3217.00,0.0029
3214.00,0.0028
3211.00,0.0028
3208.00,0.0029
3205.00,0.0029
3202.00,0.0028
3199.00,0.0029
3196.00,0.0028
3193.00,0.0028
3190.00,0.0028
3187.00,0.0027
3184.00,0.0026
3181.00,0.0026
3178.00,0.0026
3175.00,0.0026
3172.00,0.0026
3169.00,0.0026
3166.00,0.0026
3163.00,0.0026
3160.00,0.0026
3157.00,0.0025
3154.00,0.0025
3151.00,0.0024
3148.00,0.0024
3145.00,0.0024
3142.00,0.0024
3139.00,0.0024
3136.00,0.0024
3133.00,0.0024
3130.00,0.0024
3127.00,0.0024
3124.00,0.0024
3121.00,0.0025
3118.00,0.0026
3115.00,0.0027
3112.00,0.0031
3109.00,0.0035
3106.00,0.0039
3103.00,0.0041
3100.00,0.0040
3097.00,0.0040
3094.00,0.0042
3091.00,0.0050
3088.00,0.0063
3085.00,0.0077
3082.00,0.0082
3079.00,0.0075
3076.00,0.0067
3073.00,0.0065
3070.00,0.0069
3067.00,0.0081
3064.00,0.0096
3061.00,0.0107
3058.00,0.0104
3055.00,0.0091
3052.00,0.0076
3049.00,0.0067
3046.00,0.0063
3043.00,0.0065
3040.00,0.0072
3037.00,0.0087
3034.00,0.0111
3031.00,0.0146
3028.00,0.0181
3025.00,0.0192
3022.00,0.0165
3019.00,0.0121
3016.00,0.0088
3013.00,0.0069
3010.00,0.0062
3007.00,0.0063
3004.00,0.0067
3001.00,0.0067
2998.00,0.0061
2995.00,0.0051
2992.00,0.0046
2989.00,0.0045
2986.00,0.0045
2983.00,0.0045
2980.00,0.0047
2977.00,0.0050
2974.00,0.0053
2971.00,0.0057
2968.00,0.0062
2965.00,0.0068
2962.00,0.0075
2959.00,0.0082
2956.00,0.0090
2953.00,0.0096
2950.00,0.0105
2947.00,0.0117
2944.00,0.0133
2941.00,0.0153
2938.00,0.0179
2935.00,0.0207
2932.00,0.0235
2929.00,0.0261
2926.00,0.0279
2923.00,0.0288
2920.00,0.0286
2917.00,0.0274
2914.00,0.0253
2911.00,0.0229
2908.00,0.0207
2905.00,0.0187
2902.00,0.0167
2899.00,0.0148
2896.00,0.0131
2893.00,0.0118
2890.00,0.0108
2887.00,0.0100
2884.00,0.0093
2881.00,0.0088
2878.00,0.0083
2875.00,0.0081
2872.00,0.0079
2869.00,0.0080
2866.00,0.0084
2863.00,0.0092
2860.00,0.0106
2857.00,0.0121
2854.00,0.0135
2851.00,0.0141
2848.00,0.0135
2845.00,0.0118
2842.00,0.0096
2839.00,0.0077
2836.00,0.0061
2833.00,0.0050
2830.00,0.0044
2827.00,0.0040
2824.00,0.0037
2821.00,0.0036
2818.00,0.0035
2815.00,0.0033
2812.00,0.0033
2809.00,0.0032
2806.00,0.0032
2803.00,0.0031
2800.00,0.0030
2797.00,0.0030
2794.00,0.0029
2791.00,0.0029
2788.00,0.0029
2785.00,0.0028
2782.00,0.0028
2779.00,0.0028
2776.00,0.0028
2773.00,0.0027
2770.00,0.0027
2767.00,0.0027
2764.00,0.0027
2761.00,0.0026
2758.00,0.0026
2755.00,0.0025
2752.00,0.0025
2749.00,0.0025
2746.00,0.0025
2743.00,0.0025
2740.00,0.0025
2737.00,0.0025
2734.00,0.0025
2731.00,0.0025
2728.00,0.0025
2725.00,0.0025
2722.00,0.0025
2719.00,0.0025
2716.00,0.0024
2713.00,0.0024
2710.00,0.0024
2707.00,0.0024
2704.00,0.0024
2701.00,0.0024
2698.00,0.0024
2695.00,0.0024
2692.00,0.0024
2689.00,0.0024
2686.00,0.0024
2683.00,0.0024
2680.00,0.0024
2677.00,0.0024
2674.00,0.0024
2671.00,0.0024
2668.00,0.0024
2665.00,0.0026
2662.00,0.0027
2659.00,0.0028
2656.00,0.0029
2653.00,0.0029
2650.00,0.0029
2647.00,0.0029
2644.00,0.0029
2641.00,0.0029
2638.00,0.0029
2635.00,0.0029
2632.00,0.0029
2629.00,0.0029
2626.00,0.0028
2623.00,0.0028
2620.00,0.0027
2617.00,0.0026
2614.00,0.0027
2611.00,0.0026
2608.00,0.0026
2605.00,0.0027
2602.00,0.0027
2599.00,0.0026
2596.00,0.0026
2593.00,0.0025
2590.00,0.0024
2587.00,0.0024
2584.00,0.0024
2581.00,0.0023
2578.00,0.0023
2575.00,0.0023
2572.00,0.0023
2569.00,0.0022
2566.00,0.0022
2563.00,0.0022
2560.00,0.0022
2557.00,0.0021
2554.00,0.0022
2551.00,0.0022
2548.00,0.0022
2545.00,0.0021
2542.00,0.0021
2539.00,0.0021
2536.00,0.0020
2533.00,0.0020
2530.00,0.0020
2527.00,0.0020
2524.00,0.0020
2521.00,0.0020
2518.00,0.0020
2515.00,0.0020
2512.00,0.0020
2509.00,0.0021
2506.00,0.0019
2503.00,0.0019
2500.00,0.0019
2497.00,0.0020
2494.00,0.0019
2491.00,0.0020
2488.00,0.0019
2485.00,0.0019
2482.00,0.0019
2479.00,0.0018
2476.00,0.0019
2473.00,0.0018
2470.00,0.0018
2467.00,0.0018
2464.00,0.0017
2461.00,0.0017
2458.00,0.0018
2455.00,0.0019
2452.00,0.0018
2449.00,0.0018
2446.00,0.0018
2443.00,0.0018
2440.00,0.0017
2437.00,0.0016
2434.00,0.0016
2431.00,0.0016
2428.00,0.0016
2425.00,0.0016
2422.00,0.0015
2419.00,0.0015
2416.00,0.0015
2413.00,0.0015
2410.00,0.0015
2407.00,0.0013
2404.00,0.0014
2401.00,0.0014
2398.00,0.0014
2395.00,0.0013
2392.00,0.0013
2389.00,0.0013
2386.00,0.0013
2383.00,0.0013
2380.00,0.0013
2377.00,0.0013
2374.00,0.0014
2371.00,0.0013
2368.00,0.0013
2365.00,0.0014
2362.00,0.0015
2359.00,0.0016
2356.00,0.0016
2353.00,0.0015
2350.00,0.0017
2347.00,0.0019
2344.00,0.0020
2341.00,0.0021
2338.00,0.0021
2335.00,0.0021
2332.00,0.0019
2329.00,0.0022
2326.00,0.0033
2323.00,0.0031
2320.00,0.0027
2317.00,0.0026
2314.00,0.0026
2311.00,0.0026
2308.00,0.0024
2305.00,0.0023
2302.00,0.0023
2299.00,0.0023
2296.00,0.0024
2293.00,0.0026
2290.00,0.0028
2287.00,0.0028
2284.00,0.0026
2281.00,0.0024
2278.00,0.0022
2275.00,0.0021
2272.00,0.0021
2269.00,0.0021
2266.00,0.0019
2263.00,0.0018
2260.00,0.0020
2257.00,0.0019
2254.00,0.0017
2251.00,0.0018
2248.00,0.0018
2245.00,0.0017
2242.00,0.0018
2239.00,0.0017
2236.00,0.0017
2233.00,0.0016
2230.00,0.0016
2227.00,0.0017
2224.00,0.0016
2221.00,0.0016
2218.00,0.0018
2215.00,0.0018
2212.00,0.0015
2209.00,0.0016
2206.00,0.0018
2203.00,0.0019
2200.00,0.0017
2197.00,0.0017
2194.00,0.0019
2191.00,0.0021
2188.00,0.0020
2185.00,0.0019
2182.00,0.0015
2179.00,0.0017
2176.00,0.0010
2173.00,0.0010
2170.00,0.0021
2167.00,0.0027
2164.00,0.0027
2161.00,0.0011
2158.00,-0.0019
2155.00,-0.0013
2152.00,-0.0006
2149.00,-0.0006
2146.00,-0.0004
2143.00,-0.0004
2140.00,-0.0004
2137.00,-0.0005
2134.00,-0.0008
2131.00,-0.0003
2128.00,0.0001
2125.00,0.0004
2122.00,0.0006
2119.00,0.0011
2116.00,0.0014
2113.00,0.0014
2110.00,0.0013
2107.00,0.0012
2104.00,0.0012
2101.00,0.0014
2098.00,0.0011
2095.00,0.0007
2092.00,0.0010
2089.00,0.0012
2086.00,0.0012
2083.00,0.0013
2080.00,0.0015
2077.00,0.0013
2074.00,0.0011
2071.00,0.0013
2068.00,0.0012
2065.00,0.0009
2062.00,0.0011
2059.00,0.0011
2056.00,0.0011
2053.00,0.0018
2050.00,0.0018
2047.00,0.0012
2044.00,0.0014
2041.00,0.0014
2038.00,0.0014
2035.00,0.0008
2032.00,0.0006
2029.00,0.0008
2026.00,0.0006
2023.00,0.0004
2020.00,0.0005
2017.00,0.0007
2014.00,0.0009
2011.00,0.0008
2008.00,-0.0000
2005.00,0.0001
2002.00,0.0004
1999.00,0.0005
1996.00,0.0007
1993.00,0.0011
1990.00,0.0014
1987.00,0.0015
1984.00,0.0020
1981.00,0.0025
1978.00,0.0009
1975.00,0.0003
1972.00,0.0003
1969.00,0.0006
1966.00,0.0012
1963.00,0.0014
1960.00,0.0016
1957.00,0.0017
1954.00,0.0020
1951.00,0.0023
1948.00,0.0027
1945.00,0.0029
1942.00,0.0030
1939.00,0.0028
1936.00,0.0024
1933.00,0.0019
1930.00,0.0015
1927.00,0.0012
1924.00,0.0012
1921.00,0.0012
1918.00,0.0012
1915.00,0.0012
1912.00,0.0012
1909.00,0.0012
1906.00,0.0013
1903.00,0.0012
1900.00,0.0013
1897.00,0.0016
1894.00,0.0019
1891.00,0.0020
1888.00,0.0021
1885.00,0.0024
1882.00,0.0026
1879.00,0.0027
1876.00,0.0028
1873.00,0.0029
1870.00,0.0030
1867.00,0.0029
1864.00,0.0026
1861.00,0.0023
1858.00,0.0020
1855.00,0.0017
1852.00,0.0016
1849.00,0.0015
1846.00,0.0013
1843.00,0.0013
1840.00,0.0013
1837.00,0.0013
1834.00,0.0015
1831.00,0.0015
1828.00,0.0016
1825.00,0.0018
1822.00,0.0021
1819.00,0.0022
1816.00,0.0023
1813.00,0.0027
1810.00,0.0030
1807.00,0.0033
1804.00,0.0034
1801.00,0.0035
1798.00,0.0032
1795.00,0.0030
1792.00,0.0027
1789.00,0.0024
1786.00,0.0022
1783.00,0.0021
1780.00,0.0022
1777.00,0.0022
1774.00,0.0022
1771.00,0.0023
1768.00,0.0025
1765.00,0.0027
1762.00,0.0031
1759.00,0.0036
1756.00,0.0043
1753.00,0.0050
1750.00,0.0059
1747.00,0.0067
1744.00,0.0073
1741.00,0.0076
1738.00,0.0077
1735.00,0.0076
1732.00,0.0072
1729.00,0.0067
1726.00,0.0061
1723.00,0.0056
1720.00,0.0050
1717.00,0.0045
1714.00,0.0043
1711.00,0.0042
1708.00,0.0042
1705.00,0.0042
1702.00,0.0041
1699.00,0.0041
1696.00,0.0044
1693.00,0.0046
1690.00,0.0050
1687.00,0.0052
1684.00,0.0056
1681.00,0.0059
1678.00,0.0062
1675.00,0.0065
1672.00,0.0066
1669.00,0.0070
1666.00,0.0072
1663.00,0.0074
1660.00,0.0076
1657.00,0.0077
1654.00,0.0077
1651.00,0.0075
1648.00,0.0075
1645.00,0.0073
1642.00,0.0073
1639.00,0.0071
1636.00,0.0067
1633.00,0.0066
1630.00,0.0065
1627.00,0.0063
1624.00,0.0061
1621.00,0.0058
1618.00,0.0058
1615.00,0.0061
1612.00,0.0068
1609.00,0.0088
1606.00,0.0135
1603.00,0.0189
1600.00,0.0194
1597.00,0.0146
1594.00,0.0105
1591.00,0.0085
1588.00,0.0081
1585.00,0.0095
1582.00,0.0097
1579.00,0.0076
1576.00,0.0062
1573.00,0.0056
1570.00,0.0052
1567.00,0.0050
1564.00,0.0051
1561.00,0.0051
1558.00,0.0052
1555.00,0.0057
1552.00,0.0062
1549.00,0.0067
1546.00,0.0070
1543.00,0.0071
1540.00,0.0070
1537.00,0.0069
1534.00,0.0067
1531.00,0.0063
1528.00,0.0061
1525.00,0.0059
1522.00,0.0058
1519.00,0.0057
1516.00,0.0058
1513.00,0.0058
1510.00,0.0059
1507.00,0.0060
1504.00,0.0069
1501.00,0.0091
1498.00,0.0165
1495.00,0.0361
1492.00,0.0432
1489.00,0.0271
1486.00,0.0156
1483.00,0.0107
1480.00,0.0083
1477.00,0.0073
1474.00,0.0069
1471.00,0.0074
1468.00,0.0080
1465.00,0.0087
1462.00,0.0098
1459.00,0.0129
1456.00,0.0289
1453.00,0.0436
1450.00,0.0423
1447.00,0.0334
1444.00,0.0270
1441.00,0.0216
1438.00,0.0176
1435.00,0.0134
1432.00,0.0108
1429.00,0.0088
1426.00,0.0078
1423.00,0.0073
1420.00,0.0070
1417.00,0.0068
1414.00,0.0067
1411.00,0.0065
1408.00,0.0064
1405.00,0.0064
1402.00,0.0063
1399.00,0.0065
1396.00,0.0067
1393.00,0.0074
1390.00,0.0081
1387.00,0.0092
1384.00,0.0102
1381.00,0.0111
1378.00,0.0120
1375.00,0.0125
1372.00,0.0126
1369.00,0.0123
1366.00,0.0120
1363.00,0.0116
1360.00,0.0110
1357.00,0.0107
1354.00,0.0105
1351.00,0.0104
1348.00,0.0102
1345.00,0.0099
1342.00,0.0097
1339.00,0.0096
1336.00,0.0097
1333.00,0.0101
1330.00,0.0106
1327.00,0.0106
1324.00,0.0103
1321.00,0.0101
1318.00,0.0102
1315.00,0.0104
1312.00,0.0105
1309.00,0.0104
1306.00,0.0100
1303.00,0.0096
1300.00,0.0093
1297.00,0.0092
1294.00,0.0091
1291.00,0.0090
1288.00,0.0088
1285.00,0.0086
1282.00,0.0085
1279.00,0.0084
1276.00,0.0082
1273.00,0.0081
1270.00,0.0080
1267.00,0.0080
1264.00,0.0079
1261.00,0.0079
1258.00,0.0079
1255.00,0.0078
1252.00,0.0079
1249.00,0.0080
1246.00,0.0080
1243.00,0.0080
1240.00,0.0079
1237.00,0.0078
1234.00,0.0077
1231.00,0.0078
1228.00,0.0078
1225.00,0.0079
1222.00,0.0079
1219.00,0.0078
1216.00,0.0078
1213.00,0.0079
1210.00,0.0081
1207.00,0.0085
1204.00,0.0089
1201.00,0.0094
1198.00,0.0098
1195.00,0.0099
1192.00,0.0100
1189.00,0.0104
1186.00,0.0113
1183.00,0.0127
1180.00,0.0129
1177.00,0.0115
1174.00,0.0102
1171.00,0.0097
1168.00,0.0094
1165.00,0.0094
1162.00,0.0097
1159.00,0.0108
1156.00,0.0121
1153.00,0.0117
1150.00,0.0095
1147.00,0.0078
1144.00,0.0069
1141.00,0.0063
1138.00,0.0059
1135.00,0.0058
1132.00,0.0057
1129.00,0.0056
1126.00,0.0055
1123.00,0.0054
1120.00,0.0056
1117.00,0.0060
1114.00,0.0064
1111.00,0.0064
1108.00,0.0064
1105.00,0.0066
1102.00,0.0068
1099.00,0.0071
1096.00,0.0075
1093.00,0.0079
1090.00,0.0084
1087.00,0.0089
1084.00,0.0097
1081.00,0.0106
1078.00,0.0116
1075.00,0.0130
1072.00,0.0143
1069.00,0.0150
1066.00,0.0144
1063.00,0.0130
1060.00,0.0116
1057.00,0.0107
1054.00,0.0103
1051.00,0.0099
1048.00,0.0095
1045.00,0.0093
1042.00,0.0092
1039.00,0.0099
1036.00,0.0124
1033.00,0.0177
1030.00,0.0228
1027.00,0.0236
1024.00,0.0198
1021.00,0.0164
1018.00,0.0143
1015.00,0.0128
1012.00,0.0118
1009.00,0.0113
1006.00,0.0116
1003.00,0.0118
1000.00,0.0105
997.00,0.0094
994.00,0.0091
991.00,0.0090
988.00,0.0094
985.00,0.0100
982.00,0.0105
979.00,0.0106
976.00,0.0103
973.00,0.0099
970.00,0.0102
967.00,0.0110
964.00,0.0113
961.00,0.0107
958.00,0.0095
955.00,0.0087
952.00,0.0084
949.00,0.0085
946.00,0.0087
943.00,0.0089
940.00,0.0087
937.00,0.0082
934.00,0.0077
931.00,0.0071
928.00,0.0070
925.00,0.0071
922.00,0.0075
919.00,0.0081
916.00,0.0095
913.00,0.0118
910.00,0.0146
907.00,0.0163
904.00,0.0155
901.00,0.0127
898.00,0.0099
895.00,0.0082
892.00,0.0073
889.00,0.0068
886.00,0.0064
883.00,0.0062
880.00,0.0059
877.00,0.0057
874.00,0.0056
871.00,0.0055
868.00,0.0054
865.00,0.0054
862.00,0.0053
859.00,0.0053
856.00,0.0054
853.00,0.0059
850.00,0.0067
847.00,0.0078
844.00,0.0088
841.00,0.0091
838.00,0.0085
835.00,0.0073
832.00,0.0062
829.00,0.0056
826.00,0.0053
823.00,0.0052
820.00,0.0051
817.00,0.0052
814.00,0.0053
811.00,0.0055
808.00,0.0057
805.00,0.0058
802.00,0.0061
799.00,0.0064
796.00,0.0071
793.00,0.0079
790.00,0.0090
787.00,0.0104
784.00,0.0121
781.00,0.0143
778.00,0.0177
775.00,0.0224
772.00,0.0285
769.00,0.0355
766.00,0.0427
763.00,0.0496
760.00,0.0569
757.00,0.0625
754.00,0.0642
751.00,0.0638
748.00,0.0631
745.00,0.0581
742.00,0.0473
739.00,0.0362
736.00,0.0272
733.00,0.0193
730.00,0.0140
727.00,0.0114
724.00,0.0104
721.00,0.0102
718.00,0.0105
715.00,0.0119
712.00,0.0167
709.00,0.0284
706.00,0.0510
703.00,0.0839
700.00,0.1233
697.00,0.1616
694.00,0.1727
691.00,0.1323
688.00,0.0876
685.00,0.0628
682.00,0.0492
679.00,0.0408
676.00,0.0356
673.00,0.0320
670.00,0.0296
667.00,0.0269
664.00,0.0244
661.00,0.0219
658.00,0.0197
655.00,0.0181
652.00,0.0166
649.00,0.0156
646.00,0.0148
643.00,0.0142
640.00,0.0141
637.00,0.0145
634.00,0.0153
631.00,0.0159
628.00,0.0165
625.00,0.0169
622.00,0.0177
619.00,0.0176
616.00,0.0165
613.00,0.0158
610.00,0.0152
607.00,0.0149
604.00,0.0147
601.00,0.0148
598.00,0.0154
595.00,0.0158
592.00,0.0162
589.00,0.0167
586.00,0.0172
583.00,0.0180
580.00,0.0198
577.00,0.0217
574.00,0.0241
571.00,0.0266
568.00,0.0291
565.00,0.0314
562.00,0.0340
559.00,0.0363
556.00,0.0388
553.00,0.0418
550.00,0.0456
547.00,0.0503
544.00,0.0561
541.00,0.0618
538.00,0.0647
535.00,0.0616
532.00,0.0537
529.00,0.0453
526.00,0.0379
523.00,0.0322
520.00,0.0281
517.00,0.0256
514.00,0.0241
511.00,0.0223
508.00,0.0206
505.00,0.0190
502.00,0.0180
499.00,0.0171
496.00,0.0165
493.00,0.0156
490.00,0.0151
487.00,0.0151
484.00,0.0146
481.00,0.0141
478.00,0.0135
475.00,0.0139
472.00,0.0136
469.00,0.0139
466.00,0.0139
463.00,0.0126
460.00,0.0121
457.00,0.0117
454.00,0.0127
451.00,0.0126
448.00,0.0120
445.00,0.0117
442.00,0.0112
439.00,0.0120
436.00,0.0120
433.00,0.0107
430.00,0.0105
427.00,0.0112
424.00,0.0104
421.00,0.0100
418.00,0.0087
415.00,0.0104
412.00,0.0107
409.00,0.0108
406.00,0.0114
403.00,0.0101
400.00,0.0077