File: FTIR/Mary/2025_12_04_Polystyrene_Standard_Scan3.csv
Created as New Dataset,Sample 393 By YargerLab Date Thursday, December 04 2025
cm-1,A
4000.00,0.0003
3997.00,0.0003
3994.00,0.0003
3991.00,0.0002
3988.00,0.0002
3985.00,0.0002
3982.00,0.0002
3979.00,0.0002
3976.00,0.0002
3973.00,0.0002
3970.00,0.0002
3967.00,0.0002
3964.00,0.0002
3961.00,0.0002
3958.00,0.0002
3955.00,0.0002
3952.00,0.0002
3949.00,0.0002
3946.00,0.0002
3943.00,0.0002
3940.00,0.0003
3937.00,0.0002
3934.00,0.0002
3931.00,0.0001
3928.00,0.0002
3925.00,0.0002
3922.00,0.0002
3919.00,0.0002
3916.00,0.0002
3913.00,0.0002
3910.00,0.0002
3907.00,0.0002
3904.00,0.0002
3901.00,0.0002
3898.00,0.0002
3895.00,0.0002
3892.00,0.0002
3889.00,0.0003
3886.00,0.0002
3883.00,0.0002
3880.00,0.0002
3877.00,0.0002
3874.00,0.0002
3871.00,0.0002
3868.00,0.0002
3865.00,0.0003
3862.00,0.0002
3859.00,0.0002
3856.00,0.0003
3853.00,0.0004
3850.00,0.0003
3847.00,0.0002
3844.00,0.0002
3841.00,0.0003
3838.00,0.0003
3835.00,0.0003
3832.00,0.0003
3829.00,0.0002
3826.00,0.0002
3823.00,0.0003
3820.00,0.0003
3817.00,0.0004
3814.00,0.0003
3811.00,0.0003
3808.00,0.0003
3805.00,0.0004
3802.00,0.0003
3799.00,0.0003
3796.00,0.0003
3793.00,0.0003
3790.00,0.0003
3787.00,0.0002
3784.00,0.0002
3781.00,0.0002
3778.00,0.0002
3775.00,0.0003
3772.00,0.0002
3769.00,0.0003
3766.00,0.0002
3763.00,0.0002
3760.00,0.0002
3757.00,0.0002
3754.00,0.0003
3751.00,0.0003
3748.00,0.0004
3745.00,0.0003
3742.00,0.0004
3739.00,0.0003
3736.00,0.0002
3733.00,0.0002
3730.00,0.0002
3727.00,0.0002
3724.00,0.0002
3721.00,0.0002
3718.00,0.0002
3715.00,0.0002
3712.00,0.0002
3709.00,0.0003
3706.00,0.0002
3703.00,0.0002
3700.00,0.0003
3697.00,0.0002
3694.00,0.0003
3691.00,0.0003
3688.00,0.0003
3685.00,0.0002
3682.00,0.0001
3679.00,0.0002
3676.00,0.0002
3673.00,0.0003
3670.00,0.0002
3667.00,0.0002
3664.00,0.0002
3661.00,0.0003
3658.00,0.0002
3655.00,0.0003
3652.00,0.0003
3649.00,0.0003
3646.00,0.0003
3643.00,0.0003
3640.00,0.0003
3637.00,0.0002
3634.00,0.0002
3631.00,0.0003
3628.00,0.0003
3625.00,0.0003
3622.00,0.0003
3619.00,0.0003
3616.00,0.0003
3613.00,0.0003
3610.00,0.0003
3607.00,0.0003
3604.00,0.0003
3601.00,0.0004
3598.00,0.0003
3595.00,0.0003
3592.00,0.0003
3589.00,0.0004
3586.00,0.0005
3583.00,0.0005
3580.00,0.0004
3577.00,0.0004
3574.00,0.0005
3571.00,0.0004
3568.00,0.0004
3565.00,0.0004
3562.00,0.0005
3559.00,0.0006
3556.00,0.0006
3553.00,0.0006
3550.00,0.0007
3547.00,0.0007
3544.00,0.0007
3541.00,0.0008
3538.00,0.0008
3535.00,0.0008
3532.00,0.0008
3529.00,0.0008
3526.00,0.0008
3523.00,0.0009
3520.00,0.0009
3517.00,0.0009
3514.00,0.0010
3511.00,0.0009
3508.00,0.0009
3505.00,0.0009
3502.00,0.0010
3499.00,0.0010
3496.00,0.0010
3493.00,0.0011
3490.00,0.0011
3487.00,0.0011
3484.00,0.0011
3481.00,0.0011
3478.00,0.0011
3475.00,0.0012
3472.00,0.0012
3469.00,0.0012
3466.00,0.0012
3463.00,0.0012
3460.00,0.0012
3457.00,0.0012
3454.00,0.0012
3451.00,0.0012
3448.00,0.0012
3445.00,0.0012
3442.00,0.0013
3439.00,0.0013
3436.00,0.0012
3433.00,0.0013
3430.00,0.0013
3427.00,0.0013
3424.00,0.0012
3421.00,0.0013
3418.00,0.0013
3415.00,0.0013
3412.00,0.0013
3409.00,0.0014
3406.00,0.0014
3403.00,0.0014
3400.00,0.0014
3397.00,0.0014
3394.00,0.0014
3391.00,0.0014
3388.00,0.0014
3385.00,0.0014
3382.00,0.0014
3379.00,0.0014
3376.00,0.0014
3373.00,0.0015
3370.00,0.0015
3367.00,0.0015
3364.00,0.0015
3361.00,0.0015
3358.00,0.0015
3355.00,0.0015
3352.00,0.0015
3349.00,0.0016
3346.00,0.0015
3343.00,0.0015
3340.00,0.0015
3337.00,0.0015
3334.00,0.0015
3331.00,0.0015
3328.00,0.0015
3325.00,0.0015
3322.00,0.0015
3319.00,0.0016
3316.00,0.0016
3313.00,0.0016
3310.00,0.0016
3307.00,0.0016
3304.00,0.0016
3301.00,0.0016
3298.00,0.0015
3295.00,0.0016
3292.00,0.0016
3289.00,0.0016
3286.00,0.0015
3283.00,0.0015
3280.00,0.0015
3277.00,0.0015
3274.00,0.0015
3271.00,0.0015
3268.00,0.0015
3265.00,0.0015
3262.00,0.0015
3259.00,0.0014
3256.00,0.0014
3253.00,0.0013
3250.00,0.0013
3247.00,0.0014
3244.00,0.0014
3241.00,0.0014
3238.00,0.0013
3235.00,0.0013
3232.00,0.0013
3229.00,0.0012
3226.00,0.0013
3223.00,0.0012
3220.00,0.0012
3217.00,0.0013
3214.00,0.0013
3211.00,0.0013
3208.00,0.0013
3205.00,0.0013
3202.00,0.0013
3199.00,0.0013
3196.00,0.0012
3193.00,0.0012
3190.00,0.0011
3187.00,0.0012
3184.00,0.0011
3181.00,0.0011
3178.00,0.0011
3175.00,0.0011
3172.00,0.0011
3169.00,0.0011
3166.00,0.0011
3163.00,0.0012
3160.00,0.0011
3157.00,0.0011
3154.00,0.0011
3151.00,0.0011
3148.00,0.0010
3145.00,0.0010
3142.00,0.0010
3139.00,0.0010
3136.00,0.0010
3133.00,0.0010
3130.00,0.0010
3127.00,0.0010
3124.00,0.0010
3121.00,0.0011
3118.00,0.0011
3115.00,0.0012
3112.00,0.0014
3109.00,0.0018
3106.00,0.0021
3103.00,0.0023
3100.00,0.0022
3097.00,0.0021
3094.00,0.0022
3091.00,0.0026
3088.00,0.0035
3085.00,0.0046
3082.00,0.0052
3079.00,0.0047
3076.00,0.0041
3073.00,0.0039
3070.00,0.0041
3067.00,0.0049
3064.00,0.0060
3061.00,0.0069
3058.00,0.0069
3055.00,0.0060
3052.00,0.0049
3049.00,0.0041
3046.00,0.0037
3043.00,0.0037
3040.00,0.0042
3037.00,0.0052
3034.00,0.0068
3031.00,0.0093
3028.00,0.0121
3025.00,0.0135
3022.00,0.0118
3019.00,0.0084
3016.00,0.0057
3013.00,0.0042
3010.00,0.0035
3007.00,0.0034
3004.00,0.0037
3001.00,0.0039
2998.00,0.0035
2995.00,0.0029
2992.00,0.0024
2989.00,0.0022
2986.00,0.0022
2983.00,0.0023
2980.00,0.0025
2977.00,0.0026
2974.00,0.0029
2971.00,0.0031
2968.00,0.0034
2965.00,0.0038
2962.00,0.0042
2959.00,0.0047
2956.00,0.0053
2953.00,0.0058
2950.00,0.0064
2947.00,0.0072
2944.00,0.0084
2941.00,0.0098
2938.00,0.0114
2935.00,0.0132
2932.00,0.0153
2929.00,0.0172
2926.00,0.0186
2923.00,0.0194
2920.00,0.0194
2917.00,0.0186
2914.00,0.0173
2911.00,0.0157
2908.00,0.0141
2905.00,0.0126
2902.00,0.0112
2899.00,0.0098
2896.00,0.0086
2893.00,0.0077
2890.00,0.0070
2887.00,0.0065
2884.00,0.0060
2881.00,0.0056
2878.00,0.0053
2875.00,0.0051
2872.00,0.0050
2869.00,0.0050
2866.00,0.0052
2863.00,0.0057
2860.00,0.0065
2857.00,0.0075
2854.00,0.0085
2851.00,0.0090
2848.00,0.0087
2845.00,0.0076
2842.00,0.0060
2839.00,0.0045
2836.00,0.0033
2833.00,0.0025
2830.00,0.0021
2827.00,0.0018
2824.00,0.0016
2821.00,0.0016
2818.00,0.0015
2815.00,0.0015
2812.00,0.0014
2809.00,0.0014
2806.00,0.0013
2803.00,0.0013
2800.00,0.0012
2797.00,0.0012
2794.00,0.0012
2791.00,0.0011
2788.00,0.0011
2785.00,0.0010
2782.00,0.0010
2779.00,0.0011
2776.00,0.0010
2773.00,0.0010
2770.00,0.0010
2767.00,0.0009
2764.00,0.0010
2761.00,0.0009
2758.00,0.0009
2755.00,0.0009
2752.00,0.0009
2749.00,0.0009
2746.00,0.0009
2743.00,0.0009
2740.00,0.0009
2737.00,0.0009
2734.00,0.0009
2731.00,0.0009
2728.00,0.0008
2725.00,0.0008
2722.00,0.0009
2719.00,0.0009
2716.00,0.0009
2713.00,0.0009
2710.00,0.0009
2707.00,0.0009
2704.00,0.0009
2701.00,0.0009
2698.00,0.0009
2695.00,0.0009
2692.00,0.0009
2689.00,0.0009
2686.00,0.0009
2683.00,0.0009
2680.00,0.0009
2677.00,0.0009
2674.00,0.0008
2671.00,0.0009
2668.00,0.0009
2665.00,0.0010
2662.00,0.0010
2659.00,0.0011
2656.00,0.0012
2653.00,0.0013
2650.00,0.0013
2647.00,0.0013
2644.00,0.0012
2641.00,0.0012
2638.00,0.0012
2635.00,0.0012
2632.00,0.0012
2629.00,0.0012
2626.00,0.0012
2623.00,0.0011
2620.00,0.0010
2617.00,0.0011
2614.00,0.0010
2611.00,0.0010
2608.00,0.0010
2605.00,0.0011
2602.00,0.0011
2599.00,0.0010
2596.00,0.0009
2593.00,0.0009
2590.00,0.0009
2587.00,0.0009
2584.00,0.0009
2581.00,0.0009
2578.00,0.0008
2575.00,0.0008
2572.00,0.0008
2569.00,0.0008
2566.00,0.0007
2563.00,0.0006
2560.00,0.0007
2557.00,0.0007
2554.00,0.0007
2551.00,0.0007
2548.00,0.0007
2545.00,0.0007
2542.00,0.0007
2539.00,0.0007
2536.00,0.0006
2533.00,0.0006
2530.00,0.0006
2527.00,0.0006
2524.00,0.0006
2521.00,0.0006
2518.00,0.0006
2515.00,0.0007
2512.00,0.0006
2509.00,0.0005
2506.00,0.0006
2503.00,0.0006
2500.00,0.0006
2497.00,0.0006
2494.00,0.0005
2491.00,0.0005
2488.00,0.0006
2485.00,0.0005
2482.00,0.0004
2479.00,0.0004
2476.00,0.0005
2473.00,0.0005
2470.00,0.0005
2467.00,0.0004
2464.00,0.0004
2461.00,0.0005
2458.00,0.0006
2455.00,0.0005
2452.00,0.0005
2449.00,0.0004
2446.00,0.0004
2443.00,0.0004
2440.00,0.0004
2437.00,0.0003
2434.00,0.0003
2431.00,0.0003
2428.00,0.0003
2425.00,0.0003
2422.00,0.0003
2419.00,0.0003
2416.00,0.0003
2413.00,0.0003
2410.00,0.0002
2407.00,0.0001
2404.00,0.0001
2401.00,0.0001
2398.00,0.0001
2395.00,0.0001
2392.00,0.0000
2389.00,0.0000
2386.00,0.0001
2383.00,0.0000
2380.00,0.0000
2377.00,0.0001
2374.00,0.0001
2371.00,0.0001
2368.00,0.0000
2365.00,0.0001
2362.00,0.0003
2359.00,0.0003
2356.00,0.0002
2353.00,0.0003
2350.00,0.0003
2347.00,0.0005
2344.00,0.0008
2341.00,0.0006
2338.00,0.0006
2335.00,0.0006
2332.00,0.0006
2329.00,0.0007
2326.00,0.0013
2323.00,0.0013
2320.00,0.0010
2317.00,0.0008
2314.00,0.0007
2311.00,0.0008
2308.00,0.0007
2305.00,0.0007
2302.00,0.0006
2299.00,0.0006
2296.00,0.0007
2293.00,0.0010
2290.00,0.0012
2287.00,0.0012
2284.00,0.0010
2281.00,0.0008
2278.00,0.0008
2275.00,0.0008
2272.00,0.0007
2269.00,0.0006
2266.00,0.0005
2263.00,0.0004
2260.00,0.0006
2257.00,0.0005
2254.00,0.0002
2251.00,0.0004
2248.00,0.0004
2245.00,0.0006
2242.00,0.0007
2239.00,0.0005
2236.00,0.0005
2233.00,0.0004
2230.00,0.0004
2227.00,0.0004
2224.00,0.0005
2221.00,0.0006
2218.00,0.0006
2215.00,0.0005
2212.00,0.0002
2209.00,0.0003
2206.00,0.0004
2203.00,0.0002
2200.00,0.0003
2197.00,0.0003
2194.00,0.0005
2191.00,0.0008
2188.00,0.0010
2185.00,0.0006
2182.00,0.0001
2179.00,0.0003
2176.00,0.0001
2173.00,0.0004
2170.00,0.0009
2167.00,0.0012
2164.00,0.0011
2161.00,0.0003
2158.00,-0.0020
2155.00,-0.0017
2152.00,-0.0012
2149.00,-0.0009
2146.00,-0.0010
2143.00,-0.0008
2140.00,-0.0008
2137.00,-0.0011
2134.00,-0.0014
2131.00,-0.0011
2128.00,-0.0009
2125.00,-0.0005
2122.00,-0.0003
2119.00,-0.0001
2116.00,0.0001
2113.00,0.0002
2110.00,0.0001
2107.00,0.0001
2104.00,-0.0000
2101.00,0.0002
2098.00,-0.0000
2095.00,-0.0003
2092.00,-0.0003
2089.00,0.0000
2086.00,0.0002
2083.00,0.0003
2080.00,0.0001
2077.00,0.0002
2074.00,0.0004
2071.00,0.0003
2068.00,0.0001
2065.00,0.0000
2062.00,0.0001
2059.00,0.0000
2056.00,0.0001
2053.00,0.0006
2050.00,0.0009
2047.00,0.0006
2044.00,0.0007
2041.00,0.0006
2038.00,0.0003
2035.00,-0.0002
2032.00,-0.0004
2029.00,-0.0005
2026.00,-0.0004
2023.00,-0.0003
2020.00,-0.0001
2017.00,-0.0000
2014.00,0.0002
2011.00,-0.0001
2008.00,-0.0003
2005.00,-0.0007
2002.00,-0.0004
1999.00,-0.0005
1996.00,-0.0001
1993.00,0.0000
1990.00,0.0001
1987.00,0.0004
1984.00,0.0007
1981.00,0.0014
1978.00,0.0005
1975.00,-0.0004
1972.00,-0.0003
1969.00,0.0000
1966.00,-0.0003
1963.00,0.0000
1960.00,0.0000
1957.00,0.0003
1954.00,0.0008
1951.00,0.0009
1948.00,0.0012
1945.00,0.0013
1942.00,0.0013
1939.00,0.0011
1936.00,0.0009
1933.00,0.0006
1930.00,0.0003
1927.00,0.0001
1924.00,-0.0000
1921.00,0.0001
1918.00,0.0001
1915.00,0.0001
1912.00,0.0000
1909.00,-0.0000
1906.00,0.0000
1903.00,0.0001
1900.00,0.0002
1897.00,0.0002
1894.00,0.0004
1891.00,0.0005
1888.00,0.0007
1885.00,0.0009
1882.00,0.0011
1879.00,0.0012
1876.00,0.0013
1873.00,0.0014
1870.00,0.0013
1867.00,0.0012
1864.00,0.0012
1861.00,0.0009
1858.00,0.0007
1855.00,0.0005
1852.00,0.0003
1849.00,0.0002
1846.00,0.0000
1843.00,0.0001
1840.00,0.0001
1837.00,0.0002
1834.00,0.0003
1831.00,0.0003
1828.00,0.0004
1825.00,0.0006
1822.00,0.0008
1819.00,0.0008
1816.00,0.0009
1813.00,0.0011
1810.00,0.0015
1807.00,0.0017
1804.00,0.0018
1801.00,0.0019
1798.00,0.0018
1795.00,0.0016
1792.00,0.0014
1789.00,0.0013
1786.00,0.0013
1783.00,0.0013
1780.00,0.0014
1777.00,0.0015
1774.00,0.0016
1771.00,0.0018
1768.00,0.0018
1765.00,0.0020
1762.00,0.0023
1759.00,0.0028
1756.00,0.0034
1753.00,0.0042
1750.00,0.0050
1747.00,0.0059
1744.00,0.0065
1741.00,0.0066
1738.00,0.0065
1735.00,0.0062
1732.00,0.0055
1729.00,0.0053
1726.00,0.0050
1723.00,0.0046
1720.00,0.0044
1717.00,0.0040
1714.00,0.0038
1711.00,0.0038
1708.00,0.0038
1705.00,0.0037
1702.00,0.0037
1699.00,0.0036
1696.00,0.0035
1693.00,0.0036
1690.00,0.0038
1687.00,0.0040
1684.00,0.0041
1681.00,0.0043
1678.00,0.0044
1675.00,0.0045
1672.00,0.0046
1669.00,0.0047
1666.00,0.0047
1663.00,0.0047
1660.00,0.0047
1657.00,0.0046
1654.00,0.0045
1651.00,0.0042
1648.00,0.0041
1645.00,0.0039
1642.00,0.0038
1639.00,0.0036
1636.00,0.0034
1633.00,0.0033
1630.00,0.0031
1627.00,0.0031
1624.00,0.0031
1621.00,0.0031
1618.00,0.0032
1615.00,0.0034
1612.00,0.0039
1609.00,0.0052
1606.00,0.0084
1603.00,0.0126
1600.00,0.0138
1597.00,0.0104
1594.00,0.0070
1591.00,0.0054
1588.00,0.0050
1585.00,0.0061
1582.00,0.0064
1579.00,0.0048
1576.00,0.0035
1573.00,0.0031
1570.00,0.0029
1567.00,0.0028
1564.00,0.0028
1561.00,0.0028
1558.00,0.0029
1555.00,0.0030
1552.00,0.0032
1549.00,0.0033
1546.00,0.0034
1543.00,0.0035
1540.00,0.0034
1537.00,0.0032
1534.00,0.0030
1531.00,0.0028
1528.00,0.0026
1525.00,0.0025
1522.00,0.0023
1519.00,0.0023
1516.00,0.0024
1513.00,0.0024
1510.00,0.0025
1507.00,0.0027
1504.00,0.0035
1501.00,0.0049
1498.00,0.0100
1495.00,0.0240
1492.00,0.0321
1489.00,0.0202
1486.00,0.0106
1483.00,0.0066
1480.00,0.0048
1477.00,0.0042
1474.00,0.0040
1471.00,0.0044
1468.00,0.0050
1465.00,0.0054
1462.00,0.0061
1459.00,0.0083
1456.00,0.0181
1453.00,0.0310
1450.00,0.0315
1447.00,0.0242
1444.00,0.0192
1441.00,0.0151
1438.00,0.0120
1435.00,0.0088
1432.00,0.0069
1429.00,0.0056
1426.00,0.0050
1423.00,0.0047
1420.00,0.0046
1417.00,0.0045
1414.00,0.0044
1411.00,0.0044
1408.00,0.0043
1405.00,0.0043
1402.00,0.0043
1399.00,0.0043
1396.00,0.0045
1393.00,0.0048
1390.00,0.0054
1387.00,0.0060
1384.00,0.0067
1381.00,0.0074
1378.00,0.0079
1375.00,0.0084
1372.00,0.0086
1369.00,0.0085
1366.00,0.0083
1363.00,0.0081
1360.00,0.0078
1357.00,0.0075
1354.00,0.0073
1351.00,0.0073
1348.00,0.0071
1345.00,0.0069
1342.00,0.0066
1339.00,0.0063
1336.00,0.0064
1333.00,0.0068
1330.00,0.0072
1327.00,0.0073
1324.00,0.0071
1321.00,0.0069
1318.00,0.0069
1315.00,0.0071
1312.00,0.0072
1309.00,0.0071
1306.00,0.0068
1303.00,0.0066
1300.00,0.0063
1297.00,0.0063
1294.00,0.0063
1291.00,0.0063
1288.00,0.0062
1285.00,0.0061
1282.00,0.0061
1279.00,0.0060
1276.00,0.0058
1273.00,0.0056
1270.00,0.0055
1267.00,0.0054
1264.00,0.0053
1261.00,0.0052
1258.00,0.0052
1255.00,0.0053
1252.00,0.0053
1249.00,0.0054
1246.00,0.0055
1243.00,0.0055
1240.00,0.0054
1237.00,0.0054
1234.00,0.0053
1231.00,0.0053
1228.00,0.0054
1225.00,0.0054
1222.00,0.0054
1219.00,0.0054
1216.00,0.0055
1213.00,0.0056
1210.00,0.0058
1207.00,0.0060
1204.00,0.0064
1201.00,0.0069
1198.00,0.0073
1195.00,0.0075
1192.00,0.0076
1189.00,0.0078
1186.00,0.0085
1183.00,0.0096
1180.00,0.0099
1177.00,0.0088
1174.00,0.0077
1171.00,0.0073
1168.00,0.0072
1165.00,0.0071
1162.00,0.0074
1159.00,0.0083
1156.00,0.0097
1153.00,0.0097
1150.00,0.0080
1147.00,0.0068
1144.00,0.0061
1141.00,0.0056
1138.00,0.0053
1135.00,0.0052
1132.00,0.0051
1129.00,0.0051
1126.00,0.0052
1123.00,0.0055
1120.00,0.0057
1117.00,0.0061
1114.00,0.0065
1111.00,0.0066
1108.00,0.0065
1105.00,0.0065
1102.00,0.0066
1099.00,0.0068
1096.00,0.0069
1093.00,0.0071
1090.00,0.0072
1087.00,0.0075
1084.00,0.0079
1081.00,0.0085
1078.00,0.0092
1075.00,0.0103
1072.00,0.0114
1069.00,0.0120
1066.00,0.0116
1063.00,0.0104
1060.00,0.0093
1057.00,0.0085
1054.00,0.0079
1051.00,0.0073
1048.00,0.0070
1045.00,0.0069
1042.00,0.0068
1039.00,0.0072
1036.00,0.0089
1033.00,0.0131
1030.00,0.0174
1027.00,0.0184
1024.00,0.0154
1021.00,0.0124
1018.00,0.0105
1015.00,0.0093
1012.00,0.0085
1009.00,0.0081
1006.00,0.0083
1003.00,0.0086
1000.00,0.0077
997.00,0.0066
994.00,0.0063
991.00,0.0064
988.00,0.0067
985.00,0.0071
982.00,0.0076
979.00,0.0077
976.00,0.0073
973.00,0.0070
970.00,0.0073
967.00,0.0080
964.00,0.0082
961.00,0.0077
958.00,0.0068
955.00,0.0063
952.00,0.0060
949.00,0.0061
946.00,0.0064
943.00,0.0067
940.00,0.0065
937.00,0.0059
934.00,0.0053
931.00,0.0049
928.00,0.0048
925.00,0.0049
922.00,0.0051
919.00,0.0057
916.00,0.0066
913.00,0.0085
910.00,0.0107
907.00,0.0122
904.00,0.0117
901.00,0.0092
898.00,0.0068
895.00,0.0053
892.00,0.0047
889.00,0.0044
886.00,0.0040
883.00,0.0037
880.00,0.0037
877.00,0.0036
874.00,0.0035
871.00,0.0034
868.00,0.0032
865.00,0.0032
862.00,0.0031
859.00,0.0032
856.00,0.0033
853.00,0.0036
850.00,0.0041
847.00,0.0051
844.00,0.0059
841.00,0.0061
838.00,0.0055
835.00,0.0045
832.00,0.0036
829.00,0.0032
826.00,0.0030
823.00,0.0028
820.00,0.0029
817.00,0.0029
814.00,0.0031
811.00,0.0032
808.00,0.0033
805.00,0.0032
802.00,0.0035
799.00,0.0039
796.00,0.0042
793.00,0.0048
790.00,0.0058
787.00,0.0067
784.00,0.0079
781.00,0.0097
778.00,0.0123
775.00,0.0159
772.00,0.0205
769.00,0.0261
766.00,0.0316
763.00,0.0369
760.00,0.0422
757.00,0.0464
754.00,0.0475
751.00,0.0469
748.00,0.0466
745.00,0.0428
742.00,0.0342
739.00,0.0253
736.00,0.0182
733.00,0.0123
730.00,0.0084
727.00,0.0068
724.00,0.0061
721.00,0.0060
718.00,0.0063
715.00,0.0073
712.00,0.0106
709.00,0.0191
706.00,0.0357
703.00,0.0602
700.00,0.0895
697.00,0.1174
694.00,0.1252
691.00,0.0965
688.00,0.0633
685.00,0.0442
682.00,0.0338
679.00,0.0275
676.00,0.0233
673.00,0.0206
670.00,0.0189
667.00,0.0164
664.00,0.0149
661.00,0.0133
658.00,0.0116
655.00,0.0103
652.00,0.0093
649.00,0.0084
646.00,0.0078
643.00,0.0074
640.00,0.0073
637.00,0.0077
634.00,0.0083
631.00,0.0089
628.00,0.0093
625.00,0.0095
622.00,0.0100
619.00,0.0100
616.00,0.0092
613.00,0.0086
610.00,0.0080
607.00,0.0080
604.00,0.0080
601.00,0.0081
598.00,0.0084
595.00,0.0087
592.00,0.0090
589.00,0.0094
586.00,0.0100
583.00,0.0106
580.00,0.0115
577.00,0.0130
574.00,0.0152
571.00,0.0174
568.00,0.0188
565.00,0.0206
562.00,0.0227
559.00,0.0241
556.00,0.0262
553.00,0.0285
550.00,0.0312
547.00,0.0344
544.00,0.0388
541.00,0.0432
538.00,0.0450
535.00,0.0429
532.00,0.0370
529.00,0.0305
526.00,0.0247
523.00,0.0203
520.00,0.0174
517.00,0.0155
514.00,0.0147
511.00,0.0136
508.00,0.0120
505.00,0.0105
502.00,0.0101
499.00,0.0098
496.00,0.0089
493.00,0.0089
490.00,0.0084
487.00,0.0078
484.00,0.0081
481.00,0.0077
478.00,0.0076
475.00,0.0073
472.00,0.0070
469.00,0.0072
466.00,0.0072
463.00,0.0065
460.00,0.0068
457.00,0.0068
454.00,0.0072
451.00,0.0067
448.00,0.0068
445.00,0.0064
442.00,0.0057
439.00,0.0059
436.00,0.0052
433.00,0.0061
430.00,0.0054
427.00,0.0052
424.00,0.0052
421.00,0.0055
418.00,0.0055
415.00,0.0048
412.00,0.0047
409.00,0.0057
406.00,0.0042
403.00,0.0041
400.00,0.0053