File: FTIR/Mary/2025_11_14_Polystyrene_Post_Scan3.csv
Created as New Dataset,Sample 368 By YargerLab Date Friday, November 14 2025
cm-1,A
4000.00,0.0001
3997.00,0.0001
3994.00,0.0001
3991.00,0.0001
3988.00,0.0001
3985.00,0.0001
3982.00,0.0000
3979.00,0.0000
3976.00,0.0000
3973.00,0.0000
3970.00,0.0001
3967.00,0.0000
3964.00,0.0001
3961.00,-0.0000
3958.00,-0.0000
3955.00,0.0000
3952.00,0.0000
3949.00,0.0000
3946.00,0.0000
3943.00,-0.0000
3940.00,0.0000
3937.00,-0.0000
3934.00,0.0000
3931.00,0.0000
3928.00,0.0000
3925.00,0.0000
3922.00,0.0000
3919.00,-0.0000
3916.00,-0.0000
3913.00,0.0000
3910.00,0.0000
3907.00,0.0000
3904.00,0.0000
3901.00,0.0000
3898.00,0.0000
3895.00,-0.0000
3892.00,-0.0000
3889.00,-0.0000
3886.00,0.0000
3883.00,0.0000
3880.00,0.0000
3877.00,0.0000
3874.00,0.0000
3871.00,0.0000
3868.00,0.0000
3865.00,-0.0000
3862.00,0.0000
3859.00,0.0000
3856.00,0.0000
3853.00,-0.0000
3850.00,-0.0000
3847.00,-0.0000
3844.00,0.0000
3841.00,0.0001
3838.00,0.0001
3835.00,0.0001
3832.00,0.0000
3829.00,0.0001
3826.00,0.0001
3823.00,0.0001
3820.00,0.0000
3817.00,0.0000
3814.00,0.0001
3811.00,0.0001
3808.00,0.0001
3805.00,0.0001
3802.00,0.0001
3799.00,0.0001
3796.00,0.0000
3793.00,0.0000
3790.00,0.0000
3787.00,0.0000
3784.00,0.0000
3781.00,0.0000
3778.00,-0.0001
3775.00,-0.0001
3772.00,-0.0000
3769.00,-0.0000
3766.00,0.0000
3763.00,0.0001
3760.00,0.0001
3757.00,0.0001
3754.00,0.0001
3751.00,0.0001
3748.00,0.0001
3745.00,0.0000
3742.00,0.0000
3739.00,0.0001
3736.00,0.0001
3733.00,0.0001
3730.00,0.0000
3727.00,0.0001
3724.00,0.0001
3721.00,0.0000
3718.00,-0.0000
3715.00,-0.0000
3712.00,0.0001
3709.00,0.0000
3706.00,0.0001
3703.00,0.0001
3700.00,0.0001
3697.00,-0.0000
3694.00,0.0000
3691.00,0.0000
3688.00,-0.0000
3685.00,-0.0000
3682.00,0.0000
3679.00,0.0001
3676.00,0.0001
3673.00,0.0001
3670.00,0.0001
3667.00,0.0000
3664.00,0.0001
3661.00,0.0001
3658.00,0.0002
3655.00,0.0003
3652.00,0.0003
3649.00,0.0004
3646.00,0.0004
3643.00,0.0003
3640.00,0.0003
3637.00,0.0003
3634.00,0.0003
3631.00,0.0003
3628.00,0.0003
3625.00,0.0003
3622.00,0.0004
3619.00,0.0004
3616.00,0.0004
3613.00,0.0003
3610.00,0.0004
3607.00,0.0004
3604.00,0.0004
3601.00,0.0004
3598.00,0.0005
3595.00,0.0005
3592.00,0.0005
3589.00,0.0005
3586.00,0.0005
3583.00,0.0005
3580.00,0.0005
3577.00,0.0006
3574.00,0.0007
3571.00,0.0007
3568.00,0.0007
3565.00,0.0008
3562.00,0.0008
3559.00,0.0008
3556.00,0.0009
3553.00,0.0009
3550.00,0.0009
3547.00,0.0010
3544.00,0.0010
3541.00,0.0010
3538.00,0.0010
3535.00,0.0011
3532.00,0.0011
3529.00,0.0012
3526.00,0.0012
3523.00,0.0012
3520.00,0.0013
3517.00,0.0013
3514.00,0.0013
3511.00,0.0013
3508.00,0.0013
3505.00,0.0014
3502.00,0.0014
3499.00,0.0015
3496.00,0.0015
3493.00,0.0015
3490.00,0.0016
3487.00,0.0016
3484.00,0.0017
3481.00,0.0017
3478.00,0.0018
3475.00,0.0018
3472.00,0.0018
3469.00,0.0018
3466.00,0.0018
3463.00,0.0019
3460.00,0.0019
3457.00,0.0019
3454.00,0.0019
3451.00,0.0019
3448.00,0.0019
3445.00,0.0020
3442.00,0.0020
3439.00,0.0019
3436.00,0.0020
3433.00,0.0020
3430.00,0.0021
3427.00,0.0021
3424.00,0.0021
3421.00,0.0021
3418.00,0.0021
3415.00,0.0021
3412.00,0.0021
3409.00,0.0021
3406.00,0.0022
3403.00,0.0022
3400.00,0.0022
3397.00,0.0022
3394.00,0.0023
3391.00,0.0023
3388.00,0.0023
3385.00,0.0024
3382.00,0.0024
3379.00,0.0024
3376.00,0.0024
3373.00,0.0024
3370.00,0.0024
3367.00,0.0025
3364.00,0.0025
3361.00,0.0025
3358.00,0.0025
3355.00,0.0026
3352.00,0.0026
3349.00,0.0026
3346.00,0.0026
3343.00,0.0026
3340.00,0.0027
3337.00,0.0026
3334.00,0.0026
3331.00,0.0027
3328.00,0.0027
3325.00,0.0027
3322.00,0.0028
3319.00,0.0028
3316.00,0.0028
3313.00,0.0028
3310.00,0.0028
3307.00,0.0028
3304.00,0.0028
3301.00,0.0028
3298.00,0.0028
3295.00,0.0028
3292.00,0.0028
3289.00,0.0028
3286.00,0.0028
3283.00,0.0028
3280.00,0.0028
3277.00,0.0027
3274.00,0.0027
3271.00,0.0026
3268.00,0.0026
3265.00,0.0026
3262.00,0.0025
3259.00,0.0025
3256.00,0.0025
3253.00,0.0025
3250.00,0.0024
3247.00,0.0023
3244.00,0.0023
3241.00,0.0022
3238.00,0.0022
3235.00,0.0023
3232.00,0.0023
3229.00,0.0022
3226.00,0.0021
3223.00,0.0021
3220.00,0.0021
3217.00,0.0021
3214.00,0.0022
3211.00,0.0022
3208.00,0.0022
3205.00,0.0022
3202.00,0.0022
3199.00,0.0021
3196.00,0.0020
3193.00,0.0020
3190.00,0.0019
3187.00,0.0019
3184.00,0.0018
3181.00,0.0018
3178.00,0.0018
3175.00,0.0017
3172.00,0.0017
3169.00,0.0018
3166.00,0.0019
3163.00,0.0019
3160.00,0.0019
3157.00,0.0017
3154.00,0.0016
3151.00,0.0016
3148.00,0.0016
3145.00,0.0015
3142.00,0.0015
3139.00,0.0015
3136.00,0.0015
3133.00,0.0015
3130.00,0.0015
3127.00,0.0015
3124.00,0.0016
3121.00,0.0017
3118.00,0.0018
3115.00,0.0021
3112.00,0.0027
3109.00,0.0035
3106.00,0.0043
3103.00,0.0047
3100.00,0.0046
3097.00,0.0044
3094.00,0.0046
3091.00,0.0059
3088.00,0.0083
3085.00,0.0112
3082.00,0.0126
3079.00,0.0113
3076.00,0.0095
3073.00,0.0089
3070.00,0.0096
3067.00,0.0117
3064.00,0.0149
3061.00,0.0175
3058.00,0.0172
3055.00,0.0144
3052.00,0.0114
3049.00,0.0094
3046.00,0.0084
3043.00,0.0086
3040.00,0.0098
3037.00,0.0124
3034.00,0.0169
3031.00,0.0239
3028.00,0.0315
3025.00,0.0346
3022.00,0.0294
3019.00,0.0201
3016.00,0.0129
3013.00,0.0089
3010.00,0.0071
3007.00,0.0071
3004.00,0.0081
3001.00,0.0087
2998.00,0.0077
2995.00,0.0060
2992.00,0.0049
2989.00,0.0044
2986.00,0.0043
2983.00,0.0043
2980.00,0.0044
2977.00,0.0046
2974.00,0.0049
2971.00,0.0052
2968.00,0.0058
2965.00,0.0065
2962.00,0.0073
2959.00,0.0083
2956.00,0.0095
2953.00,0.0109
2950.00,0.0126
2947.00,0.0148
2944.00,0.0174
2941.00,0.0207
2938.00,0.0248
2935.00,0.0296
2932.00,0.0347
2929.00,0.0397
2926.00,0.0436
2923.00,0.0458
2920.00,0.0458
2917.00,0.0436
2914.00,0.0399
2911.00,0.0361
2908.00,0.0325
2905.00,0.0289
2902.00,0.0254
2899.00,0.0220
2896.00,0.0191
2893.00,0.0170
2890.00,0.0154
2887.00,0.0141
2884.00,0.0130
2881.00,0.0120
2878.00,0.0112
2875.00,0.0104
2872.00,0.0099
2869.00,0.0097
2866.00,0.0101
2863.00,0.0113
2860.00,0.0131
2857.00,0.0154
2854.00,0.0175
2851.00,0.0185
2848.00,0.0178
2845.00,0.0158
2842.00,0.0126
2839.00,0.0090
2836.00,0.0062
2833.00,0.0045
2830.00,0.0036
2827.00,0.0031
2824.00,0.0028
2821.00,0.0026
2818.00,0.0026
2815.00,0.0025
2812.00,0.0024
2809.00,0.0024
2806.00,0.0023
2803.00,0.0022
2800.00,0.0021
2797.00,0.0020
2794.00,0.0019
2791.00,0.0018
2788.00,0.0018
2785.00,0.0018
2782.00,0.0017
2779.00,0.0017
2776.00,0.0017
2773.00,0.0016
2770.00,0.0015
2767.00,0.0015
2764.00,0.0014
2761.00,0.0013
2758.00,0.0014
2755.00,0.0013
2752.00,0.0013
2749.00,0.0013
2746.00,0.0012
2743.00,0.0012
2740.00,0.0013
2737.00,0.0013
2734.00,0.0013
2731.00,0.0013
2728.00,0.0013
2725.00,0.0013
2722.00,0.0013
2719.00,0.0013
2716.00,0.0013
2713.00,0.0013
2710.00,0.0012
2707.00,0.0012
2704.00,0.0012
2701.00,0.0011
2698.00,0.0012
2695.00,0.0012
2692.00,0.0012
2689.00,0.0012
2686.00,0.0012
2683.00,0.0012
2680.00,0.0012
2677.00,0.0012
2674.00,0.0012
2671.00,0.0012
2668.00,0.0012
2665.00,0.0013
2662.00,0.0015
2659.00,0.0015
2656.00,0.0015
2653.00,0.0015
2650.00,0.0016
2647.00,0.0016
2644.00,0.0015
2641.00,0.0016
2638.00,0.0016
2635.00,0.0016
2632.00,0.0016
2629.00,0.0016
2626.00,0.0015
2623.00,0.0013
2620.00,0.0013
2617.00,0.0012
2614.00,0.0012
2611.00,0.0012
2608.00,0.0013
2605.00,0.0013
2602.00,0.0012
2599.00,0.0012
2596.00,0.0011
2593.00,0.0010
2590.00,0.0009
2587.00,0.0010
2584.00,0.0010
2581.00,0.0010
2578.00,0.0010
2575.00,0.0008
2572.00,0.0008
2569.00,0.0007
2566.00,0.0007
2563.00,0.0006
2560.00,0.0006
2557.00,0.0007
2554.00,0.0006
2551.00,0.0007
2548.00,0.0007
2545.00,0.0007
2542.00,0.0006
2539.00,0.0006
2536.00,0.0005
2533.00,0.0006
2530.00,0.0006
2527.00,0.0005
2524.00,0.0005
2521.00,0.0006
2518.00,0.0006
2515.00,0.0005
2512.00,0.0006
2509.00,0.0006
2506.00,0.0005
2503.00,0.0005
2500.00,0.0005
2497.00,0.0004
2494.00,0.0004
2491.00,0.0004
2488.00,0.0003
2485.00,0.0003
2482.00,0.0003
2479.00,0.0003
2476.00,0.0004
2473.00,0.0003
2470.00,0.0003
2467.00,0.0003
2464.00,0.0002
2461.00,0.0002
2458.00,0.0003
2455.00,0.0003
2452.00,0.0003
2449.00,0.0002
2446.00,0.0002
2443.00,0.0002
2440.00,0.0001
2437.00,0.0000
2434.00,-0.0000
2431.00,-0.0000
2428.00,-0.0000
2425.00,-0.0001
2422.00,-0.0001
2419.00,-0.0001
2416.00,-0.0001
2413.00,-0.0001
2410.00,-0.0001
2407.00,-0.0003
2404.00,-0.0003
2401.00,-0.0003
2398.00,-0.0003
2395.00,-0.0002
2392.00,-0.0002
2389.00,-0.0002
2386.00,-0.0002
2383.00,-0.0001
2380.00,-0.0002
2377.00,-0.0001
2374.00,-0.0001
2371.00,-0.0002
2368.00,-0.0001
2365.00,0.0001
2362.00,0.0002
2359.00,0.0003
2356.00,0.0003
2353.00,0.0003
2350.00,0.0004
2347.00,0.0006
2344.00,0.0007
2341.00,0.0007
2338.00,0.0008
2335.00,0.0008
2332.00,0.0007
2329.00,0.0009
2326.00,0.0018
2323.00,0.0015
2320.00,0.0011
2317.00,0.0011
2314.00,0.0012
2311.00,0.0013
2308.00,0.0011
2305.00,0.0010
2302.00,0.0008
2299.00,0.0008
2296.00,0.0010
2293.00,0.0010
2290.00,0.0012
2287.00,0.0012
2284.00,0.0010
2281.00,0.0007
2278.00,0.0005
2275.00,0.0005
2272.00,0.0005
2269.00,0.0004
2266.00,0.0002
2263.00,0.0002
2260.00,0.0005
2257.00,0.0004
2254.00,0.0000
2251.00,0.0002
2248.00,0.0002
2245.00,0.0002
2242.00,0.0001
2239.00,0.0002
2236.00,0.0002
2233.00,0.0001
2230.00,-0.0000
2227.00,-0.0000
2224.00,-0.0000
2221.00,-0.0004
2218.00,-0.0004
2215.00,-0.0001
2212.00,-0.0003
2209.00,-0.0001
2206.00,-0.0003
2203.00,-0.0003
2200.00,-0.0001
2197.00,-0.0001
2194.00,0.0001
2191.00,0.0001
2188.00,-0.0001
2185.00,-0.0002
2182.00,-0.0004
2179.00,-0.0003
2176.00,-0.0007
2173.00,-0.0002
2170.00,0.0001
2167.00,0.0001
2164.00,0.0010
2161.00,-0.0005
2158.00,-0.0035
2155.00,-0.0029
2152.00,-0.0022
2149.00,-0.0021
2146.00,-0.0021
2143.00,-0.0019
2140.00,-0.0018
2137.00,-0.0022
2134.00,-0.0023
2131.00,-0.0020
2128.00,-0.0015
2125.00,-0.0012
2122.00,-0.0010
2119.00,-0.0008
2116.00,-0.0004
2113.00,-0.0004
2110.00,-0.0004
2107.00,-0.0003
2104.00,-0.0005
2101.00,-0.0005
2098.00,-0.0007
2095.00,-0.0009
2092.00,-0.0008
2089.00,-0.0004
2086.00,-0.0002
2083.00,-0.0003
2080.00,-0.0002
2077.00,-0.0002
2074.00,-0.0004
2071.00,-0.0004
2068.00,-0.0006
2065.00,-0.0008
2062.00,-0.0007
2059.00,-0.0004
2056.00,-0.0006
2053.00,-0.0001
2050.00,-0.0001
2047.00,-0.0004
2044.00,-0.0005
2041.00,-0.0004
2038.00,-0.0002
2035.00,-0.0006
2032.00,-0.0011
2029.00,-0.0011
2026.00,-0.0007
2023.00,-0.0009
2020.00,-0.0014
2017.00,-0.0013
2014.00,-0.0010
2011.00,-0.0010
2008.00,-0.0013
2005.00,-0.0013
2002.00,-0.0012
1999.00,-0.0006
1996.00,-0.0002
1993.00,-0.0002
1990.00,0.0003
1987.00,0.0003
1984.00,0.0008
1981.00,0.0013
1978.00,-0.0002
1975.00,-0.0004
1972.00,-0.0004
1969.00,-0.0002
1966.00,0.0004
1963.00,0.0013
1960.00,0.0012
1957.00,0.0016
1954.00,0.0023
1951.00,0.0026
1948.00,0.0034
1945.00,0.0040
1942.00,0.0041
1939.00,0.0038
1936.00,0.0028
1933.00,0.0020
1930.00,0.0012
1927.00,0.0007
1924.00,0.0004
1921.00,0.0004
1918.00,0.0003
1915.00,0.0001
1912.00,0.0002
1909.00,0.0002
1906.00,0.0002
1903.00,0.0004
1900.00,0.0006
1897.00,0.0009
1894.00,0.0014
1891.00,0.0020
1888.00,0.0023
1885.00,0.0027
1882.00,0.0030
1879.00,0.0033
1876.00,0.0035
1873.00,0.0037
1870.00,0.0038
1867.00,0.0036
1864.00,0.0032
1861.00,0.0025
1858.00,0.0017
1855.00,0.0014
1852.00,0.0011
1849.00,0.0008
1846.00,0.0008
1843.00,0.0006
1840.00,0.0006
1837.00,0.0006
1834.00,0.0008
1831.00,0.0011
1828.00,0.0014
1825.00,0.0018
1822.00,0.0022
1819.00,0.0024
1816.00,0.0028
1813.00,0.0034
1810.00,0.0040
1807.00,0.0045
1804.00,0.0050
1801.00,0.0052
1798.00,0.0048
1795.00,0.0043
1792.00,0.0036
1789.00,0.0031
1786.00,0.0029
1783.00,0.0030
1780.00,0.0032
1777.00,0.0035
1774.00,0.0037
1771.00,0.0038
1768.00,0.0041
1765.00,0.0045
1762.00,0.0051
1759.00,0.0061
1756.00,0.0075
1753.00,0.0093
1750.00,0.0112
1747.00,0.0126
1744.00,0.0135
1741.00,0.0135
1738.00,0.0122
1735.00,0.0111
1732.00,0.0094
1729.00,0.0085
1726.00,0.0079
1723.00,0.0071
1720.00,0.0066
1717.00,0.0059
1714.00,0.0055
1711.00,0.0053
1708.00,0.0053
1705.00,0.0054
1702.00,0.0056
1699.00,0.0056
1696.00,0.0057
1693.00,0.0058
1690.00,0.0062
1687.00,0.0066
1684.00,0.0070
1681.00,0.0073
1678.00,0.0076
1675.00,0.0079
1672.00,0.0081
1669.00,0.0081
1666.00,0.0081
1663.00,0.0080
1660.00,0.0077
1657.00,0.0072
1654.00,0.0068
1651.00,0.0066
1648.00,0.0061
1645.00,0.0059
1642.00,0.0055
1639.00,0.0053
1636.00,0.0051
1633.00,0.0049
1630.00,0.0048
1627.00,0.0049
1624.00,0.0049
1621.00,0.0051
1618.00,0.0054
1615.00,0.0061
1612.00,0.0076
1609.00,0.0118
1606.00,0.0212
1603.00,0.0336
1600.00,0.0362
1597.00,0.0260
1594.00,0.0171
1591.00,0.0128
1588.00,0.0119
1585.00,0.0151
1582.00,0.0159
1579.00,0.0114
1576.00,0.0083
1573.00,0.0071
1570.00,0.0064
1567.00,0.0062
1564.00,0.0061
1561.00,0.0061
1558.00,0.0066
1555.00,0.0067
1552.00,0.0071
1549.00,0.0075
1546.00,0.0078
1543.00,0.0080
1540.00,0.0077
1537.00,0.0072
1534.00,0.0065
1531.00,0.0058
1528.00,0.0054
1525.00,0.0051
1522.00,0.0049
1519.00,0.0049
1516.00,0.0049
1513.00,0.0050
1510.00,0.0054
1507.00,0.0061
1504.00,0.0077
1501.00,0.0116
1498.00,0.0260
1495.00,0.0685
1492.00,0.0888
1489.00,0.0532
1486.00,0.0275
1483.00,0.0166
1480.00,0.0115
1477.00,0.0097
1474.00,0.0089
1471.00,0.0090
1468.00,0.0097
1465.00,0.0105
1462.00,0.0124
1459.00,0.0182
1456.00,0.0500
1453.00,0.0868
1450.00,0.0855
1447.00,0.0646
1444.00,0.0505
1441.00,0.0390
1438.00,0.0304
1435.00,0.0218
1432.00,0.0164
1429.00,0.0128
1426.00,0.0110
1423.00,0.0101
1420.00,0.0096
1417.00,0.0093
1414.00,0.0090
1411.00,0.0088
1408.00,0.0086
1405.00,0.0085
1402.00,0.0085
1399.00,0.0087
1396.00,0.0091
1393.00,0.0101
1390.00,0.0115
1387.00,0.0135
1384.00,0.0154
1381.00,0.0170
1378.00,0.0184
1375.00,0.0198
1372.00,0.0204
1369.00,0.0202
1366.00,0.0198
1363.00,0.0193
1360.00,0.0185
1357.00,0.0177
1354.00,0.0172
1351.00,0.0171
1348.00,0.0168
1345.00,0.0162
1342.00,0.0153
1339.00,0.0146
1336.00,0.0148
1333.00,0.0158
1330.00,0.0170
1327.00,0.0172
1324.00,0.0166
1321.00,0.0161
1318.00,0.0163
1315.00,0.0168
1312.00,0.0172
1309.00,0.0168
1306.00,0.0160
1303.00,0.0152
1300.00,0.0145
1297.00,0.0142
1294.00,0.0140
1291.00,0.0138
1288.00,0.0134
1285.00,0.0132
1282.00,0.0131
1279.00,0.0130
1276.00,0.0125
1273.00,0.0118
1270.00,0.0114
1267.00,0.0110
1264.00,0.0108
1261.00,0.0106
1258.00,0.0105
1255.00,0.0106
1252.00,0.0108
1249.00,0.0109
1246.00,0.0110
1243.00,0.0110
1240.00,0.0108
1237.00,0.0106
1234.00,0.0104
1231.00,0.0104
1228.00,0.0104
1225.00,0.0103
1222.00,0.0102
1219.00,0.0100
1216.00,0.0101
1213.00,0.0103
1210.00,0.0108
1207.00,0.0115
1204.00,0.0126
1201.00,0.0137
1198.00,0.0146
1195.00,0.0150
1192.00,0.0152
1189.00,0.0157
1186.00,0.0174
1183.00,0.0202
1180.00,0.0210
1177.00,0.0180
1174.00,0.0151
1171.00,0.0139
1168.00,0.0134
1165.00,0.0133
1162.00,0.0142
1159.00,0.0168
1156.00,0.0206
1153.00,0.0207
1150.00,0.0165
1147.00,0.0131
1144.00,0.0114
1141.00,0.0103
1138.00,0.0096
1135.00,0.0093
1132.00,0.0093
1129.00,0.0095
1126.00,0.0098
1123.00,0.0104
1120.00,0.0112
1117.00,0.0123
1114.00,0.0133
1111.00,0.0137
1108.00,0.0136
1105.00,0.0134
1102.00,0.0133
1099.00,0.0133
1096.00,0.0136
1093.00,0.0138
1090.00,0.0141
1087.00,0.0148
1084.00,0.0160
1081.00,0.0177
1078.00,0.0194
1075.00,0.0219
1072.00,0.0252
1069.00,0.0267
1066.00,0.0256
1063.00,0.0225
1060.00,0.0195
1057.00,0.0172
1054.00,0.0156
1051.00,0.0142
1048.00,0.0132
1045.00,0.0125
1042.00,0.0124
1039.00,0.0135
1036.00,0.0186
1033.00,0.0301
1030.00,0.0428
1027.00,0.0457
1024.00,0.0372
1021.00,0.0290
1018.00,0.0239
1015.00,0.0205
1012.00,0.0184
1009.00,0.0171
1006.00,0.0176
1003.00,0.0186
1000.00,0.0160
997.00,0.0133
994.00,0.0125
991.00,0.0126
988.00,0.0133
985.00,0.0146
982.00,0.0156
979.00,0.0158
976.00,0.0147
973.00,0.0140
970.00,0.0148
967.00,0.0167
964.00,0.0176
961.00,0.0162
958.00,0.0139
955.00,0.0125
952.00,0.0121
949.00,0.0125
946.00,0.0133
943.00,0.0139
940.00,0.0135
937.00,0.0121
934.00,0.0106
931.00,0.0094
928.00,0.0091
925.00,0.0094
922.00,0.0101
919.00,0.0115
916.00,0.0143
913.00,0.0194
910.00,0.0258
907.00,0.0299
904.00,0.0281
901.00,0.0215
898.00,0.0149
895.00,0.0111
892.00,0.0094
889.00,0.0083
886.00,0.0076
883.00,0.0071
880.00,0.0068
877.00,0.0067
874.00,0.0065
871.00,0.0063
868.00,0.0062
865.00,0.0061
862.00,0.0060
859.00,0.0060
856.00,0.0064
853.00,0.0072
850.00,0.0088
847.00,0.0115
844.00,0.0138
841.00,0.0145
838.00,0.0128
835.00,0.0098
832.00,0.0074
829.00,0.0064
826.00,0.0060
823.00,0.0061
820.00,0.0060
817.00,0.0061
814.00,0.0063
811.00,0.0063
808.00,0.0065
805.00,0.0067
802.00,0.0072
799.00,0.0079
796.00,0.0091
793.00,0.0108
790.00,0.0132
787.00,0.0161
784.00,0.0196
781.00,0.0241
778.00,0.0312
775.00,0.0416
772.00,0.0550
769.00,0.0712
766.00,0.0879
763.00,0.1042
760.00,0.1212
757.00,0.1345
754.00,0.1382
751.00,0.1368
748.00,0.1359
745.00,0.1239
742.00,0.0966
739.00,0.0699
736.00,0.0491
733.00,0.0321
730.00,0.0209
727.00,0.0156
724.00,0.0134
721.00,0.0124
718.00,0.0127
715.00,0.0153
712.00,0.0243
709.00,0.0481
706.00,0.0974
703.00,0.1778
700.00,0.2913
697.00,0.4284
694.00,0.4720
691.00,0.3227
688.00,0.1945
685.00,0.1318
682.00,0.0998
679.00,0.0808
676.00,0.0688
673.00,0.0607
670.00,0.0547
667.00,0.0485
664.00,0.0439
661.00,0.0387
658.00,0.0340
655.00,0.0303
652.00,0.0274
649.00,0.0252
646.00,0.0235
643.00,0.0224
640.00,0.0221
637.00,0.0232
634.00,0.0248
631.00,0.0263
628.00,0.0276
625.00,0.0283
622.00,0.0298
619.00,0.0291
616.00,0.0265
613.00,0.0251
610.00,0.0241
607.00,0.0232
604.00,0.0230
601.00,0.0235
598.00,0.0241
595.00,0.0249
592.00,0.0259
589.00,0.0268
586.00,0.0283
583.00,0.0302
580.00,0.0332
577.00,0.0375
574.00,0.0426
571.00,0.0483
568.00,0.0539
565.00,0.0592
562.00,0.0644
559.00,0.0697
556.00,0.0755
553.00,0.0818
550.00,0.0898
547.00,0.1007
544.00,0.1143
541.00,0.1279
538.00,0.1345
535.00,0.1272
532.00,0.1084
529.00,0.0885
526.00,0.0712
523.00,0.0590
520.00,0.0512
517.00,0.0456
514.00,0.0414
511.00,0.0378
508.00,0.0339
505.00,0.0311
502.00,0.0289
499.00,0.0268
496.00,0.0251
493.00,0.0235
490.00,0.0222
487.00,0.0213
484.00,0.0210
481.00,0.0206
478.00,0.0200
475.00,0.0195
472.00,0.0196
469.00,0.0186
466.00,0.0183
463.00,0.0179
460.00,0.0172
457.00,0.0175
454.00,0.0166
451.00,0.0168
448.00,0.0162
445.00,0.0158
442.00,0.0156
439.00,0.0156
436.00,0.0159
433.00,0.0154
430.00,0.0147
427.00,0.0143
424.00,0.0147
421.00,0.0136
418.00,0.0133
415.00,0.0135
412.00,0.0146
409.00,0.0148
406.00,0.0161
403.00,0.0166
400.00,0.0136