File: FTIR/Mary/2025_06_27_Polystyrene_Std_MEL_Scan3.csv
Created as New Dataset,Sample 744 By YargerLab Date Friday, June 27 2025
cm-1,A
4000.00,0.0015
3997.00,0.0015
3994.00,0.0015
3991.00,0.0015
3988.00,0.0015
3985.00,0.0015
3982.00,0.0015
3979.00,0.0014
3976.00,0.0014
3973.00,0.0015
3970.00,0.0015
3967.00,0.0015
3964.00,0.0015
3961.00,0.0015
3958.00,0.0014
3955.00,0.0015
3952.00,0.0015
3949.00,0.0015
3946.00,0.0015
3943.00,0.0015
3940.00,0.0015
3937.00,0.0015
3934.00,0.0015
3931.00,0.0015
3928.00,0.0014
3925.00,0.0015
3922.00,0.0015
3919.00,0.0016
3916.00,0.0015
3913.00,0.0015
3910.00,0.0014
3907.00,0.0015
3904.00,0.0016
3901.00,0.0016
3898.00,0.0015
3895.00,0.0015
3892.00,0.0014
3889.00,0.0015
3886.00,0.0015
3883.00,0.0015
3880.00,0.0015
3877.00,0.0015
3874.00,0.0015
3871.00,0.0015
3868.00,0.0015
3865.00,0.0015
3862.00,0.0015
3859.00,0.0015
3856.00,0.0014
3853.00,0.0015
3850.00,0.0015
3847.00,0.0015
3844.00,0.0015
3841.00,0.0015
3838.00,0.0015
3835.00,0.0015
3832.00,0.0015
3829.00,0.0015
3826.00,0.0015
3823.00,0.0016
3820.00,0.0016
3817.00,0.0015
3814.00,0.0015
3811.00,0.0015
3808.00,0.0015
3805.00,0.0016
3802.00,0.0016
3799.00,0.0016
3796.00,0.0016
3793.00,0.0015
3790.00,0.0015
3787.00,0.0014
3784.00,0.0015
3781.00,0.0015
3778.00,0.0015
3775.00,0.0015
3772.00,0.0015
3769.00,0.0016
3766.00,0.0015
3763.00,0.0016
3760.00,0.0017
3757.00,0.0016
3754.00,0.0017
3751.00,0.0016
3748.00,0.0015
3745.00,0.0016
3742.00,0.0016
3739.00,0.0017
3736.00,0.0017
3733.00,0.0017
3730.00,0.0016
3727.00,0.0015
3724.00,0.0015
3721.00,0.0016
3718.00,0.0016
3715.00,0.0015
3712.00,0.0015
3709.00,0.0016
3706.00,0.0015
3703.00,0.0015
3700.00,0.0015
3697.00,0.0015
3694.00,0.0015
3691.00,0.0014
3688.00,0.0014
3685.00,0.0014
3682.00,0.0014
3679.00,0.0014
3676.00,0.0014
3673.00,0.0014
3670.00,0.0013
3667.00,0.0012
3664.00,0.0012
3661.00,0.0012
3658.00,0.0012
3655.00,0.0013
3652.00,0.0014
3649.00,0.0014
3646.00,0.0014
3643.00,0.0013
3640.00,0.0013
3637.00,0.0013
3634.00,0.0014
3631.00,0.0014
3628.00,0.0015
3625.00,0.0015
3622.00,0.0015
3619.00,0.0015
3616.00,0.0016
3613.00,0.0015
3610.00,0.0015
3607.00,0.0015
3604.00,0.0015
3601.00,0.0015
3598.00,0.0015
3595.00,0.0015
3592.00,0.0015
3589.00,0.0016
3586.00,0.0016
3583.00,0.0016
3580.00,0.0015
3577.00,0.0015
3574.00,0.0015
3571.00,0.0015
3568.00,0.0015
3565.00,0.0016
3562.00,0.0015
3559.00,0.0015
3556.00,0.0015
3553.00,0.0015
3550.00,0.0015
3547.00,0.0016
3544.00,0.0016
3541.00,0.0016
3538.00,0.0016
3535.00,0.0016
3532.00,0.0016
3529.00,0.0016
3526.00,0.0016
3523.00,0.0016
3520.00,0.0016
3517.00,0.0016
3514.00,0.0016
3511.00,0.0016
3508.00,0.0017
3505.00,0.0017
3502.00,0.0017
3499.00,0.0017
3496.00,0.0017
3493.00,0.0017
3490.00,0.0017
3487.00,0.0017
3484.00,0.0017
3481.00,0.0017
3478.00,0.0017
3475.00,0.0017
3472.00,0.0017
3469.00,0.0017
3466.00,0.0017
3463.00,0.0018
3460.00,0.0017
3457.00,0.0017
3454.00,0.0017
3451.00,0.0018
3448.00,0.0018
3445.00,0.0017
3442.00,0.0018
3439.00,0.0018
3436.00,0.0018
3433.00,0.0018
3430.00,0.0018
3427.00,0.0018
3424.00,0.0018
3421.00,0.0018
3418.00,0.0018
3415.00,0.0018
3412.00,0.0019
3409.00,0.0018
3406.00,0.0018
3403.00,0.0019
3400.00,0.0019
3397.00,0.0018
3394.00,0.0018
3391.00,0.0019
3388.00,0.0019
3385.00,0.0018
3382.00,0.0018
3379.00,0.0018
3376.00,0.0018
3373.00,0.0019
3370.00,0.0018
3367.00,0.0018
3364.00,0.0018
3361.00,0.0018
3358.00,0.0018
3355.00,0.0018
3352.00,0.0018
3349.00,0.0019
3346.00,0.0018
3343.00,0.0018
3340.00,0.0019
3337.00,0.0018
3334.00,0.0018
3331.00,0.0018
3328.00,0.0018
3325.00,0.0018
3322.00,0.0018
3319.00,0.0017
3316.00,0.0017
3313.00,0.0018
3310.00,0.0018
3307.00,0.0019
3304.00,0.0019
3301.00,0.0018
3298.00,0.0018
3295.00,0.0019
3292.00,0.0019
3289.00,0.0018
3286.00,0.0018
3283.00,0.0017
3280.00,0.0017
3277.00,0.0018
3274.00,0.0018
3271.00,0.0018
3268.00,0.0018
3265.00,0.0018
3262.00,0.0017
3259.00,0.0017
3256.00,0.0018
3253.00,0.0017
3250.00,0.0017
3247.00,0.0017
3244.00,0.0017
3241.00,0.0017
3238.00,0.0017
3235.00,0.0018
3232.00,0.0017
3229.00,0.0017
3226.00,0.0017
3223.00,0.0017
3220.00,0.0017
3217.00,0.0017
3214.00,0.0017
3211.00,0.0017
3208.00,0.0017
3205.00,0.0018
3202.00,0.0017
3199.00,0.0017
3196.00,0.0017
3193.00,0.0018
3190.00,0.0017
3187.00,0.0017
3184.00,0.0017
3181.00,0.0017
3178.00,0.0016
3175.00,0.0016
3172.00,0.0017
3169.00,0.0017
3166.00,0.0018
3163.00,0.0018
3160.00,0.0018
3157.00,0.0018
3154.00,0.0017
3151.00,0.0017
3148.00,0.0017
3145.00,0.0017
3142.00,0.0016
3139.00,0.0017
3136.00,0.0017
3133.00,0.0016
3130.00,0.0017
3127.00,0.0017
3124.00,0.0018
3121.00,0.0018
3118.00,0.0020
3115.00,0.0021
3112.00,0.0023
3109.00,0.0027
3106.00,0.0032
3103.00,0.0034
3100.00,0.0033
3097.00,0.0032
3094.00,0.0033
3091.00,0.0039
3088.00,0.0051
3085.00,0.0066
3082.00,0.0073
3079.00,0.0067
3076.00,0.0058
3073.00,0.0055
3070.00,0.0058
3067.00,0.0069
3064.00,0.0084
3061.00,0.0096
3058.00,0.0096
3055.00,0.0084
3052.00,0.0069
3049.00,0.0058
3046.00,0.0053
3043.00,0.0054
3040.00,0.0061
3037.00,0.0073
3034.00,0.0096
3031.00,0.0129
3028.00,0.0167
3025.00,0.0184
3022.00,0.0161
3019.00,0.0117
3016.00,0.0080
3013.00,0.0059
3010.00,0.0048
3007.00,0.0046
3004.00,0.0047
3001.00,0.0047
2998.00,0.0040
2995.00,0.0030
2992.00,0.0022
2989.00,0.0018
2986.00,0.0015
2983.00,0.0009
2980.00,0.0008
2977.00,0.0012
2974.00,0.0015
2971.00,0.0016
2968.00,0.0021
2965.00,0.0026
2962.00,0.0032
2959.00,0.0038
2956.00,0.0044
2953.00,0.0052
2950.00,0.0061
2947.00,0.0073
2944.00,0.0087
2941.00,0.0104
2938.00,0.0123
2935.00,0.0146
2932.00,0.0170
2929.00,0.0193
2926.00,0.0209
2923.00,0.0217
2920.00,0.0217
2917.00,0.0210
2914.00,0.0198
2911.00,0.0182
2908.00,0.0166
2905.00,0.0149
2902.00,0.0132
2899.00,0.0115
2896.00,0.0100
2893.00,0.0089
2890.00,0.0081
2887.00,0.0074
2884.00,0.0070
2881.00,0.0065
2878.00,0.0062
2875.00,0.0059
2872.00,0.0057
2869.00,0.0056
2866.00,0.0058
2863.00,0.0063
2860.00,0.0072
2857.00,0.0082
2854.00,0.0092
2851.00,0.0098
2848.00,0.0098
2845.00,0.0091
2842.00,0.0077
2839.00,0.0061
2836.00,0.0047
2833.00,0.0038
2830.00,0.0033
2827.00,0.0030
2824.00,0.0028
2821.00,0.0026
2818.00,0.0025
2815.00,0.0025
2812.00,0.0025
2809.00,0.0025
2806.00,0.0024
2803.00,0.0023
2800.00,0.0023
2797.00,0.0023
2794.00,0.0022
2791.00,0.0022
2788.00,0.0021
2785.00,0.0021
2782.00,0.0021
2779.00,0.0021
2776.00,0.0021
2773.00,0.0021
2770.00,0.0020
2767.00,0.0020
2764.00,0.0020
2761.00,0.0019
2758.00,0.0019
2755.00,0.0019
2752.00,0.0019
2749.00,0.0019
2746.00,0.0019
2743.00,0.0019
2740.00,0.0019
2737.00,0.0019
2734.00,0.0019
2731.00,0.0019
2728.00,0.0020
2725.00,0.0020
2722.00,0.0019
2719.00,0.0019
2716.00,0.0019
2713.00,0.0019
2710.00,0.0019
2707.00,0.0019
2704.00,0.0019
2701.00,0.0019
2698.00,0.0019
2695.00,0.0019
2692.00,0.0019
2689.00,0.0019
2686.00,0.0019
2683.00,0.0019
2680.00,0.0019
2677.00,0.0019
2674.00,0.0019
2671.00,0.0019
2668.00,0.0019
2665.00,0.0020
2662.00,0.0021
2659.00,0.0022
2656.00,0.0022
2653.00,0.0022
2650.00,0.0022
2647.00,0.0022
2644.00,0.0022
2641.00,0.0022
2638.00,0.0022
2635.00,0.0023
2632.00,0.0023
2629.00,0.0023
2626.00,0.0022
2623.00,0.0021
2620.00,0.0020
2617.00,0.0021
2614.00,0.0021
2611.00,0.0021
2608.00,0.0021
2605.00,0.0021
2602.00,0.0021
2599.00,0.0020
2596.00,0.0020
2593.00,0.0019
2590.00,0.0018
2587.00,0.0019
2584.00,0.0019
2581.00,0.0019
2578.00,0.0019
2575.00,0.0018
2572.00,0.0018
2569.00,0.0018
2566.00,0.0017
2563.00,0.0018
2560.00,0.0018
2557.00,0.0017
2554.00,0.0017
2551.00,0.0017
2548.00,0.0018
2545.00,0.0017
2542.00,0.0017
2539.00,0.0017
2536.00,0.0017
2533.00,0.0016
2530.00,0.0016
2527.00,0.0016
2524.00,0.0016
2521.00,0.0016
2518.00,0.0017
2515.00,0.0017
2512.00,0.0017
2509.00,0.0017
2506.00,0.0016
2503.00,0.0017
2500.00,0.0016
2497.00,0.0016
2494.00,0.0017
2491.00,0.0016
2488.00,0.0016
2485.00,0.0016
2482.00,0.0016
2479.00,0.0015
2476.00,0.0015
2473.00,0.0015
2470.00,0.0016
2467.00,0.0015
2464.00,0.0015
2461.00,0.0016
2458.00,0.0016
2455.00,0.0016
2452.00,0.0016
2449.00,0.0016
2446.00,0.0016
2443.00,0.0014
2440.00,0.0015
2437.00,0.0014
2434.00,0.0014
2431.00,0.0014
2428.00,0.0014
2425.00,0.0014
2422.00,0.0013
2419.00,0.0013
2416.00,0.0013
2413.00,0.0013
2410.00,0.0013
2407.00,0.0013
2404.00,0.0013
2401.00,0.0013
2398.00,0.0013
2395.00,0.0013
2392.00,0.0012
2389.00,0.0012
2386.00,0.0012
2383.00,0.0012
2380.00,0.0012
2377.00,0.0012
2374.00,0.0012
2371.00,0.0011
2368.00,0.0011
2365.00,0.0013
2362.00,0.0014
2359.00,0.0014
2356.00,0.0014
2353.00,0.0015
2350.00,0.0015
2347.00,0.0016
2344.00,0.0017
2341.00,0.0018
2338.00,0.0018
2335.00,0.0017
2332.00,0.0018
2329.00,0.0018
2326.00,0.0025
2323.00,0.0025
2320.00,0.0021
2317.00,0.0020
2314.00,0.0020
2311.00,0.0020
2308.00,0.0020
2305.00,0.0020
2302.00,0.0020
2299.00,0.0020
2296.00,0.0020
2293.00,0.0022
2290.00,0.0022
2287.00,0.0022
2284.00,0.0022
2281.00,0.0020
2278.00,0.0019
2275.00,0.0019
2272.00,0.0017
2269.00,0.0017
2266.00,0.0016
2263.00,0.0016
2260.00,0.0018
2257.00,0.0018
2254.00,0.0016
2251.00,0.0017
2248.00,0.0016
2245.00,0.0016
2242.00,0.0016
2239.00,0.0017
2236.00,0.0017
2233.00,0.0017
2230.00,0.0015
2227.00,0.0015
2224.00,0.0015
2221.00,0.0017
2218.00,0.0018
2215.00,0.0016
2212.00,0.0016
2209.00,0.0014
2206.00,0.0015
2203.00,0.0017
2200.00,0.0015
2197.00,0.0016
2194.00,0.0017
2191.00,0.0014
2188.00,0.0017
2185.00,0.0016
2182.00,0.0012
2179.00,0.0014
2176.00,0.0012
2173.00,0.0014
2170.00,0.0016
2167.00,0.0022
2164.00,0.0026
2161.00,0.0017
2158.00,-0.0010
2155.00,-0.0007
2152.00,-0.0000
2149.00,-0.0000
2146.00,-0.0001
2143.00,0.0001
2140.00,0.0002
2137.00,0.0001
2134.00,-0.0002
2131.00,0.0001
2128.00,0.0004
2125.00,0.0006
2122.00,0.0008
2119.00,0.0009
2116.00,0.0013
2113.00,0.0013
2110.00,0.0013
2107.00,0.0011
2104.00,0.0011
2101.00,0.0011
2098.00,0.0010
2095.00,0.0007
2092.00,0.0010
2089.00,0.0012
2086.00,0.0012
2083.00,0.0013
2080.00,0.0014
2077.00,0.0013
2074.00,0.0012
2071.00,0.0012
2068.00,0.0012
2065.00,0.0010
2062.00,0.0011
2059.00,0.0010
2056.00,0.0010
2053.00,0.0014
2050.00,0.0017
2047.00,0.0010
2044.00,0.0013
2041.00,0.0013
2038.00,0.0011
2035.00,0.0011
2032.00,0.0009
2029.00,0.0005
2026.00,0.0002
2023.00,0.0007
2020.00,0.0008
2017.00,0.0007
2014.00,0.0008
2011.00,0.0009
2008.00,0.0005
2005.00,0.0001
2002.00,0.0004
1999.00,0.0009
1996.00,0.0011
1993.00,0.0014
1990.00,0.0017
1987.00,0.0018
1984.00,0.0018
1981.00,0.0021
1978.00,0.0013
1975.00,0.0006
1972.00,0.0006
1969.00,0.0013
1966.00,0.0016
1963.00,0.0016
1960.00,0.0016
1957.00,0.0017
1954.00,0.0023
1951.00,0.0027
1948.00,0.0029
1945.00,0.0032
1942.00,0.0033
1939.00,0.0030
1936.00,0.0026
1933.00,0.0022
1930.00,0.0017
1927.00,0.0014
1924.00,0.0013
1921.00,0.0014
1918.00,0.0012
1915.00,0.0012
1912.00,0.0011
1909.00,0.0011
1906.00,0.0012
1903.00,0.0012
1900.00,0.0014
1897.00,0.0016
1894.00,0.0019
1891.00,0.0022
1888.00,0.0024
1885.00,0.0026
1882.00,0.0027
1879.00,0.0028
1876.00,0.0029
1873.00,0.0031
1870.00,0.0031
1867.00,0.0030
1864.00,0.0028
1861.00,0.0025
1858.00,0.0020
1855.00,0.0018
1852.00,0.0015
1849.00,0.0015
1846.00,0.0015
1843.00,0.0014
1840.00,0.0014
1837.00,0.0014
1834.00,0.0015
1831.00,0.0016
1828.00,0.0017
1825.00,0.0019
1822.00,0.0021
1819.00,0.0022
1816.00,0.0024
1813.00,0.0028
1810.00,0.0031
1807.00,0.0033
1804.00,0.0035
1801.00,0.0036
1798.00,0.0035
1795.00,0.0031
1792.00,0.0027
1789.00,0.0023
1786.00,0.0021
1783.00,0.0020
1780.00,0.0021
1777.00,0.0021
1774.00,0.0021
1771.00,0.0022
1768.00,0.0022
1765.00,0.0022
1762.00,0.0024
1759.00,0.0028
1756.00,0.0031
1753.00,0.0035
1750.00,0.0040
1747.00,0.0043
1744.00,0.0046
1741.00,0.0048
1738.00,0.0048
1735.00,0.0049
1732.00,0.0047
1729.00,0.0044
1726.00,0.0041
1723.00,0.0038
1720.00,0.0037
1717.00,0.0035
1714.00,0.0034
1711.00,0.0033
1708.00,0.0032
1705.00,0.0031
1702.00,0.0031
1699.00,0.0031
1696.00,0.0030
1693.00,0.0029
1690.00,0.0029
1687.00,0.0029
1684.00,0.0031
1681.00,0.0032
1678.00,0.0032
1675.00,0.0033
1672.00,0.0034
1669.00,0.0034
1666.00,0.0033
1663.00,0.0032
1660.00,0.0032
1657.00,0.0031
1654.00,0.0029
1651.00,0.0028
1648.00,0.0028
1645.00,0.0027
1642.00,0.0027
1639.00,0.0027
1636.00,0.0027
1633.00,0.0027
1630.00,0.0027
1627.00,0.0028
1624.00,0.0029
1621.00,0.0030
1618.00,0.0031
1615.00,0.0035
1612.00,0.0044
1609.00,0.0067
1606.00,0.0116
1603.00,0.0180
1600.00,0.0195
1597.00,0.0141
1594.00,0.0092
1591.00,0.0069
1588.00,0.0063
1585.00,0.0079
1582.00,0.0082
1579.00,0.0057
1576.00,0.0038
1573.00,0.0032
1570.00,0.0029
1567.00,0.0028
1564.00,0.0026
1561.00,0.0026
1558.00,0.0028
1555.00,0.0030
1552.00,0.0032
1549.00,0.0035
1546.00,0.0037
1543.00,0.0037
1540.00,0.0035
1537.00,0.0034
1534.00,0.0033
1531.00,0.0031
1528.00,0.0030
1525.00,0.0029
1522.00,0.0028
1519.00,0.0029
1516.00,0.0031
1513.00,0.0032
1510.00,0.0035
1507.00,0.0039
1504.00,0.0049
1501.00,0.0071
1498.00,0.0150
1495.00,0.0376
1492.00,0.0494
1489.00,0.0302
1486.00,0.0158
1483.00,0.0098
1480.00,0.0069
1477.00,0.0058
1474.00,0.0054
1471.00,0.0053
1468.00,0.0056
1465.00,0.0062
1462.00,0.0074
1459.00,0.0109
1456.00,0.0282
1453.00,0.0478
1450.00,0.0475
1447.00,0.0360
1444.00,0.0282
1441.00,0.0218
1438.00,0.0172
1435.00,0.0124
1432.00,0.0094
1429.00,0.0073
1426.00,0.0061
1423.00,0.0054
1420.00,0.0050
1417.00,0.0048
1414.00,0.0045
1411.00,0.0043
1408.00,0.0042
1405.00,0.0041
1402.00,0.0040
1399.00,0.0040
1396.00,0.0041
1393.00,0.0045
1390.00,0.0053
1387.00,0.0064
1384.00,0.0074
1381.00,0.0083
1378.00,0.0093
1375.00,0.0102
1372.00,0.0106
1369.00,0.0106
1366.00,0.0105
1363.00,0.0104
1360.00,0.0100
1357.00,0.0096
1354.00,0.0095
1351.00,0.0095
1348.00,0.0094
1345.00,0.0090
1342.00,0.0084
1339.00,0.0081
1336.00,0.0082
1333.00,0.0087
1330.00,0.0094
1327.00,0.0095
1324.00,0.0091
1321.00,0.0089
1318.00,0.0089
1315.00,0.0092
1312.00,0.0094
1309.00,0.0093
1306.00,0.0088
1303.00,0.0084
1300.00,0.0079
1297.00,0.0077
1294.00,0.0076
1291.00,0.0074
1288.00,0.0072
1285.00,0.0071
1282.00,0.0071
1279.00,0.0069
1276.00,0.0066
1273.00,0.0061
1270.00,0.0057
1267.00,0.0055
1264.00,0.0053
1261.00,0.0052
1258.00,0.0052
1255.00,0.0052
1252.00,0.0054
1249.00,0.0055
1246.00,0.0056
1243.00,0.0057
1240.00,0.0057
1237.00,0.0057
1234.00,0.0057
1231.00,0.0057
1228.00,0.0058
1225.00,0.0058
1222.00,0.0058
1219.00,0.0058
1216.00,0.0060
1213.00,0.0062
1210.00,0.0065
1207.00,0.0068
1204.00,0.0075
1201.00,0.0080
1198.00,0.0085
1195.00,0.0087
1192.00,0.0088
1189.00,0.0090
1186.00,0.0098
1183.00,0.0111
1180.00,0.0113
1177.00,0.0094
1174.00,0.0076
1171.00,0.0069
1168.00,0.0066
1165.00,0.0067
1162.00,0.0072
1159.00,0.0088
1156.00,0.0109
1153.00,0.0109
1150.00,0.0084
1147.00,0.0065
1144.00,0.0056
1141.00,0.0050
1138.00,0.0047
1135.00,0.0046
1132.00,0.0046
1129.00,0.0046
1126.00,0.0047
1123.00,0.0050
1120.00,0.0055
1117.00,0.0061
1114.00,0.0067
1111.00,0.0069
1108.00,0.0068
1105.00,0.0067
1102.00,0.0067
1099.00,0.0069
1096.00,0.0072
1093.00,0.0074
1090.00,0.0077
1087.00,0.0083
1084.00,0.0092
1081.00,0.0103
1078.00,0.0113
1075.00,0.0129
1072.00,0.0148
1069.00,0.0159
1066.00,0.0153
1063.00,0.0136
1060.00,0.0119
1057.00,0.0109
1054.00,0.0100
1051.00,0.0094
1048.00,0.0091
1045.00,0.0088
1042.00,0.0090
1039.00,0.0097
1036.00,0.0126
1033.00,0.0192
1030.00,0.0262
1027.00,0.0277
1024.00,0.0227
1021.00,0.0180
1018.00,0.0152
1015.00,0.0133
1012.00,0.0121
1009.00,0.0115
1006.00,0.0119
1003.00,0.0124
1000.00,0.0109
997.00,0.0094
994.00,0.0089
991.00,0.0089
988.00,0.0093
985.00,0.0101
982.00,0.0109
979.00,0.0110
976.00,0.0103
973.00,0.0097
970.00,0.0101
967.00,0.0111
964.00,0.0116
961.00,0.0107
958.00,0.0091
955.00,0.0082
952.00,0.0081
949.00,0.0084
946.00,0.0089
943.00,0.0092
940.00,0.0089
937.00,0.0081
934.00,0.0073
931.00,0.0068
928.00,0.0067
925.00,0.0069
922.00,0.0074
919.00,0.0083
916.00,0.0100
913.00,0.0131
910.00,0.0170
907.00,0.0195
904.00,0.0185
901.00,0.0146
898.00,0.0107
895.00,0.0083
892.00,0.0071
889.00,0.0065
886.00,0.0061
883.00,0.0058
880.00,0.0056
877.00,0.0053
874.00,0.0052
871.00,0.0051
868.00,0.0050
865.00,0.0049
862.00,0.0048
859.00,0.0050
856.00,0.0053
853.00,0.0057
850.00,0.0068
847.00,0.0084
844.00,0.0098
841.00,0.0102
838.00,0.0091
835.00,0.0073
832.00,0.0057
829.00,0.0050
826.00,0.0046
823.00,0.0044
820.00,0.0046
817.00,0.0047
814.00,0.0049
811.00,0.0050
808.00,0.0050
805.00,0.0052
802.00,0.0054
799.00,0.0060
796.00,0.0069
793.00,0.0079
790.00,0.0094
787.00,0.0114
784.00,0.0136
781.00,0.0166
778.00,0.0209
775.00,0.0270
772.00,0.0351
769.00,0.0450
766.00,0.0551
763.00,0.0651
760.00,0.0757
757.00,0.0840
754.00,0.0863
751.00,0.0855
748.00,0.0843
745.00,0.0768
742.00,0.0605
739.00,0.0445
736.00,0.0319
733.00,0.0214
730.00,0.0146
727.00,0.0114
724.00,0.0103
721.00,0.0102
718.00,0.0107
715.00,0.0127
712.00,0.0187
709.00,0.0342
706.00,0.0662
703.00,0.1178
700.00,0.1850
697.00,0.2540
694.00,0.2736
691.00,0.1993
688.00,0.1247
685.00,0.0856
682.00,0.0650
679.00,0.0521
676.00,0.0441
673.00,0.0388
670.00,0.0353
667.00,0.0313
664.00,0.0279
661.00,0.0243
658.00,0.0212
655.00,0.0187
652.00,0.0167
649.00,0.0151
646.00,0.0138
643.00,0.0133
640.00,0.0134
637.00,0.0140
634.00,0.0151
631.00,0.0160
628.00,0.0168
625.00,0.0174
622.00,0.0184
619.00,0.0184
616.00,0.0168
613.00,0.0154
610.00,0.0143
607.00,0.0142
604.00,0.0143
601.00,0.0145
598.00,0.0150
595.00,0.0156
592.00,0.0163
589.00,0.0171
586.00,0.0179
583.00,0.0192
580.00,0.0214
577.00,0.0243
574.00,0.0277
571.00,0.0311
568.00,0.0347
565.00,0.0381
562.00,0.0415
559.00,0.0452
556.00,0.0491
553.00,0.0532
550.00,0.0581
547.00,0.0649
544.00,0.0737
541.00,0.0830
538.00,0.0881
535.00,0.0837
532.00,0.0715
529.00,0.0576
526.00,0.0466
523.00,0.0385
520.00,0.0329
517.00,0.0295
514.00,0.0269
511.00,0.0241
508.00,0.0219
505.00,0.0200
502.00,0.0186
499.00,0.0174
496.00,0.0163
493.00,0.0153
490.00,0.0150
487.00,0.0141
484.00,0.0132
481.00,0.0130
478.00,0.0130
475.00,0.0128
472.00,0.0121
469.00,0.0112
466.00,0.0114
463.00,0.0112
460.00,0.0109
457.00,0.0106
454.00,0.0105
451.00,0.0106
448.00,0.0104
445.00,0.0105
442.00,0.0100
439.00,0.0089
436.00,0.0092
433.00,0.0098
430.00,0.0093
427.00,0.0082
424.00,0.0077
421.00,0.0083
418.00,0.0092
415.00,0.0086
412.00,0.0089
409.00,0.0105
406.00,0.0103
403.00,0.0112
400.00,0.0097