File: FTIR/Mary/2025_06_11_Standard_Polystyrene_prescan_3.csv
Created as New Dataset,Sample 657 By YargerLab Date Wednesday, June 11 2025
cm-1,A
4000.00,0.0037
3997.00,0.0037
3994.00,0.0037
3991.00,0.0037
3988.00,0.0036
3985.00,0.0037
3982.00,0.0036
3979.00,0.0036
3976.00,0.0036
3973.00,0.0036
3970.00,0.0036
3967.00,0.0036
3964.00,0.0037
3961.00,0.0037
3958.00,0.0037
3955.00,0.0037
3952.00,0.0036
3949.00,0.0037
3946.00,0.0039
3943.00,0.0037
3940.00,0.0037
3937.00,0.0037
3934.00,0.0040
3931.00,0.0039
3928.00,0.0038
3925.00,0.0037
3922.00,0.0038
3919.00,0.0040
3916.00,0.0039
3913.00,0.0037
3910.00,0.0036
3907.00,0.0036
3904.00,0.0042
3901.00,0.0047
3898.00,0.0043
3895.00,0.0041
3892.00,0.0038
3889.00,0.0040
3886.00,0.0043
3883.00,0.0042
3880.00,0.0041
3877.00,0.0042
3874.00,0.0040
3871.00,0.0043
3868.00,0.0043
3865.00,0.0045
3862.00,0.0043
3859.00,0.0042
3856.00,0.0034
3853.00,0.0038
3850.00,0.0044
3847.00,0.0043
3844.00,0.0043
3841.00,0.0043
3838.00,0.0043
3835.00,0.0043
3832.00,0.0043
3829.00,0.0042
3826.00,0.0041
3823.00,0.0044
3820.00,0.0042
3817.00,0.0043
3814.00,0.0040
3811.00,0.0039
3808.00,0.0040
3805.00,0.0042
3802.00,0.0044
3799.00,0.0042
3796.00,0.0041
3793.00,0.0038
3790.00,0.0036
3787.00,0.0035
3784.00,0.0036
3781.00,0.0038
3778.00,0.0037
3775.00,0.0037
3772.00,0.0039
3769.00,0.0041
3766.00,0.0042
3763.00,0.0041
3760.00,0.0042
3757.00,0.0043
3754.00,0.0045
3751.00,0.0048
3748.00,0.0050
3745.00,0.0052
3742.00,0.0050
3739.00,0.0052
3736.00,0.0053
3733.00,0.0051
3730.00,0.0047
3727.00,0.0046
3724.00,0.0044
3721.00,0.0042
3718.00,0.0039
3715.00,0.0039
3712.00,0.0042
3709.00,0.0043
3706.00,0.0041
3703.00,0.0038
3700.00,0.0036
3697.00,0.0037
3694.00,0.0037
3691.00,0.0038
3688.00,0.0041
3685.00,0.0039
3682.00,0.0039
3679.00,0.0041
3676.00,0.0046
3673.00,0.0045
3670.00,0.0045
3667.00,0.0041
3664.00,0.0038
3661.00,0.0037
3658.00,0.0038
3655.00,0.0042
3652.00,0.0049
3649.00,0.0051
3646.00,0.0049
3643.00,0.0041
3640.00,0.0038
3637.00,0.0039
3634.00,0.0041
3631.00,0.0043
3628.00,0.0045
3625.00,0.0047
3622.00,0.0044
3619.00,0.0042
3616.00,0.0046
3613.00,0.0047
3610.00,0.0049
3607.00,0.0046
3604.00,0.0044
3601.00,0.0043
3598.00,0.0044
3595.00,0.0045
3592.00,0.0045
3589.00,0.0048
3586.00,0.0046
3583.00,0.0046
3580.00,0.0042
3577.00,0.0040
3574.00,0.0041
3571.00,0.0045
3568.00,0.0051
3565.00,0.0049
3562.00,0.0047
3559.00,0.0044
3556.00,0.0044
3553.00,0.0044
3550.00,0.0046
3547.00,0.0049
3544.00,0.0048
3541.00,0.0046
3538.00,0.0046
3535.00,0.0046
3532.00,0.0046
3529.00,0.0047
3526.00,0.0049
3523.00,0.0049
3520.00,0.0050
3517.00,0.0048
3514.00,0.0048
3511.00,0.0048
3508.00,0.0048
3505.00,0.0050
3502.00,0.0050
3499.00,0.0050
3496.00,0.0050
3493.00,0.0050
3490.00,0.0049
3487.00,0.0050
3484.00,0.0051
3481.00,0.0051
3478.00,0.0051
3475.00,0.0051
3472.00,0.0052
3469.00,0.0053
3466.00,0.0053
3463.00,0.0053
3460.00,0.0053
3457.00,0.0055
3454.00,0.0055
3451.00,0.0053
3448.00,0.0054
3445.00,0.0054
3442.00,0.0054
3439.00,0.0055
3436.00,0.0055
3433.00,0.0055
3430.00,0.0056
3427.00,0.0057
3424.00,0.0056
3421.00,0.0056
3418.00,0.0057
3415.00,0.0058
3412.00,0.0058
3409.00,0.0058
3406.00,0.0059
3403.00,0.0059
3400.00,0.0061
3397.00,0.0060
3394.00,0.0060
3391.00,0.0061
3388.00,0.0061
3385.00,0.0062
3382.00,0.0063
3379.00,0.0063
3376.00,0.0064
3373.00,0.0065
3370.00,0.0065
3367.00,0.0066
3364.00,0.0067
3361.00,0.0068
3358.00,0.0068
3355.00,0.0068
3352.00,0.0070
3349.00,0.0071
3346.00,0.0072
3343.00,0.0072
3340.00,0.0074
3337.00,0.0075
3334.00,0.0075
3331.00,0.0075
3328.00,0.0077
3325.00,0.0078
3322.00,0.0079
3319.00,0.0080
3316.00,0.0080
3313.00,0.0082
3310.00,0.0084
3307.00,0.0084
3304.00,0.0085
3301.00,0.0086
3298.00,0.0087
3295.00,0.0088
3292.00,0.0088
3289.00,0.0088
3286.00,0.0088
3283.00,0.0088
3280.00,0.0087
3277.00,0.0087
3274.00,0.0087
3271.00,0.0086
3268.00,0.0085
3265.00,0.0082
3262.00,0.0080
3259.00,0.0080
3256.00,0.0079
3253.00,0.0078
3250.00,0.0077
3247.00,0.0076
3244.00,0.0075
3241.00,0.0074
3238.00,0.0072
3235.00,0.0072
3232.00,0.0072
3229.00,0.0070
3226.00,0.0070
3223.00,0.0069
3220.00,0.0068
3217.00,0.0068
3214.00,0.0068
3211.00,0.0067
3208.00,0.0066
3205.00,0.0066
3202.00,0.0065
3199.00,0.0064
3196.00,0.0064
3193.00,0.0063
3190.00,0.0061
3187.00,0.0061
3184.00,0.0060
3181.00,0.0060
3178.00,0.0059
3175.00,0.0060
3172.00,0.0058
3169.00,0.0057
3166.00,0.0057
3163.00,0.0056
3160.00,0.0056
3157.00,0.0056
3154.00,0.0055
3151.00,0.0055
3148.00,0.0054
3145.00,0.0054
3142.00,0.0054
3139.00,0.0054
3136.00,0.0053
3133.00,0.0052
3130.00,0.0053
3127.00,0.0053
3124.00,0.0052
3121.00,0.0053
3118.00,0.0054
3115.00,0.0055
3112.00,0.0056
3109.00,0.0061
3106.00,0.0063
3103.00,0.0066
3100.00,0.0066
3097.00,0.0064
3094.00,0.0065
3091.00,0.0071
3088.00,0.0081
3085.00,0.0093
3082.00,0.0097
3079.00,0.0092
3076.00,0.0085
3073.00,0.0083
3070.00,0.0086
3067.00,0.0095
3064.00,0.0107
3061.00,0.0116
3058.00,0.0114
3055.00,0.0104
3052.00,0.0092
3049.00,0.0085
3046.00,0.0081
3043.00,0.0081
3040.00,0.0086
3037.00,0.0095
3034.00,0.0112
3031.00,0.0139
3028.00,0.0169
3025.00,0.0181
3022.00,0.0161
3019.00,0.0125
3016.00,0.0097
3013.00,0.0081
3010.00,0.0074
3007.00,0.0073
3004.00,0.0076
3001.00,0.0076
2998.00,0.0071
2995.00,0.0065
2992.00,0.0060
2989.00,0.0057
2986.00,0.0055
2983.00,0.0056
2980.00,0.0057
2977.00,0.0058
2974.00,0.0058
2971.00,0.0059
2968.00,0.0059
2965.00,0.0061
2962.00,0.0063
2959.00,0.0066
2956.00,0.0070
2953.00,0.0075
2950.00,0.0082
2947.00,0.0091
2944.00,0.0102
2941.00,0.0114
2938.00,0.0128
2935.00,0.0145
2932.00,0.0162
2929.00,0.0177
2926.00,0.0191
2923.00,0.0200
2920.00,0.0205
2917.00,0.0202
2914.00,0.0193
2911.00,0.0179
2908.00,0.0164
2905.00,0.0151
2902.00,0.0137
2899.00,0.0125
2896.00,0.0114
2893.00,0.0105
2890.00,0.0099
2887.00,0.0094
2884.00,0.0090
2881.00,0.0086
2878.00,0.0083
2875.00,0.0080
2872.00,0.0077
2869.00,0.0075
2866.00,0.0075
2863.00,0.0077
2860.00,0.0082
2857.00,0.0091
2854.00,0.0100
2851.00,0.0107
2848.00,0.0109
2845.00,0.0102
2842.00,0.0091
2839.00,0.0077
2836.00,0.0066
2833.00,0.0059
2830.00,0.0054
2827.00,0.0052
2824.00,0.0050
2821.00,0.0050
2818.00,0.0050
2815.00,0.0048
2812.00,0.0048
2809.00,0.0048
2806.00,0.0047
2803.00,0.0046
2800.00,0.0046
2797.00,0.0046
2794.00,0.0045
2791.00,0.0045
2788.00,0.0044
2785.00,0.0044
2782.00,0.0044
2779.00,0.0043
2776.00,0.0043
2773.00,0.0043
2770.00,0.0043
2767.00,0.0042
2764.00,0.0041
2761.00,0.0041
2758.00,0.0041
2755.00,0.0042
2752.00,0.0042
2749.00,0.0041
2746.00,0.0040
2743.00,0.0041
2740.00,0.0041
2737.00,0.0041
2734.00,0.0040
2731.00,0.0039
2728.00,0.0039
2725.00,0.0040
2722.00,0.0040
2719.00,0.0039
2716.00,0.0039
2713.00,0.0039
2710.00,0.0039
2707.00,0.0040
2704.00,0.0039
2701.00,0.0039
2698.00,0.0039
2695.00,0.0039
2692.00,0.0039
2689.00,0.0039
2686.00,0.0039
2683.00,0.0038
2680.00,0.0039
2677.00,0.0039
2674.00,0.0038
2671.00,0.0037
2668.00,0.0038
2665.00,0.0039
2662.00,0.0040
2659.00,0.0041
2656.00,0.0041
2653.00,0.0041
2650.00,0.0040
2647.00,0.0041
2644.00,0.0041
2641.00,0.0039
2638.00,0.0039
2635.00,0.0040
2632.00,0.0041
2629.00,0.0041
2626.00,0.0040
2623.00,0.0039
2620.00,0.0039
2617.00,0.0039
2614.00,0.0038
2611.00,0.0038
2608.00,0.0038
2605.00,0.0038
2602.00,0.0037
2599.00,0.0037
2596.00,0.0037
2593.00,0.0036
2590.00,0.0036
2587.00,0.0036
2584.00,0.0035
2581.00,0.0036
2578.00,0.0034
2575.00,0.0033
2572.00,0.0035
2569.00,0.0034
2566.00,0.0034
2563.00,0.0034
2560.00,0.0035
2557.00,0.0034
2554.00,0.0032
2551.00,0.0034
2548.00,0.0033
2545.00,0.0032
2542.00,0.0033
2539.00,0.0034
2536.00,0.0033
2533.00,0.0032
2530.00,0.0033
2527.00,0.0034
2524.00,0.0034
2521.00,0.0033
2518.00,0.0032
2515.00,0.0033
2512.00,0.0032
2509.00,0.0032
2506.00,0.0032
2503.00,0.0033
2500.00,0.0032
2497.00,0.0031
2494.00,0.0032
2491.00,0.0034
2488.00,0.0032
2485.00,0.0032
2482.00,0.0032
2479.00,0.0031
2476.00,0.0032
2473.00,0.0031
2470.00,0.0030
2467.00,0.0032
2464.00,0.0032
2461.00,0.0031
2458.00,0.0031
2455.00,0.0032
2452.00,0.0031
2449.00,0.0030
2446.00,0.0031
2443.00,0.0030
2440.00,0.0030
2437.00,0.0031
2434.00,0.0030
2431.00,0.0028
2428.00,0.0028
2425.00,0.0029
2422.00,0.0029
2419.00,0.0028
2416.00,0.0028
2413.00,0.0028
2410.00,0.0029
2407.00,0.0028
2404.00,0.0028
2401.00,0.0028
2398.00,0.0028
2395.00,0.0027
2392.00,0.0027
2389.00,0.0027
2386.00,0.0027
2383.00,0.0027
2380.00,0.0026
2377.00,0.0026
2374.00,0.0026
2371.00,0.0025
2368.00,0.0025
2365.00,0.0026
2362.00,0.0028
2359.00,0.0027
2356.00,0.0027
2353.00,0.0028
2350.00,0.0029
2347.00,0.0029
2344.00,0.0031
2341.00,0.0032
2338.00,0.0031
2335.00,0.0030
2332.00,0.0029
2329.00,0.0032
2326.00,0.0036
2323.00,0.0036
2320.00,0.0035
2317.00,0.0033
2314.00,0.0033
2311.00,0.0033
2308.00,0.0033
2305.00,0.0032
2302.00,0.0031
2299.00,0.0032
2296.00,0.0032
2293.00,0.0035
2290.00,0.0033
2287.00,0.0033
2284.00,0.0033
2281.00,0.0032
2278.00,0.0031
2275.00,0.0029
2272.00,0.0028
2269.00,0.0031
2266.00,0.0031
2263.00,0.0032
2260.00,0.0031
2257.00,0.0028
2254.00,0.0028
2251.00,0.0028
2248.00,0.0028
2245.00,0.0027
2242.00,0.0027
2239.00,0.0028
2236.00,0.0029
2233.00,0.0028
2230.00,0.0028
2227.00,0.0027
2224.00,0.0027
2221.00,0.0026
2218.00,0.0029
2215.00,0.0028
2212.00,0.0027
2209.00,0.0028
2206.00,0.0029
2203.00,0.0029
2200.00,0.0031
2197.00,0.0026
2194.00,0.0027
2191.00,0.0029
2188.00,0.0030
2185.00,0.0031
2182.00,0.0023
2179.00,0.0020
2176.00,0.0023
2173.00,0.0028
2170.00,0.0030
2167.00,0.0029
2164.00,0.0027
2161.00,0.0019
2158.00,-0.0003
2155.00,0.0007
2152.00,0.0013
2149.00,0.0016
2146.00,0.0014
2143.00,0.0014
2140.00,0.0016
2137.00,0.0012
2134.00,0.0009
2131.00,0.0014
2128.00,0.0016
2125.00,0.0017
2122.00,0.0019
2119.00,0.0022
2116.00,0.0024
2113.00,0.0023
2110.00,0.0022
2107.00,0.0026
2104.00,0.0025
2101.00,0.0020
2098.00,0.0020
2095.00,0.0019
2092.00,0.0020
2089.00,0.0022
2086.00,0.0024
2083.00,0.0023
2080.00,0.0024
2077.00,0.0028
2074.00,0.0031
2071.00,0.0028
2068.00,0.0024
2065.00,0.0021
2062.00,0.0021
2059.00,0.0021
2056.00,0.0024
2053.00,0.0028
2050.00,0.0026
2047.00,0.0021
2044.00,0.0021
2041.00,0.0025
2038.00,0.0020
2035.00,0.0018
2032.00,0.0017
2029.00,0.0017
2026.00,0.0017
2023.00,0.0017
2020.00,0.0016
2017.00,0.0014
2014.00,0.0009
2011.00,-0.0008
2008.00,0.0008
2005.00,0.0017
2002.00,0.0022
1999.00,0.0020
1996.00,0.0018
1993.00,0.0023
1990.00,0.0023
1987.00,0.0025
1984.00,0.0031
1981.00,0.0039
1978.00,0.0026
1975.00,0.0011
1972.00,0.0018
1969.00,0.0025
1966.00,0.0027
1963.00,0.0027
1960.00,0.0024
1957.00,0.0026
1954.00,0.0028
1951.00,0.0031
1948.00,0.0036
1945.00,0.0035
1942.00,0.0037
1939.00,0.0036
1936.00,0.0032
1933.00,0.0028
1930.00,0.0027
1927.00,0.0025
1924.00,0.0021
1921.00,0.0022
1918.00,0.0024
1915.00,0.0022
1912.00,0.0022
1909.00,0.0021
1906.00,0.0021
1903.00,0.0021
1900.00,0.0022
1897.00,0.0025
1894.00,0.0027
1891.00,0.0029
1888.00,0.0031
1885.00,0.0033
1882.00,0.0032
1879.00,0.0033
1876.00,0.0034
1873.00,0.0036
1870.00,0.0037
1867.00,0.0036
1864.00,0.0033
1861.00,0.0030
1858.00,0.0028
1855.00,0.0027
1852.00,0.0026
1849.00,0.0024
1846.00,0.0024
1843.00,0.0023
1840.00,0.0023
1837.00,0.0022
1834.00,0.0023
1831.00,0.0023
1828.00,0.0025
1825.00,0.0027
1822.00,0.0028
1819.00,0.0027
1816.00,0.0029
1813.00,0.0032
1810.00,0.0035
1807.00,0.0037
1804.00,0.0038
1801.00,0.0040
1798.00,0.0039
1795.00,0.0036
1792.00,0.0034
1789.00,0.0031
1786.00,0.0028
1783.00,0.0027
1780.00,0.0027
1777.00,0.0027
1774.00,0.0026
1771.00,0.0026
1768.00,0.0027
1765.00,0.0025
1762.00,0.0022
1759.00,0.0023
1756.00,0.0025
1753.00,0.0029
1750.00,0.0029
1747.00,0.0027
1744.00,0.0025
1741.00,0.0023
1738.00,0.0022
1735.00,0.0026
1732.00,0.0026
1729.00,0.0024
1726.00,0.0022
1723.00,0.0024
1720.00,0.0026
1717.00,0.0028
1714.00,0.0029
1711.00,0.0030
1708.00,0.0035
1705.00,0.0040
1702.00,0.0050
1699.00,0.0059
1696.00,0.0066
1693.00,0.0069
1690.00,0.0075
1687.00,0.0080
1684.00,0.0088
1681.00,0.0093
1678.00,0.0098
1675.00,0.0104
1672.00,0.0110
1669.00,0.0115
1666.00,0.0120
1663.00,0.0124
1660.00,0.0131
1657.00,0.0132
1654.00,0.0132
1651.00,0.0137
1648.00,0.0142
1645.00,0.0142
1642.00,0.0142
1639.00,0.0141
1636.00,0.0142
1633.00,0.0140
1630.00,0.0139
1627.00,0.0136
1624.00,0.0131
1621.00,0.0122
1618.00,0.0117
1615.00,0.0112
1612.00,0.0112
1609.00,0.0122
1606.00,0.0154
1603.00,0.0198
1600.00,0.0203
1597.00,0.0159
1594.00,0.0121
1591.00,0.0102
1588.00,0.0097
1585.00,0.0111
1582.00,0.0116
1579.00,0.0097
1576.00,0.0087
1573.00,0.0083
1570.00,0.0084
1567.00,0.0088
1564.00,0.0090
1561.00,0.0091
1558.00,0.0103
1555.00,0.0105
1552.00,0.0113
1549.00,0.0120
1546.00,0.0126
1543.00,0.0127
1540.00,0.0132
1537.00,0.0133
1534.00,0.0131
1531.00,0.0129
1528.00,0.0129
1525.00,0.0128
1522.00,0.0130
1519.00,0.0133
1516.00,0.0138
1513.00,0.0137
1510.00,0.0132
1507.00,0.0132
1504.00,0.0132
1501.00,0.0143
1498.00,0.0196
1495.00,0.0361
1492.00,0.0446
1489.00,0.0296
1486.00,0.0181
1483.00,0.0130
1480.00,0.0106
1477.00,0.0098
1474.00,0.0094
1471.00,0.0093
1468.00,0.0092
1465.00,0.0096
1462.00,0.0107
1459.00,0.0133
1456.00,0.0265
1453.00,0.0415
1450.00,0.0413
1447.00,0.0327
1444.00,0.0268
1441.00,0.0217
1438.00,0.0180
1435.00,0.0142
1432.00,0.0120
1429.00,0.0102
1426.00,0.0092
1423.00,0.0088
1420.00,0.0085
1417.00,0.0086
1414.00,0.0084
1411.00,0.0083
1408.00,0.0084
1405.00,0.0084
1402.00,0.0084
1399.00,0.0085
1396.00,0.0085
1393.00,0.0086
1390.00,0.0091
1387.00,0.0099
1384.00,0.0107
1381.00,0.0113
1378.00,0.0119
1375.00,0.0125
1372.00,0.0127
1369.00,0.0127
1366.00,0.0124
1363.00,0.0121
1360.00,0.0117
1357.00,0.0113
1354.00,0.0112
1351.00,0.0111
1348.00,0.0110
1345.00,0.0107
1342.00,0.0103
1339.00,0.0100
1336.00,0.0102
1333.00,0.0105
1330.00,0.0109
1327.00,0.0109
1324.00,0.0106
1321.00,0.0103
1318.00,0.0104
1315.00,0.0106
1312.00,0.0107
1309.00,0.0104
1306.00,0.0100
1303.00,0.0097
1300.00,0.0092
1297.00,0.0090
1294.00,0.0089
1291.00,0.0088
1288.00,0.0085
1285.00,0.0085
1282.00,0.0085
1279.00,0.0083
1276.00,0.0082
1273.00,0.0079
1270.00,0.0077
1267.00,0.0075
1264.00,0.0074
1261.00,0.0073
1258.00,0.0072
1255.00,0.0072
1252.00,0.0074
1249.00,0.0076
1246.00,0.0076
1243.00,0.0077
1240.00,0.0077
1237.00,0.0076
1234.00,0.0078
1231.00,0.0078
1228.00,0.0078
1225.00,0.0078
1222.00,0.0077
1219.00,0.0078
1216.00,0.0079
1213.00,0.0079
1210.00,0.0081
1207.00,0.0083
1204.00,0.0085
1201.00,0.0089
1198.00,0.0091
1195.00,0.0092
1192.00,0.0091
1189.00,0.0092
1186.00,0.0099
1183.00,0.0111
1180.00,0.0112
1177.00,0.0095
1174.00,0.0081
1171.00,0.0077
1168.00,0.0075
1165.00,0.0076
1162.00,0.0080
1159.00,0.0092
1156.00,0.0108
1153.00,0.0109
1150.00,0.0090
1147.00,0.0073
1144.00,0.0064
1141.00,0.0059
1138.00,0.0056
1135.00,0.0053
1132.00,0.0052
1129.00,0.0053
1126.00,0.0052
1123.00,0.0054
1120.00,0.0058
1117.00,0.0062
1114.00,0.0066
1111.00,0.0068
1108.00,0.0066
1105.00,0.0066
1102.00,0.0066
1099.00,0.0066
1096.00,0.0069
1093.00,0.0074
1090.00,0.0076
1087.00,0.0082
1084.00,0.0090
1081.00,0.0098
1078.00,0.0110
1075.00,0.0123
1072.00,0.0138
1069.00,0.0146
1066.00,0.0142
1063.00,0.0129
1060.00,0.0115
1057.00,0.0107
1054.00,0.0101
1051.00,0.0094
1048.00,0.0089
1045.00,0.0086
1042.00,0.0085
1039.00,0.0089
1036.00,0.0114
1033.00,0.0168
1030.00,0.0223
1027.00,0.0232
1024.00,0.0194
1021.00,0.0158
1018.00,0.0135
1015.00,0.0119
1012.00,0.0109
1009.00,0.0107
1006.00,0.0112
1003.00,0.0113
1000.00,0.0100
997.00,0.0089
994.00,0.0085
991.00,0.0083
988.00,0.0087
985.00,0.0094
982.00,0.0101
979.00,0.0102
976.00,0.0095
973.00,0.0090
970.00,0.0095
967.00,0.0105
964.00,0.0109
961.00,0.0101
958.00,0.0090
955.00,0.0082
952.00,0.0080
949.00,0.0083
946.00,0.0086
943.00,0.0088
940.00,0.0087
937.00,0.0082
934.00,0.0073
931.00,0.0066
928.00,0.0066
925.00,0.0068
922.00,0.0071
919.00,0.0077
916.00,0.0091
913.00,0.0115
910.00,0.0146
907.00,0.0166
904.00,0.0159
901.00,0.0130
898.00,0.0097
895.00,0.0075
892.00,0.0066
889.00,0.0061
886.00,0.0057
883.00,0.0057
880.00,0.0055
877.00,0.0051
874.00,0.0050
871.00,0.0048
868.00,0.0048
865.00,0.0047
862.00,0.0047
859.00,0.0047
856.00,0.0048
853.00,0.0057
850.00,0.0064
847.00,0.0074
844.00,0.0087
841.00,0.0093
838.00,0.0085
835.00,0.0071
832.00,0.0058
829.00,0.0055
826.00,0.0053
823.00,0.0051
820.00,0.0051
817.00,0.0051
814.00,0.0054
811.00,0.0054
808.00,0.0055
805.00,0.0056
802.00,0.0060
799.00,0.0062
796.00,0.0068
793.00,0.0078
790.00,0.0089
787.00,0.0103
784.00,0.0122
781.00,0.0144
778.00,0.0179
775.00,0.0230
772.00,0.0295
769.00,0.0370
766.00,0.0448
763.00,0.0525
760.00,0.0606
757.00,0.0670
754.00,0.0686
751.00,0.0686
748.00,0.0681
745.00,0.0628
742.00,0.0502
739.00,0.0378
736.00,0.0283
733.00,0.0197
730.00,0.0141
727.00,0.0118
724.00,0.0109
721.00,0.0107
718.00,0.0112
715.00,0.0130
712.00,0.0176
709.00,0.0297
706.00,0.0545
703.00,0.0942
700.00,0.1445
697.00,0.1948
694.00,0.2125
691.00,0.1618
688.00,0.1061
685.00,0.0749
682.00,0.0581
679.00,0.0478
676.00,0.0408
673.00,0.0366
670.00,0.0335
667.00,0.0301
664.00,0.0274
661.00,0.0246
658.00,0.0221
655.00,0.0200
652.00,0.0183
649.00,0.0172
646.00,0.0162
643.00,0.0155
640.00,0.0154
637.00,0.0160
634.00,0.0167
631.00,0.0178
628.00,0.0182
625.00,0.0186
622.00,0.0194
619.00,0.0192
616.00,0.0178
613.00,0.0168
610.00,0.0165
607.00,0.0161
604.00,0.0158
601.00,0.0161
598.00,0.0167
595.00,0.0171
592.00,0.0175
589.00,0.0179
586.00,0.0183
583.00,0.0195
580.00,0.0210
577.00,0.0235
574.00,0.0264
571.00,0.0294
568.00,0.0319
565.00,0.0348
562.00,0.0378
559.00,0.0407
556.00,0.0434
553.00,0.0474
550.00,0.0519
547.00,0.0574
544.00,0.0643
541.00,0.0718
538.00,0.0754
535.00,0.0724
532.00,0.0632
529.00,0.0527
526.00,0.0435
523.00,0.0365
520.00,0.0318
517.00,0.0293
514.00,0.0270
511.00,0.0247
508.00,0.0226
505.00,0.0211
502.00,0.0199
499.00,0.0179
496.00,0.0171
493.00,0.0166
490.00,0.0155
487.00,0.0146
484.00,0.0146
481.00,0.0143
478.00,0.0139
475.00,0.0123
472.00,0.0123
469.00,0.0137
466.00,0.0130
463.00,0.0120
460.00,0.0116
457.00,0.0128
454.00,0.0114
451.00,0.0110
448.00,0.0110
445.00,0.0104
442.00,0.0102
439.00,0.0094
436.00,0.0099
433.00,0.0095
430.00,0.0090
427.00,0.0090
424.00,0.0085
421.00,0.0097
418.00,0.0087
415.00,0.0093
412.00,0.0124
409.00,0.0108
406.00,0.0081
403.00,0.0110
400.00,0.0177