File: FTIR/Mary/2025_06_10_Standard_Polystyrene_midset_1.csv
Created as New Dataset,Sample 649 By YargerLab Date Tuesday, June 10 2025
cm-1,A
4000.00,0.0040
3997.00,0.0040
3994.00,0.0040
3991.00,0.0040
3988.00,0.0040
3985.00,0.0040
3982.00,0.0040
3979.00,0.0039
3976.00,0.0039
3973.00,0.0039
3970.00,0.0040
3967.00,0.0040
3964.00,0.0039
3961.00,0.0039
3958.00,0.0040
3955.00,0.0040
3952.00,0.0039
3949.00,0.0039
3946.00,0.0040
3943.00,0.0039
3940.00,0.0039
3937.00,0.0039
3934.00,0.0040
3931.00,0.0040
3928.00,0.0039
3925.00,0.0039
3922.00,0.0039
3919.00,0.0039
3916.00,0.0039
3913.00,0.0039
3910.00,0.0039
3907.00,0.0039
3904.00,0.0039
3901.00,0.0040
3898.00,0.0041
3895.00,0.0040
3892.00,0.0039
3889.00,0.0039
3886.00,0.0039
3883.00,0.0038
3880.00,0.0038
3877.00,0.0039
3874.00,0.0039
3871.00,0.0039
3868.00,0.0039
3865.00,0.0039
3862.00,0.0039
3859.00,0.0038
3856.00,0.0038
3853.00,0.0038
3850.00,0.0039
3847.00,0.0039
3844.00,0.0039
3841.00,0.0038
3838.00,0.0038
3835.00,0.0038
3832.00,0.0038
3829.00,0.0038
3826.00,0.0038
3823.00,0.0038
3820.00,0.0037
3817.00,0.0037
3814.00,0.0037
3811.00,0.0037
3808.00,0.0037
3805.00,0.0038
3802.00,0.0038
3799.00,0.0038
3796.00,0.0038
3793.00,0.0038
3790.00,0.0038
3787.00,0.0037
3784.00,0.0037
3781.00,0.0038
3778.00,0.0038
3775.00,0.0038
3772.00,0.0039
3769.00,0.0038
3766.00,0.0038
3763.00,0.0038
3760.00,0.0038
3757.00,0.0038
3754.00,0.0037
3751.00,0.0037
3748.00,0.0037
3745.00,0.0037
3742.00,0.0038
3739.00,0.0037
3736.00,0.0038
3733.00,0.0038
3730.00,0.0038
3727.00,0.0038
3724.00,0.0037
3721.00,0.0038
3718.00,0.0037
3715.00,0.0037
3712.00,0.0037
3709.00,0.0037
3706.00,0.0037
3703.00,0.0036
3700.00,0.0037
3697.00,0.0037
3694.00,0.0037
3691.00,0.0036
3688.00,0.0036
3685.00,0.0036
3682.00,0.0037
3679.00,0.0038
3676.00,0.0039
3673.00,0.0038
3670.00,0.0038
3667.00,0.0038
3664.00,0.0038
3661.00,0.0038
3658.00,0.0038
3655.00,0.0039
3652.00,0.0039
3649.00,0.0039
3646.00,0.0039
3643.00,0.0037
3640.00,0.0039
3637.00,0.0039
3634.00,0.0038
3631.00,0.0039
3628.00,0.0040
3625.00,0.0041
3622.00,0.0040
3619.00,0.0039
3616.00,0.0040
3613.00,0.0040
3610.00,0.0042
3607.00,0.0041
3604.00,0.0041
3601.00,0.0041
3598.00,0.0042
3595.00,0.0043
3592.00,0.0043
3589.00,0.0043
3586.00,0.0044
3583.00,0.0044
3580.00,0.0044
3577.00,0.0043
3574.00,0.0044
3571.00,0.0045
3568.00,0.0046
3565.00,0.0046
3562.00,0.0046
3559.00,0.0046
3556.00,0.0046
3553.00,0.0046
3550.00,0.0046
3547.00,0.0048
3544.00,0.0048
3541.00,0.0048
3538.00,0.0049
3535.00,0.0049
3532.00,0.0049
3529.00,0.0050
3526.00,0.0051
3523.00,0.0051
3520.00,0.0053
3517.00,0.0052
3514.00,0.0052
3511.00,0.0052
3508.00,0.0052
3505.00,0.0053
3502.00,0.0053
3499.00,0.0054
3496.00,0.0054
3493.00,0.0054
3490.00,0.0054
3487.00,0.0055
3484.00,0.0055
3481.00,0.0056
3478.00,0.0057
3475.00,0.0057
3472.00,0.0057
3469.00,0.0057
3466.00,0.0057
3463.00,0.0058
3460.00,0.0060
3457.00,0.0062
3454.00,0.0061
3451.00,0.0060
3448.00,0.0061
3445.00,0.0061
3442.00,0.0061
3439.00,0.0062
3436.00,0.0062
3433.00,0.0062
3430.00,0.0064
3427.00,0.0065
3424.00,0.0064
3421.00,0.0066
3418.00,0.0067
3415.00,0.0068
3412.00,0.0068
3409.00,0.0069
3406.00,0.0070
3403.00,0.0070
3400.00,0.0071
3397.00,0.0072
3394.00,0.0072
3391.00,0.0073
3388.00,0.0075
3385.00,0.0076
3382.00,0.0077
3379.00,0.0077
3376.00,0.0079
3373.00,0.0080
3370.00,0.0080
3367.00,0.0082
3364.00,0.0084
3361.00,0.0085
3358.00,0.0086
3355.00,0.0087
3352.00,0.0089
3349.00,0.0091
3346.00,0.0093
3343.00,0.0094
3340.00,0.0097
3337.00,0.0100
3334.00,0.0101
3331.00,0.0102
3328.00,0.0105
3325.00,0.0106
3322.00,0.0108
3319.00,0.0109
3316.00,0.0111
3313.00,0.0112
3310.00,0.0113
3307.00,0.0114
3304.00,0.0115
3301.00,0.0117
3298.00,0.0119
3295.00,0.0120
3292.00,0.0120
3289.00,0.0119
3286.00,0.0119
3283.00,0.0119
3280.00,0.0118
3277.00,0.0116
3274.00,0.0115
3271.00,0.0113
3268.00,0.0111
3265.00,0.0109
3262.00,0.0106
3259.00,0.0104
3256.00,0.0102
3253.00,0.0100
3250.00,0.0099
3247.00,0.0098
3244.00,0.0096
3241.00,0.0095
3238.00,0.0093
3235.00,0.0092
3232.00,0.0091
3229.00,0.0090
3226.00,0.0089
3223.00,0.0088
3220.00,0.0086
3217.00,0.0086
3214.00,0.0085
3211.00,0.0084
3208.00,0.0083
3205.00,0.0082
3202.00,0.0081
3199.00,0.0080
3196.00,0.0080
3193.00,0.0078
3190.00,0.0077
3187.00,0.0076
3184.00,0.0075
3181.00,0.0074
3178.00,0.0073
3175.00,0.0073
3172.00,0.0072
3169.00,0.0071
3166.00,0.0070
3163.00,0.0069
3160.00,0.0068
3157.00,0.0067
3154.00,0.0066
3151.00,0.0066
3148.00,0.0066
3145.00,0.0065
3142.00,0.0066
3139.00,0.0064
3136.00,0.0063
3133.00,0.0063
3130.00,0.0064
3127.00,0.0063
3124.00,0.0063
3121.00,0.0063
3118.00,0.0064
3115.00,0.0065
3112.00,0.0067
3109.00,0.0071
3106.00,0.0075
3103.00,0.0077
3100.00,0.0077
3097.00,0.0076
3094.00,0.0077
3091.00,0.0082
3088.00,0.0091
3085.00,0.0103
3082.00,0.0108
3079.00,0.0103
3076.00,0.0097
3073.00,0.0095
3070.00,0.0098
3067.00,0.0105
3064.00,0.0117
3061.00,0.0127
3058.00,0.0125
3055.00,0.0114
3052.00,0.0103
3049.00,0.0095
3046.00,0.0092
3043.00,0.0092
3040.00,0.0096
3037.00,0.0105
3034.00,0.0121
3031.00,0.0147
3028.00,0.0176
3025.00,0.0188
3022.00,0.0169
3019.00,0.0133
3016.00,0.0106
3013.00,0.0091
3010.00,0.0085
3007.00,0.0084
3004.00,0.0087
3001.00,0.0088
2998.00,0.0083
2995.00,0.0076
2992.00,0.0072
2989.00,0.0070
2986.00,0.0070
2983.00,0.0071
2980.00,0.0071
2977.00,0.0073
2974.00,0.0074
2971.00,0.0077
2968.00,0.0079
2965.00,0.0082
2962.00,0.0085
2959.00,0.0089
2956.00,0.0093
2953.00,0.0098
2950.00,0.0104
2947.00,0.0113
2944.00,0.0125
2941.00,0.0141
2938.00,0.0159
2935.00,0.0179
2932.00,0.0201
2929.00,0.0223
2926.00,0.0242
2923.00,0.0254
2920.00,0.0260
2917.00,0.0255
2914.00,0.0238
2911.00,0.0216
2908.00,0.0197
2905.00,0.0181
2902.00,0.0165
2899.00,0.0151
2896.00,0.0139
2893.00,0.0129
2890.00,0.0121
2887.00,0.0115
2884.00,0.0111
2881.00,0.0106
2878.00,0.0102
2875.00,0.0099
2872.00,0.0097
2869.00,0.0095
2866.00,0.0096
2863.00,0.0100
2860.00,0.0109
2857.00,0.0122
2854.00,0.0136
2851.00,0.0147
2848.00,0.0144
2845.00,0.0129
2842.00,0.0111
2839.00,0.0094
2836.00,0.0081
2833.00,0.0073
2830.00,0.0068
2827.00,0.0065
2824.00,0.0063
2821.00,0.0062
2818.00,0.0061
2815.00,0.0060
2812.00,0.0059
2809.00,0.0059
2806.00,0.0058
2803.00,0.0058
2800.00,0.0057
2797.00,0.0056
2794.00,0.0055
2791.00,0.0054
2788.00,0.0054
2785.00,0.0054
2782.00,0.0054
2779.00,0.0053
2776.00,0.0053
2773.00,0.0052
2770.00,0.0052
2767.00,0.0051
2764.00,0.0050
2761.00,0.0051
2758.00,0.0051
2755.00,0.0050
2752.00,0.0050
2749.00,0.0049
2746.00,0.0050
2743.00,0.0050
2740.00,0.0050
2737.00,0.0049
2734.00,0.0048
2731.00,0.0049
2728.00,0.0049
2725.00,0.0049
2722.00,0.0049
2719.00,0.0048
2716.00,0.0048
2713.00,0.0048
2710.00,0.0048
2707.00,0.0048
2704.00,0.0048
2701.00,0.0047
2698.00,0.0048
2695.00,0.0048
2692.00,0.0048
2689.00,0.0048
2686.00,0.0047
2683.00,0.0048
2680.00,0.0047
2677.00,0.0047
2674.00,0.0047
2671.00,0.0046
2668.00,0.0047
2665.00,0.0048
2662.00,0.0049
2659.00,0.0049
2656.00,0.0049
2653.00,0.0049
2650.00,0.0049
2647.00,0.0049
2644.00,0.0048
2641.00,0.0048
2638.00,0.0048
2635.00,0.0049
2632.00,0.0049
2629.00,0.0048
2626.00,0.0049
2623.00,0.0048
2620.00,0.0048
2617.00,0.0047
2614.00,0.0047
2611.00,0.0047
2608.00,0.0048
2605.00,0.0047
2602.00,0.0047
2599.00,0.0046
2596.00,0.0046
2593.00,0.0046
2590.00,0.0045
2587.00,0.0045
2584.00,0.0044
2581.00,0.0044
2578.00,0.0043
2575.00,0.0042
2572.00,0.0043
2569.00,0.0043
2566.00,0.0043
2563.00,0.0044
2560.00,0.0044
2557.00,0.0043
2554.00,0.0042
2551.00,0.0042
2548.00,0.0043
2545.00,0.0042
2542.00,0.0042
2539.00,0.0042
2536.00,0.0042
2533.00,0.0042
2530.00,0.0042
2527.00,0.0042
2524.00,0.0042
2521.00,0.0041
2518.00,0.0042
2515.00,0.0042
2512.00,0.0040
2509.00,0.0041
2506.00,0.0041
2503.00,0.0041
2500.00,0.0041
2497.00,0.0040
2494.00,0.0040
2491.00,0.0040
2488.00,0.0041
2485.00,0.0041
2482.00,0.0040
2479.00,0.0040
2476.00,0.0040
2473.00,0.0040
2470.00,0.0040
2467.00,0.0040
2464.00,0.0039
2461.00,0.0040
2458.00,0.0040
2455.00,0.0040
2452.00,0.0039
2449.00,0.0039
2446.00,0.0039
2443.00,0.0039
2440.00,0.0039
2437.00,0.0039
2434.00,0.0039
2431.00,0.0038
2428.00,0.0037
2425.00,0.0037
2422.00,0.0037
2419.00,0.0037
2416.00,0.0037
2413.00,0.0037
2410.00,0.0037
2407.00,0.0036
2404.00,0.0036
2401.00,0.0036
2398.00,0.0036
2395.00,0.0036
2392.00,0.0036
2389.00,0.0036
2386.00,0.0035
2383.00,0.0035
2380.00,0.0035
2377.00,0.0035
2374.00,0.0035
2371.00,0.0036
2368.00,0.0035
2365.00,0.0035
2362.00,0.0037
2359.00,0.0036
2356.00,0.0035
2353.00,0.0036
2350.00,0.0037
2347.00,0.0037
2344.00,0.0038
2341.00,0.0039
2338.00,0.0039
2335.00,0.0039
2332.00,0.0038
2329.00,0.0041
2326.00,0.0045
2323.00,0.0044
2320.00,0.0044
2317.00,0.0043
2314.00,0.0042
2311.00,0.0042
2308.00,0.0042
2305.00,0.0041
2302.00,0.0040
2299.00,0.0041
2296.00,0.0042
2293.00,0.0044
2290.00,0.0042
2287.00,0.0043
2284.00,0.0042
2281.00,0.0040
2278.00,0.0039
2275.00,0.0039
2272.00,0.0039
2269.00,0.0040
2266.00,0.0039
2263.00,0.0038
2260.00,0.0039
2257.00,0.0037
2254.00,0.0038
2251.00,0.0039
2248.00,0.0039
2245.00,0.0037
2242.00,0.0037
2239.00,0.0037
2236.00,0.0039
2233.00,0.0038
2230.00,0.0038
2227.00,0.0037
2224.00,0.0036
2221.00,0.0036
2218.00,0.0040
2215.00,0.0040
2212.00,0.0036
2209.00,0.0037
2206.00,0.0038
2203.00,0.0036
2200.00,0.0040
2197.00,0.0038
2194.00,0.0037
2191.00,0.0037
2188.00,0.0038
2185.00,0.0038
2182.00,0.0034
2179.00,0.0033
2176.00,0.0031
2173.00,0.0038
2170.00,0.0042
2167.00,0.0043
2164.00,0.0042
2161.00,0.0034
2158.00,0.0015
2155.00,0.0019
2152.00,0.0026
2149.00,0.0025
2146.00,0.0025
2143.00,0.0024
2140.00,0.0023
2137.00,0.0019
2134.00,0.0017
2131.00,0.0023
2128.00,0.0027
2125.00,0.0029
2122.00,0.0029
2119.00,0.0031
2116.00,0.0032
2113.00,0.0031
2110.00,0.0031
2107.00,0.0033
2104.00,0.0033
2101.00,0.0031
2098.00,0.0030
2095.00,0.0027
2092.00,0.0029
2089.00,0.0030
2086.00,0.0031
2083.00,0.0033
2080.00,0.0033
2077.00,0.0035
2074.00,0.0037
2071.00,0.0035
2068.00,0.0031
2065.00,0.0028
2062.00,0.0029
2059.00,0.0031
2056.00,0.0033
2053.00,0.0036
2050.00,0.0037
2047.00,0.0033
2044.00,0.0034
2041.00,0.0039
2038.00,0.0033
2035.00,0.0029
2032.00,0.0026
2029.00,0.0025
2026.00,0.0026
2023.00,0.0029
2020.00,0.0027
2017.00,0.0028
2014.00,0.0023
2011.00,0.0006
2008.00,0.0020
2005.00,0.0028
2002.00,0.0030
1999.00,0.0028
1996.00,0.0028
1993.00,0.0031
1990.00,0.0033
1987.00,0.0039
1984.00,0.0040
1981.00,0.0048
1978.00,0.0037
1975.00,0.0025
1972.00,0.0029
1969.00,0.0034
1966.00,0.0033
1963.00,0.0035
1960.00,0.0033
1957.00,0.0034
1954.00,0.0036
1951.00,0.0038
1948.00,0.0043
1945.00,0.0043
1942.00,0.0046
1939.00,0.0043
1936.00,0.0039
1933.00,0.0035
1930.00,0.0032
1927.00,0.0031
1924.00,0.0029
1921.00,0.0030
1918.00,0.0029
1915.00,0.0028
1912.00,0.0029
1909.00,0.0029
1906.00,0.0029
1903.00,0.0028
1900.00,0.0028
1897.00,0.0030
1894.00,0.0033
1891.00,0.0035
1888.00,0.0037
1885.00,0.0039
1882.00,0.0039
1879.00,0.0040
1876.00,0.0040
1873.00,0.0040
1870.00,0.0041
1867.00,0.0041
1864.00,0.0039
1861.00,0.0035
1858.00,0.0033
1855.00,0.0032
1852.00,0.0031
1849.00,0.0029
1846.00,0.0030
1843.00,0.0029
1840.00,0.0027
1837.00,0.0027
1834.00,0.0028
1831.00,0.0028
1828.00,0.0030
1825.00,0.0031
1822.00,0.0032
1819.00,0.0032
1816.00,0.0034
1813.00,0.0037
1810.00,0.0038
1807.00,0.0040
1804.00,0.0042
1801.00,0.0043
1798.00,0.0041
1795.00,0.0039
1792.00,0.0038
1789.00,0.0034
1786.00,0.0031
1783.00,0.0031
1780.00,0.0030
1777.00,0.0030
1774.00,0.0031
1771.00,0.0032
1768.00,0.0030
1765.00,0.0029
1762.00,0.0028
1759.00,0.0028
1756.00,0.0029
1753.00,0.0030
1750.00,0.0031
1747.00,0.0031
1744.00,0.0032
1741.00,0.0033
1738.00,0.0034
1735.00,0.0035
1732.00,0.0035
1729.00,0.0033
1726.00,0.0032
1723.00,0.0034
1720.00,0.0037
1717.00,0.0039
1714.00,0.0043
1711.00,0.0047
1708.00,0.0056
1705.00,0.0069
1702.00,0.0082
1699.00,0.0097
1696.00,0.0101
1693.00,0.0111
1690.00,0.0120
1687.00,0.0130
1684.00,0.0140
1681.00,0.0149
1678.00,0.0157
1675.00,0.0164
1672.00,0.0169
1669.00,0.0175
1666.00,0.0180
1663.00,0.0186
1660.00,0.0193
1657.00,0.0199
1654.00,0.0204
1651.00,0.0210
1648.00,0.0211
1645.00,0.0210
1642.00,0.0207
1639.00,0.0206
1636.00,0.0206
1633.00,0.0204
1630.00,0.0198
1627.00,0.0192
1624.00,0.0182
1621.00,0.0168
1618.00,0.0155
1615.00,0.0145
1612.00,0.0139
1609.00,0.0144
1606.00,0.0172
1603.00,0.0213
1600.00,0.0217
1597.00,0.0174
1594.00,0.0136
1591.00,0.0116
1588.00,0.0112
1585.00,0.0124
1582.00,0.0129
1579.00,0.0114
1576.00,0.0105
1573.00,0.0104
1570.00,0.0106
1567.00,0.0110
1564.00,0.0113
1561.00,0.0120
1558.00,0.0135
1555.00,0.0137
1552.00,0.0144
1549.00,0.0152
1546.00,0.0161
1543.00,0.0170
1540.00,0.0177
1537.00,0.0179
1534.00,0.0182
1531.00,0.0187
1528.00,0.0188
1525.00,0.0188
1522.00,0.0189
1519.00,0.0193
1516.00,0.0194
1513.00,0.0191
1510.00,0.0186
1507.00,0.0182
1504.00,0.0183
1501.00,0.0191
1498.00,0.0242
1495.00,0.0396
1492.00,0.0473
1489.00,0.0327
1486.00,0.0211
1483.00,0.0158
1480.00,0.0131
1477.00,0.0121
1474.00,0.0117
1471.00,0.0118
1468.00,0.0118
1465.00,0.0122
1462.00,0.0132
1459.00,0.0159
1456.00,0.0285
1453.00,0.0429
1450.00,0.0430
1447.00,0.0349
1444.00,0.0290
1441.00,0.0241
1438.00,0.0206
1435.00,0.0169
1432.00,0.0144
1429.00,0.0124
1426.00,0.0112
1423.00,0.0107
1420.00,0.0105
1417.00,0.0104
1414.00,0.0101
1411.00,0.0100
1408.00,0.0099
1405.00,0.0098
1402.00,0.0098
1399.00,0.0098
1396.00,0.0100
1393.00,0.0104
1390.00,0.0110
1387.00,0.0118
1384.00,0.0127
1381.00,0.0134
1378.00,0.0141
1375.00,0.0148
1372.00,0.0149
1369.00,0.0147
1366.00,0.0144
1363.00,0.0141
1360.00,0.0136
1357.00,0.0133
1354.00,0.0132
1351.00,0.0136
1348.00,0.0136
1345.00,0.0130
1342.00,0.0126
1339.00,0.0122
1336.00,0.0123
1333.00,0.0126
1330.00,0.0128
1327.00,0.0127
1324.00,0.0124
1321.00,0.0123
1318.00,0.0125
1315.00,0.0128
1312.00,0.0130
1309.00,0.0128
1306.00,0.0124
1303.00,0.0119
1300.00,0.0113
1297.00,0.0111
1294.00,0.0110
1291.00,0.0109
1288.00,0.0107
1285.00,0.0106
1282.00,0.0106
1279.00,0.0106
1276.00,0.0105
1273.00,0.0103
1270.00,0.0103
1267.00,0.0102
1264.00,0.0102
1261.00,0.0102
1258.00,0.0100
1255.00,0.0100
1252.00,0.0102
1249.00,0.0103
1246.00,0.0104
1243.00,0.0106
1240.00,0.0108
1237.00,0.0110
1234.00,0.0114
1231.00,0.0120
1228.00,0.0124
1225.00,0.0123
1222.00,0.0118
1219.00,0.0113
1216.00,0.0109
1213.00,0.0106
1210.00,0.0105
1207.00,0.0105
1204.00,0.0105
1201.00,0.0107
1198.00,0.0109
1195.00,0.0109
1192.00,0.0110
1189.00,0.0111
1186.00,0.0116
1183.00,0.0127
1180.00,0.0128
1177.00,0.0114
1174.00,0.0102
1171.00,0.0097
1168.00,0.0095
1165.00,0.0096
1162.00,0.0100
1159.00,0.0111
1156.00,0.0127
1153.00,0.0128
1150.00,0.0108
1147.00,0.0090
1144.00,0.0081
1141.00,0.0076
1138.00,0.0072
1135.00,0.0071
1132.00,0.0071
1129.00,0.0073
1126.00,0.0076
1123.00,0.0082
1120.00,0.0086
1117.00,0.0088
1114.00,0.0090
1111.00,0.0090
1108.00,0.0089
1105.00,0.0091
1102.00,0.0094
1099.00,0.0093
1096.00,0.0094
1093.00,0.0096
1090.00,0.0097
1087.00,0.0103
1084.00,0.0110
1081.00,0.0118
1078.00,0.0127
1075.00,0.0140
1072.00,0.0156
1069.00,0.0162
1066.00,0.0158
1063.00,0.0145
1060.00,0.0132
1057.00,0.0124
1054.00,0.0117
1051.00,0.0111
1048.00,0.0104
1045.00,0.0101
1042.00,0.0101
1039.00,0.0104
1036.00,0.0128
1033.00,0.0179
1030.00,0.0234
1027.00,0.0248
1024.00,0.0211
1021.00,0.0176
1018.00,0.0153
1015.00,0.0137
1012.00,0.0128
1009.00,0.0125
1006.00,0.0127
1003.00,0.0130
1000.00,0.0118
997.00,0.0105
994.00,0.0099
991.00,0.0099
988.00,0.0102
985.00,0.0109
982.00,0.0115
979.00,0.0117
976.00,0.0112
973.00,0.0107
970.00,0.0111
967.00,0.0119
964.00,0.0122
961.00,0.0115
958.00,0.0103
955.00,0.0096
952.00,0.0094
949.00,0.0095
946.00,0.0098
943.00,0.0100
940.00,0.0098
937.00,0.0092
934.00,0.0084
931.00,0.0079
928.00,0.0076
925.00,0.0078
922.00,0.0081
919.00,0.0088
916.00,0.0101
913.00,0.0124
910.00,0.0153
907.00,0.0172
904.00,0.0166
901.00,0.0135
898.00,0.0103
895.00,0.0084
892.00,0.0073
889.00,0.0068
886.00,0.0065
883.00,0.0062
880.00,0.0060
877.00,0.0058
874.00,0.0057
871.00,0.0054
868.00,0.0054
865.00,0.0054
862.00,0.0054
859.00,0.0057
856.00,0.0058
853.00,0.0063
850.00,0.0069
847.00,0.0082
844.00,0.0095
841.00,0.0098
838.00,0.0091
835.00,0.0079
832.00,0.0070
829.00,0.0065
826.00,0.0063
823.00,0.0061
820.00,0.0059
817.00,0.0058
814.00,0.0060
811.00,0.0061
808.00,0.0063
805.00,0.0064
802.00,0.0067
799.00,0.0071
796.00,0.0080
793.00,0.0089
790.00,0.0098
787.00,0.0110
784.00,0.0127
781.00,0.0149
778.00,0.0182
775.00,0.0229
772.00,0.0289
769.00,0.0363
766.00,0.0437
763.00,0.0513
760.00,0.0591
757.00,0.0652
754.00,0.0674
751.00,0.0670
748.00,0.0666
745.00,0.0616
742.00,0.0499
739.00,0.0379
736.00,0.0286
733.00,0.0205
730.00,0.0153
727.00,0.0130
724.00,0.0120
721.00,0.0120
718.00,0.0126
715.00,0.0142
712.00,0.0186
709.00,0.0298
706.00,0.0530
703.00,0.0899
700.00,0.1362
697.00,0.1831
694.00,0.2017
691.00,0.1566
688.00,0.1039
685.00,0.0741
682.00,0.0581
679.00,0.0480
676.00,0.0414
673.00,0.0373
670.00,0.0344
667.00,0.0311
664.00,0.0286
661.00,0.0259
658.00,0.0234
655.00,0.0212
652.00,0.0198
649.00,0.0187
646.00,0.0177
643.00,0.0171
640.00,0.0170
637.00,0.0173
634.00,0.0183
631.00,0.0191
628.00,0.0198
625.00,0.0202
622.00,0.0208
619.00,0.0207
616.00,0.0194
613.00,0.0184
610.00,0.0180
607.00,0.0175
604.00,0.0171
601.00,0.0171
598.00,0.0175
595.00,0.0179
592.00,0.0185
589.00,0.0190
586.00,0.0197
583.00,0.0206
580.00,0.0220
577.00,0.0243
574.00,0.0269
571.00,0.0298
568.00,0.0325
565.00,0.0350
562.00,0.0380
559.00,0.0410
556.00,0.0441
553.00,0.0474
550.00,0.0511
547.00,0.0563
544.00,0.0632
541.00,0.0706
538.00,0.0747
535.00,0.0718
532.00,0.0626
529.00,0.0524
526.00,0.0434
523.00,0.0370
520.00,0.0322
517.00,0.0294
514.00,0.0274
511.00,0.0254
508.00,0.0237
505.00,0.0221
502.00,0.0207
499.00,0.0193
496.00,0.0185
493.00,0.0175
490.00,0.0166
487.00,0.0161
484.00,0.0160
481.00,0.0154
478.00,0.0145
475.00,0.0139
472.00,0.0141
469.00,0.0143
466.00,0.0139
463.00,0.0136
460.00,0.0132
457.00,0.0135
454.00,0.0123
451.00,0.0125
448.00,0.0127
445.00,0.0125
442.00,0.0121
439.00,0.0111
436.00,0.0113
433.00,0.0108
430.00,0.0104
427.00,0.0104
424.00,0.0093
421.00,0.0093
418.00,0.0091
415.00,0.0094
412.00,0.0106
409.00,0.0096
406.00,0.0077
403.00,0.0082
400.00,0.0052