File: FTIR/Mary/2025_06_27_Polystyrene_Std_MEL_scan1.csv
Created as New Dataset,Sample 742 By YargerLab Date Friday, June 27 2025
cm-1,A
4000.00,0.0013
3997.00,0.0013
3994.00,0.0013
3991.00,0.0013
3988.00,0.0012
3985.00,0.0012
3982.00,0.0012
3979.00,0.0012
3976.00,0.0012
3973.00,0.0012
3970.00,0.0013
3967.00,0.0013
3964.00,0.0012
3961.00,0.0012
3958.00,0.0012
3955.00,0.0012
3952.00,0.0012
3949.00,0.0012
3946.00,0.0013
3943.00,0.0013
3940.00,0.0013
3937.00,0.0013
3934.00,0.0013
3931.00,0.0012
3928.00,0.0012
3925.00,0.0012
3922.00,0.0013
3919.00,0.0013
3916.00,0.0013
3913.00,0.0012
3910.00,0.0012
3907.00,0.0012
3904.00,0.0013
3901.00,0.0013
3898.00,0.0012
3895.00,0.0012
3892.00,0.0012
3889.00,0.0013
3886.00,0.0013
3883.00,0.0013
3880.00,0.0013
3877.00,0.0013
3874.00,0.0013
3871.00,0.0013
3868.00,0.0012
3865.00,0.0012
3862.00,0.0012
3859.00,0.0012
3856.00,0.0011
3853.00,0.0012
3850.00,0.0012
3847.00,0.0013
3844.00,0.0013
3841.00,0.0013
3838.00,0.0012
3835.00,0.0012
3832.00,0.0013
3829.00,0.0012
3826.00,0.0012
3823.00,0.0013
3820.00,0.0013
3817.00,0.0012
3814.00,0.0012
3811.00,0.0012
3808.00,0.0012
3805.00,0.0012
3802.00,0.0012
3799.00,0.0013
3796.00,0.0013
3793.00,0.0013
3790.00,0.0012
3787.00,0.0012
3784.00,0.0012
3781.00,0.0012
3778.00,0.0012
3775.00,0.0012
3772.00,0.0013
3769.00,0.0012
3766.00,0.0012
3763.00,0.0013
3760.00,0.0014
3757.00,0.0014
3754.00,0.0013
3751.00,0.0012
3748.00,0.0012
3745.00,0.0012
3742.00,0.0012
3739.00,0.0013
3736.00,0.0014
3733.00,0.0014
3730.00,0.0013
3727.00,0.0013
3724.00,0.0013
3721.00,0.0012
3718.00,0.0012
3715.00,0.0011
3712.00,0.0012
3709.00,0.0013
3706.00,0.0012
3703.00,0.0012
3700.00,0.0012
3697.00,0.0012
3694.00,0.0012
3691.00,0.0011
3688.00,0.0012
3685.00,0.0011
3682.00,0.0011
3679.00,0.0011
3676.00,0.0011
3673.00,0.0011
3670.00,0.0010
3667.00,0.0010
3664.00,0.0010
3661.00,0.0010
3658.00,0.0009
3655.00,0.0009
3652.00,0.0010
3649.00,0.0010
3646.00,0.0010
3643.00,0.0010
3640.00,0.0010
3637.00,0.0010
3634.00,0.0011
3631.00,0.0011
3628.00,0.0012
3625.00,0.0013
3622.00,0.0013
3619.00,0.0012
3616.00,0.0013
3613.00,0.0012
3610.00,0.0013
3607.00,0.0013
3604.00,0.0013
3601.00,0.0013
3598.00,0.0013
3595.00,0.0012
3592.00,0.0012
3589.00,0.0013
3586.00,0.0013
3583.00,0.0013
3580.00,0.0012
3577.00,0.0012
3574.00,0.0012
3571.00,0.0012
3568.00,0.0013
3565.00,0.0013
3562.00,0.0012
3559.00,0.0012
3556.00,0.0012
3553.00,0.0013
3550.00,0.0013
3547.00,0.0014
3544.00,0.0014
3541.00,0.0014
3538.00,0.0013
3535.00,0.0014
3532.00,0.0013
3529.00,0.0014
3526.00,0.0014
3523.00,0.0014
3520.00,0.0014
3517.00,0.0014
3514.00,0.0014
3511.00,0.0014
3508.00,0.0014
3505.00,0.0015
3502.00,0.0015
3499.00,0.0015
3496.00,0.0015
3493.00,0.0015
3490.00,0.0015
3487.00,0.0015
3484.00,0.0015
3481.00,0.0015
3478.00,0.0015
3475.00,0.0015
3472.00,0.0015
3469.00,0.0016
3466.00,0.0016
3463.00,0.0016
3460.00,0.0015
3457.00,0.0015
3454.00,0.0015
3451.00,0.0016
3448.00,0.0016
3445.00,0.0015
3442.00,0.0016
3439.00,0.0016
3436.00,0.0016
3433.00,0.0017
3430.00,0.0016
3427.00,0.0016
3424.00,0.0016
3421.00,0.0016
3418.00,0.0016
3415.00,0.0016
3412.00,0.0016
3409.00,0.0016
3406.00,0.0016
3403.00,0.0016
3400.00,0.0017
3397.00,0.0017
3394.00,0.0016
3391.00,0.0016
3388.00,0.0016
3385.00,0.0016
3382.00,0.0016
3379.00,0.0017
3376.00,0.0017
3373.00,0.0017
3370.00,0.0017
3367.00,0.0017
3364.00,0.0016
3361.00,0.0016
3358.00,0.0016
3355.00,0.0016
3352.00,0.0017
3349.00,0.0016
3346.00,0.0016
3343.00,0.0016
3340.00,0.0017
3337.00,0.0016
3334.00,0.0017
3331.00,0.0016
3328.00,0.0016
3325.00,0.0017
3322.00,0.0016
3319.00,0.0015
3316.00,0.0016
3313.00,0.0016
3310.00,0.0016
3307.00,0.0017
3304.00,0.0016
3301.00,0.0016
3298.00,0.0016
3295.00,0.0017
3292.00,0.0017
3289.00,0.0016
3286.00,0.0016
3283.00,0.0016
3280.00,0.0016
3277.00,0.0016
3274.00,0.0016
3271.00,0.0016
3268.00,0.0015
3265.00,0.0016
3262.00,0.0016
3259.00,0.0016
3256.00,0.0016
3253.00,0.0016
3250.00,0.0015
3247.00,0.0016
3244.00,0.0016
3241.00,0.0015
3238.00,0.0015
3235.00,0.0016
3232.00,0.0015
3229.00,0.0015
3226.00,0.0015
3223.00,0.0015
3220.00,0.0015
3217.00,0.0015
3214.00,0.0015
3211.00,0.0015
3208.00,0.0015
3205.00,0.0015
3202.00,0.0016
3199.00,0.0015
3196.00,0.0015
3193.00,0.0015
3190.00,0.0015
3187.00,0.0015
3184.00,0.0015
3181.00,0.0015
3178.00,0.0015
3175.00,0.0015
3172.00,0.0015
3169.00,0.0015
3166.00,0.0016
3163.00,0.0017
3160.00,0.0017
3157.00,0.0016
3154.00,0.0016
3151.00,0.0015
3148.00,0.0015
3145.00,0.0015
3142.00,0.0015
3139.00,0.0015
3136.00,0.0015
3133.00,0.0015
3130.00,0.0016
3127.00,0.0016
3124.00,0.0017
3121.00,0.0017
3118.00,0.0018
3115.00,0.0020
3112.00,0.0024
3109.00,0.0029
3106.00,0.0034
3103.00,0.0036
3100.00,0.0035
3097.00,0.0033
3094.00,0.0036
3091.00,0.0043
3088.00,0.0058
3085.00,0.0076
3082.00,0.0085
3079.00,0.0077
3076.00,0.0066
3073.00,0.0062
3070.00,0.0067
3067.00,0.0079
3064.00,0.0098
3061.00,0.0113
3058.00,0.0112
3055.00,0.0096
3052.00,0.0078
3049.00,0.0066
3046.00,0.0060
3043.00,0.0062
3040.00,0.0069
3037.00,0.0085
3034.00,0.0112
3031.00,0.0154
3028.00,0.0200
3025.00,0.0219
3022.00,0.0191
3019.00,0.0136
3016.00,0.0092
3013.00,0.0066
3010.00,0.0054
3007.00,0.0051
3004.00,0.0054
3001.00,0.0055
2998.00,0.0046
2995.00,0.0033
2992.00,0.0024
2989.00,0.0019
2986.00,0.0017
2983.00,0.0010
2980.00,0.0009
2977.00,0.0014
2974.00,0.0017
2971.00,0.0019
2968.00,0.0025
2965.00,0.0030
2962.00,0.0037
2959.00,0.0044
2956.00,0.0052
2953.00,0.0061
2950.00,0.0073
2947.00,0.0087
2944.00,0.0105
2941.00,0.0125
2938.00,0.0150
2935.00,0.0178
2932.00,0.0208
2929.00,0.0236
2926.00,0.0257
2923.00,0.0267
2920.00,0.0266
2917.00,0.0256
2914.00,0.0240
2911.00,0.0220
2908.00,0.0198
2905.00,0.0178
2902.00,0.0157
2899.00,0.0136
2896.00,0.0119
2893.00,0.0105
2890.00,0.0095
2887.00,0.0087
2884.00,0.0080
2881.00,0.0075
2878.00,0.0071
2875.00,0.0067
2872.00,0.0064
2869.00,0.0064
2866.00,0.0066
2863.00,0.0073
2860.00,0.0084
2857.00,0.0097
2854.00,0.0110
2851.00,0.0118
2848.00,0.0118
2845.00,0.0107
2842.00,0.0089
2839.00,0.0069
2836.00,0.0052
2833.00,0.0040
2830.00,0.0034
2827.00,0.0031
2824.00,0.0029
2821.00,0.0027
2818.00,0.0026
2815.00,0.0025
2812.00,0.0025
2809.00,0.0025
2806.00,0.0024
2803.00,0.0023
2800.00,0.0023
2797.00,0.0022
2794.00,0.0022
2791.00,0.0021
2788.00,0.0021
2785.00,0.0021
2782.00,0.0020
2779.00,0.0020
2776.00,0.0020
2773.00,0.0020
2770.00,0.0019
2767.00,0.0019
2764.00,0.0019
2761.00,0.0019
2758.00,0.0018
2755.00,0.0018
2752.00,0.0018
2749.00,0.0019
2746.00,0.0018
2743.00,0.0018
2740.00,0.0018
2737.00,0.0018
2734.00,0.0018
2731.00,0.0019
2728.00,0.0019
2725.00,0.0019
2722.00,0.0019
2719.00,0.0019
2716.00,0.0019
2713.00,0.0018
2710.00,0.0018
2707.00,0.0018
2704.00,0.0018
2701.00,0.0018
2698.00,0.0018
2695.00,0.0018
2692.00,0.0018
2689.00,0.0018
2686.00,0.0018
2683.00,0.0018
2680.00,0.0018
2677.00,0.0018
2674.00,0.0018
2671.00,0.0018
2668.00,0.0018
2665.00,0.0019
2662.00,0.0020
2659.00,0.0021
2656.00,0.0022
2653.00,0.0022
2650.00,0.0021
2647.00,0.0022
2644.00,0.0022
2641.00,0.0022
2638.00,0.0022
2635.00,0.0023
2632.00,0.0022
2629.00,0.0022
2626.00,0.0021
2623.00,0.0020
2620.00,0.0020
2617.00,0.0020
2614.00,0.0020
2611.00,0.0020
2608.00,0.0021
2605.00,0.0020
2602.00,0.0020
2599.00,0.0020
2596.00,0.0019
2593.00,0.0019
2590.00,0.0018
2587.00,0.0018
2584.00,0.0018
2581.00,0.0018
2578.00,0.0018
2575.00,0.0018
2572.00,0.0017
2569.00,0.0017
2566.00,0.0017
2563.00,0.0017
2560.00,0.0017
2557.00,0.0017
2554.00,0.0016
2551.00,0.0016
2548.00,0.0017
2545.00,0.0016
2542.00,0.0016
2539.00,0.0015
2536.00,0.0015
2533.00,0.0016
2530.00,0.0015
2527.00,0.0015
2524.00,0.0014
2521.00,0.0015
2518.00,0.0015
2515.00,0.0015
2512.00,0.0015
2509.00,0.0016
2506.00,0.0015
2503.00,0.0015
2500.00,0.0015
2497.00,0.0015
2494.00,0.0015
2491.00,0.0015
2488.00,0.0015
2485.00,0.0014
2482.00,0.0015
2479.00,0.0014
2476.00,0.0014
2473.00,0.0014
2470.00,0.0014
2467.00,0.0014
2464.00,0.0014
2461.00,0.0015
2458.00,0.0015
2455.00,0.0015
2452.00,0.0015
2449.00,0.0015
2446.00,0.0015
2443.00,0.0014
2440.00,0.0014
2437.00,0.0013
2434.00,0.0013
2431.00,0.0013
2428.00,0.0013
2425.00,0.0012
2422.00,0.0012
2419.00,0.0012
2416.00,0.0011
2413.00,0.0011
2410.00,0.0012
2407.00,0.0011
2404.00,0.0011
2401.00,0.0011
2398.00,0.0011
2395.00,0.0011
2392.00,0.0010
2389.00,0.0011
2386.00,0.0011
2383.00,0.0011
2380.00,0.0010
2377.00,0.0011
2374.00,0.0010
2371.00,0.0010
2368.00,0.0011
2365.00,0.0012
2362.00,0.0013
2359.00,0.0012
2356.00,0.0013
2353.00,0.0013
2350.00,0.0014
2347.00,0.0015
2344.00,0.0016
2341.00,0.0016
2338.00,0.0017
2335.00,0.0017
2332.00,0.0017
2329.00,0.0017
2326.00,0.0024
2323.00,0.0025
2320.00,0.0021
2317.00,0.0019
2314.00,0.0020
2311.00,0.0020
2308.00,0.0020
2305.00,0.0019
2302.00,0.0018
2299.00,0.0019
2296.00,0.0020
2293.00,0.0021
2290.00,0.0022
2287.00,0.0022
2284.00,0.0022
2281.00,0.0020
2278.00,0.0019
2275.00,0.0018
2272.00,0.0017
2269.00,0.0016
2266.00,0.0016
2263.00,0.0017
2260.00,0.0018
2257.00,0.0017
2254.00,0.0016
2251.00,0.0016
2248.00,0.0016
2245.00,0.0016
2242.00,0.0014
2239.00,0.0015
2236.00,0.0015
2233.00,0.0016
2230.00,0.0016
2227.00,0.0014
2224.00,0.0013
2221.00,0.0015
2218.00,0.0015
2215.00,0.0015
2212.00,0.0016
2209.00,0.0014
2206.00,0.0015
2203.00,0.0015
2200.00,0.0013
2197.00,0.0014
2194.00,0.0014
2191.00,0.0014
2188.00,0.0017
2185.00,0.0017
2182.00,0.0010
2179.00,0.0011
2176.00,0.0008
2173.00,0.0013
2170.00,0.0018
2167.00,0.0022
2164.00,0.0024
2161.00,0.0014
2158.00,-0.0012
2155.00,-0.0010
2152.00,-0.0002
2149.00,-0.0003
2146.00,-0.0005
2143.00,-0.0002
2140.00,-0.0002
2137.00,-0.0003
2134.00,-0.0005
2131.00,-0.0002
2128.00,0.0002
2125.00,0.0005
2122.00,0.0006
2119.00,0.0007
2116.00,0.0011
2113.00,0.0011
2110.00,0.0010
2107.00,0.0009
2104.00,0.0009
2101.00,0.0011
2098.00,0.0009
2095.00,0.0006
2092.00,0.0007
2089.00,0.0009
2086.00,0.0011
2083.00,0.0011
2080.00,0.0012
2077.00,0.0012
2074.00,0.0009
2071.00,0.0010
2068.00,0.0009
2065.00,0.0010
2062.00,0.0010
2059.00,0.0009
2056.00,0.0007
2053.00,0.0012
2050.00,0.0014
2047.00,0.0007
2044.00,0.0012
2041.00,0.0010
2038.00,0.0013
2035.00,0.0011
2032.00,0.0009
2029.00,0.0005
2026.00,0.0003
2023.00,0.0005
2020.00,0.0004
2017.00,0.0005
2014.00,0.0006
2011.00,0.0008
2008.00,0.0005
2005.00,-0.0001
2002.00,0.0003
1999.00,0.0006
1996.00,0.0011
1993.00,0.0012
1990.00,0.0014
1987.00,0.0016
1984.00,0.0020
1981.00,0.0026
1978.00,0.0014
1975.00,0.0005
1972.00,0.0006
1969.00,0.0010
1966.00,0.0013
1963.00,0.0015
1960.00,0.0016
1957.00,0.0019
1954.00,0.0024
1951.00,0.0027
1948.00,0.0031
1945.00,0.0033
1942.00,0.0033
1939.00,0.0031
1936.00,0.0026
1933.00,0.0020
1930.00,0.0016
1927.00,0.0013
1924.00,0.0013
1921.00,0.0012
1918.00,0.0011
1915.00,0.0010
1912.00,0.0009
1909.00,0.0009
1906.00,0.0010
1903.00,0.0010
1900.00,0.0013
1897.00,0.0015
1894.00,0.0018
1891.00,0.0020
1888.00,0.0023
1885.00,0.0026
1882.00,0.0027
1879.00,0.0029
1876.00,0.0030
1873.00,0.0033
1870.00,0.0034
1867.00,0.0032
1864.00,0.0029
1861.00,0.0024
1858.00,0.0020
1855.00,0.0017
1852.00,0.0014
1849.00,0.0014
1846.00,0.0013
1843.00,0.0012
1840.00,0.0012
1837.00,0.0012
1834.00,0.0013
1831.00,0.0014
1828.00,0.0016
1825.00,0.0019
1822.00,0.0021
1819.00,0.0022
1816.00,0.0024
1813.00,0.0028
1810.00,0.0032
1807.00,0.0035
1804.00,0.0037
1801.00,0.0038
1798.00,0.0036
1795.00,0.0031
1792.00,0.0026
1789.00,0.0023
1786.00,0.0021
1783.00,0.0020
1780.00,0.0020
1777.00,0.0020
1774.00,0.0020
1771.00,0.0021
1768.00,0.0022
1765.00,0.0022
1762.00,0.0024
1759.00,0.0027
1756.00,0.0031
1753.00,0.0035
1750.00,0.0039
1747.00,0.0042
1744.00,0.0044
1741.00,0.0043
1738.00,0.0042
1735.00,0.0041
1732.00,0.0039
1729.00,0.0037
1726.00,0.0034
1723.00,0.0032
1720.00,0.0032
1717.00,0.0031
1714.00,0.0030
1711.00,0.0030
1708.00,0.0029
1705.00,0.0028
1702.00,0.0028
1699.00,0.0028
1696.00,0.0027
1693.00,0.0026
1690.00,0.0027
1687.00,0.0028
1684.00,0.0029
1681.00,0.0030
1678.00,0.0030
1675.00,0.0031
1672.00,0.0032
1669.00,0.0033
1666.00,0.0032
1663.00,0.0032
1660.00,0.0031
1657.00,0.0029
1654.00,0.0028
1651.00,0.0027
1648.00,0.0026
1645.00,0.0025
1642.00,0.0025
1639.00,0.0025
1636.00,0.0025
1633.00,0.0026
1630.00,0.0026
1627.00,0.0027
1624.00,0.0028
1621.00,0.0029
1618.00,0.0031
1615.00,0.0036
1612.00,0.0046
1609.00,0.0072
1606.00,0.0128
1603.00,0.0202
1600.00,0.0217
1597.00,0.0155
1594.00,0.0100
1591.00,0.0073
1588.00,0.0067
1585.00,0.0085
1582.00,0.0089
1579.00,0.0060
1576.00,0.0039
1573.00,0.0032
1570.00,0.0028
1567.00,0.0026
1564.00,0.0025
1561.00,0.0024
1558.00,0.0026
1555.00,0.0028
1552.00,0.0032
1549.00,0.0035
1546.00,0.0037
1543.00,0.0037
1540.00,0.0035
1537.00,0.0034
1534.00,0.0033
1531.00,0.0030
1528.00,0.0029
1525.00,0.0028
1522.00,0.0026
1519.00,0.0028
1516.00,0.0030
1513.00,0.0032
1510.00,0.0035
1507.00,0.0039
1504.00,0.0051
1501.00,0.0077
1498.00,0.0166
1495.00,0.0423
1492.00,0.0554
1489.00,0.0335
1486.00,0.0173
1483.00,0.0106
1480.00,0.0073
1477.00,0.0061
1474.00,0.0056
1471.00,0.0056
1468.00,0.0060
1465.00,0.0066
1462.00,0.0080
1459.00,0.0120
1456.00,0.0316
1453.00,0.0536
1450.00,0.0529
1447.00,0.0399
1444.00,0.0310
1441.00,0.0239
1438.00,0.0187
1435.00,0.0132
1432.00,0.0099
1429.00,0.0075
1426.00,0.0062
1423.00,0.0055
1420.00,0.0051
1417.00,0.0048
1414.00,0.0045
1411.00,0.0043
1408.00,0.0043
1405.00,0.0042
1402.00,0.0041
1399.00,0.0041
1396.00,0.0043
1393.00,0.0048
1390.00,0.0057
1387.00,0.0070
1384.00,0.0081
1381.00,0.0091
1378.00,0.0103
1375.00,0.0113
1372.00,0.0117
1369.00,0.0117
1366.00,0.0115
1363.00,0.0114
1360.00,0.0110
1357.00,0.0105
1354.00,0.0103
1351.00,0.0103
1348.00,0.0102
1345.00,0.0097
1342.00,0.0091
1339.00,0.0087
1336.00,0.0088
1333.00,0.0094
1330.00,0.0101
1327.00,0.0102
1324.00,0.0098
1321.00,0.0094
1318.00,0.0095
1315.00,0.0098
1312.00,0.0100
1309.00,0.0098
1306.00,0.0093
1303.00,0.0088
1300.00,0.0082
1297.00,0.0080
1294.00,0.0078
1291.00,0.0076
1288.00,0.0074
1285.00,0.0072
1282.00,0.0071
1279.00,0.0070
1276.00,0.0065
1273.00,0.0060
1270.00,0.0057
1267.00,0.0053
1264.00,0.0051
1261.00,0.0049
1258.00,0.0049
1255.00,0.0049
1252.00,0.0051
1249.00,0.0052
1246.00,0.0053
1243.00,0.0054
1240.00,0.0053
1237.00,0.0053
1234.00,0.0053
1231.00,0.0054
1228.00,0.0055
1225.00,0.0056
1222.00,0.0056
1219.00,0.0056
1216.00,0.0057
1213.00,0.0060
1210.00,0.0063
1207.00,0.0068
1204.00,0.0075
1201.00,0.0081
1198.00,0.0087
1195.00,0.0088
1192.00,0.0089
1189.00,0.0091
1186.00,0.0101
1183.00,0.0116
1180.00,0.0118
1177.00,0.0095
1174.00,0.0076
1171.00,0.0068
1168.00,0.0065
1165.00,0.0066
1162.00,0.0071
1159.00,0.0089
1156.00,0.0113
1153.00,0.0113
1150.00,0.0085
1147.00,0.0064
1144.00,0.0055
1141.00,0.0048
1138.00,0.0045
1135.00,0.0044
1132.00,0.0043
1129.00,0.0044
1126.00,0.0046
1123.00,0.0049
1120.00,0.0053
1117.00,0.0060
1114.00,0.0066
1111.00,0.0068
1108.00,0.0067
1105.00,0.0066
1102.00,0.0067
1099.00,0.0068
1096.00,0.0072
1093.00,0.0075
1090.00,0.0078
1087.00,0.0084
1084.00,0.0094
1081.00,0.0106
1078.00,0.0119
1075.00,0.0136
1072.00,0.0157
1069.00,0.0168
1066.00,0.0162
1063.00,0.0143
1060.00,0.0124
1057.00,0.0111
1054.00,0.0102
1051.00,0.0095
1048.00,0.0090
1045.00,0.0087
1042.00,0.0089
1039.00,0.0097
1036.00,0.0130
1033.00,0.0203
1030.00,0.0280
1027.00,0.0295
1024.00,0.0240
1021.00,0.0189
1018.00,0.0158
1015.00,0.0137
1012.00,0.0124
1009.00,0.0118
1006.00,0.0123
1003.00,0.0128
1000.00,0.0112
997.00,0.0094
994.00,0.0090
991.00,0.0091
988.00,0.0096
985.00,0.0104
982.00,0.0112
979.00,0.0114
976.00,0.0106
973.00,0.0100
970.00,0.0104
967.00,0.0116
964.00,0.0121
961.00,0.0112
958.00,0.0095
955.00,0.0085
952.00,0.0083
949.00,0.0087
946.00,0.0092
943.00,0.0095
940.00,0.0092
937.00,0.0083
934.00,0.0074
931.00,0.0069
928.00,0.0068
925.00,0.0070
922.00,0.0075
919.00,0.0085
916.00,0.0104
913.00,0.0137
910.00,0.0179
907.00,0.0206
904.00,0.0195
901.00,0.0152
898.00,0.0110
895.00,0.0084
892.00,0.0072
889.00,0.0064
886.00,0.0060
883.00,0.0057
880.00,0.0055
877.00,0.0051
874.00,0.0050
871.00,0.0050
868.00,0.0049
865.00,0.0047
862.00,0.0047
859.00,0.0048
856.00,0.0051
853.00,0.0056
850.00,0.0068
847.00,0.0085
844.00,0.0099
841.00,0.0103
838.00,0.0093
835.00,0.0073
832.00,0.0056
829.00,0.0048
826.00,0.0044
823.00,0.0042
820.00,0.0043
817.00,0.0045
814.00,0.0046
811.00,0.0048
808.00,0.0049
805.00,0.0050
802.00,0.0053
799.00,0.0059
796.00,0.0069
793.00,0.0080
790.00,0.0096
787.00,0.0116
784.00,0.0140
781.00,0.0170
778.00,0.0216
775.00,0.0282
772.00,0.0367
769.00,0.0470
766.00,0.0576
763.00,0.0679
760.00,0.0789
757.00,0.0874
754.00,0.0897
751.00,0.0888
748.00,0.0876
745.00,0.0796
742.00,0.0627
739.00,0.0460
736.00,0.0329
733.00,0.0218
730.00,0.0147
727.00,0.0115
724.00,0.0103
721.00,0.0102
718.00,0.0109
715.00,0.0130
712.00,0.0193
709.00,0.0352
706.00,0.0679
703.00,0.1197
700.00,0.1864
697.00,0.2545
694.00,0.2723
691.00,0.1975
688.00,0.1235
685.00,0.0848
682.00,0.0642
679.00,0.0516
676.00,0.0435
673.00,0.0383
670.00,0.0349
667.00,0.0307
664.00,0.0273
661.00,0.0238
658.00,0.0206
655.00,0.0181
652.00,0.0161
649.00,0.0144
646.00,0.0133
643.00,0.0128
640.00,0.0127
637.00,0.0135
634.00,0.0147
631.00,0.0157
628.00,0.0166
625.00,0.0171
622.00,0.0181
619.00,0.0180
616.00,0.0163
613.00,0.0150
610.00,0.0140
607.00,0.0139
604.00,0.0138
601.00,0.0141
598.00,0.0146
595.00,0.0152
592.00,0.0159
589.00,0.0168
586.00,0.0177
583.00,0.0190
580.00,0.0212
577.00,0.0240
574.00,0.0277
571.00,0.0312
568.00,0.0349
565.00,0.0383
562.00,0.0418
559.00,0.0456
556.00,0.0493
553.00,0.0532
550.00,0.0582
547.00,0.0655
544.00,0.0744
541.00,0.0832
538.00,0.0877
535.00,0.0833
532.00,0.0708
529.00,0.0568
526.00,0.0461
523.00,0.0379
520.00,0.0324
517.00,0.0289
514.00,0.0262
511.00,0.0237
508.00,0.0211
505.00,0.0190
502.00,0.0177
499.00,0.0167
496.00,0.0152
493.00,0.0143
490.00,0.0138
487.00,0.0132
484.00,0.0126
481.00,0.0117
478.00,0.0114
475.00,0.0119
472.00,0.0112
469.00,0.0106
466.00,0.0107
463.00,0.0105
460.00,0.0104
457.00,0.0101
454.00,0.0099
451.00,0.0099
448.00,0.0099
445.00,0.0100
442.00,0.0092
439.00,0.0089
436.00,0.0086
433.00,0.0074
430.00,0.0079
427.00,0.0078
424.00,0.0074
421.00,0.0068
418.00,0.0077
415.00,0.0083
412.00,0.0079
409.00,0.0085
406.00,0.0087
403.00,0.0102
400.00,0.0069