File: FTIR/Mary/2025_10_03_Polystyrene_Calibration_1.csv
Created as New Dataset,Sample 170 By YargerLab Date Friday, October 03 2025
cm-1,A
4000.00,0.0014
3997.00,0.0014
3994.00,0.0014
3991.00,0.0014
3988.00,0.0013
3985.00,0.0013
3982.00,0.0013
3979.00,0.0014
3976.00,0.0013
3973.00,0.0014
3970.00,0.0014
3967.00,0.0013
3964.00,0.0013
3961.00,0.0013
3958.00,0.0013
3955.00,0.0014
3952.00,0.0013
3949.00,0.0012
3946.00,0.0012
3943.00,0.0013
3940.00,0.0013
3937.00,0.0013
3934.00,0.0013
3931.00,0.0013
3928.00,0.0013
3925.00,0.0013
3922.00,0.0013
3919.00,0.0012
3916.00,0.0012
3913.00,0.0013
3910.00,0.0013
3907.00,0.0013
3904.00,0.0011
3901.00,0.0011
3898.00,0.0012
3895.00,0.0012
3892.00,0.0012
3889.00,0.0012
3886.00,0.0012
3883.00,0.0011
3880.00,0.0012
3877.00,0.0012
3874.00,0.0012
3871.00,0.0011
3868.00,0.0012
3865.00,0.0011
3862.00,0.0012
3859.00,0.0012
3856.00,0.0011
3853.00,0.0011
3850.00,0.0010
3847.00,0.0012
3844.00,0.0012
3841.00,0.0012
3838.00,0.0012
3835.00,0.0011
3832.00,0.0011
3829.00,0.0012
3826.00,0.0013
3823.00,0.0012
3820.00,0.0012
3817.00,0.0011
3814.00,0.0013
3811.00,0.0013
3808.00,0.0013
3805.00,0.0012
3802.00,0.0013
3799.00,0.0012
3796.00,0.0012
3793.00,0.0013
3790.00,0.0013
3787.00,0.0013
3784.00,0.0014
3781.00,0.0013
3778.00,0.0013
3775.00,0.0014
3772.00,0.0013
3769.00,0.0013
3766.00,0.0013
3763.00,0.0013
3760.00,0.0013
3757.00,0.0013
3754.00,0.0012
3751.00,0.0011
3748.00,0.0010
3745.00,0.0010
3742.00,0.0011
3739.00,0.0011
3736.00,0.0011
3733.00,0.0010
3730.00,0.0012
3727.00,0.0012
3724.00,0.0012
3721.00,0.0012
3718.00,0.0013
3715.00,0.0012
3712.00,0.0011
3709.00,0.0010
3706.00,0.0011
3703.00,0.0013
3700.00,0.0012
3697.00,0.0012
3694.00,0.0012
3691.00,0.0012
3688.00,0.0011
3685.00,0.0012
3682.00,0.0012
3679.00,0.0012
3676.00,0.0011
3673.00,0.0010
3670.00,0.0010
3667.00,0.0011
3664.00,0.0012
3661.00,0.0014
3658.00,0.0013
3655.00,0.0013
3652.00,0.0013
3649.00,0.0012
3646.00,0.0012
3643.00,0.0013
3640.00,0.0013
3637.00,0.0013
3634.00,0.0012
3631.00,0.0012
3628.00,0.0012
3625.00,0.0012
3622.00,0.0013
3619.00,0.0012
3616.00,0.0012
3613.00,0.0012
3610.00,0.0012
3607.00,0.0012
3604.00,0.0012
3601.00,0.0013
3598.00,0.0013
3595.00,0.0013
3592.00,0.0013
3589.00,0.0013
3586.00,0.0013
3583.00,0.0013
3580.00,0.0014
3577.00,0.0014
3574.00,0.0014
3571.00,0.0014
3568.00,0.0013
3565.00,0.0013
3562.00,0.0014
3559.00,0.0014
3556.00,0.0015
3553.00,0.0015
3550.00,0.0015
3547.00,0.0015
3544.00,0.0016
3541.00,0.0016
3538.00,0.0016
3535.00,0.0017
3532.00,0.0017
3529.00,0.0017
3526.00,0.0017
3523.00,0.0018
3520.00,0.0018
3517.00,0.0018
3514.00,0.0018
3511.00,0.0018
3508.00,0.0018
3505.00,0.0018
3502.00,0.0018
3499.00,0.0018
3496.00,0.0019
3493.00,0.0020
3490.00,0.0020
3487.00,0.0020
3484.00,0.0020
3481.00,0.0021
3478.00,0.0020
3475.00,0.0020
3472.00,0.0021
3469.00,0.0021
3466.00,0.0021
3463.00,0.0021
3460.00,0.0021
3457.00,0.0021
3454.00,0.0022
3451.00,0.0022
3448.00,0.0022
3445.00,0.0022
3442.00,0.0022
3439.00,0.0022
3436.00,0.0022
3433.00,0.0022
3430.00,0.0022
3427.00,0.0022
3424.00,0.0022
3421.00,0.0022
3418.00,0.0022
3415.00,0.0022
3412.00,0.0023
3409.00,0.0023
3406.00,0.0023
3403.00,0.0023
3400.00,0.0023
3397.00,0.0023
3394.00,0.0023
3391.00,0.0022
3388.00,0.0022
3385.00,0.0022
3382.00,0.0023
3379.00,0.0023
3376.00,0.0023
3373.00,0.0022
3370.00,0.0023
3367.00,0.0023
3364.00,0.0023
3361.00,0.0023
3358.00,0.0023
3355.00,0.0022
3352.00,0.0023
3349.00,0.0023
3346.00,0.0024
3343.00,0.0023
3340.00,0.0023
3337.00,0.0023
3334.00,0.0023
3331.00,0.0023
3328.00,0.0023
3325.00,0.0023
3322.00,0.0023
3319.00,0.0023
3316.00,0.0023
3313.00,0.0023
3310.00,0.0024
3307.00,0.0024
3304.00,0.0023
3301.00,0.0023
3298.00,0.0023
3295.00,0.0023
3292.00,0.0023
3289.00,0.0023
3286.00,0.0023
3283.00,0.0023
3280.00,0.0023
3277.00,0.0023
3274.00,0.0023
3271.00,0.0023
3268.00,0.0023
3265.00,0.0023
3262.00,0.0023
3259.00,0.0022
3256.00,0.0023
3253.00,0.0022
3250.00,0.0022
3247.00,0.0022
3244.00,0.0022
3241.00,0.0022
3238.00,0.0022
3235.00,0.0022
3232.00,0.0021
3229.00,0.0022
3226.00,0.0022
3223.00,0.0022
3220.00,0.0022
3217.00,0.0022
3214.00,0.0022
3211.00,0.0022
3208.00,0.0022
3205.00,0.0022
3202.00,0.0022
3199.00,0.0022
3196.00,0.0022
3193.00,0.0022
3190.00,0.0022
3187.00,0.0021
3184.00,0.0021
3181.00,0.0020
3178.00,0.0020
3175.00,0.0020
3172.00,0.0021
3169.00,0.0021
3166.00,0.0022
3163.00,0.0022
3160.00,0.0021
3157.00,0.0021
3154.00,0.0020
3151.00,0.0020
3148.00,0.0020
3145.00,0.0020
3142.00,0.0019
3139.00,0.0019
3136.00,0.0019
3133.00,0.0020
3130.00,0.0020
3127.00,0.0020
3124.00,0.0020
3121.00,0.0021
3118.00,0.0022
3115.00,0.0025
3112.00,0.0028
3109.00,0.0034
3106.00,0.0038
3103.00,0.0040
3100.00,0.0038
3097.00,0.0038
3094.00,0.0041
3091.00,0.0050
3088.00,0.0066
3085.00,0.0083
3082.00,0.0089
3079.00,0.0081
3076.00,0.0070
3073.00,0.0068
3070.00,0.0073
3067.00,0.0086
3064.00,0.0106
3061.00,0.0119
3058.00,0.0116
3055.00,0.0099
3052.00,0.0082
3049.00,0.0071
3046.00,0.0065
3043.00,0.0068
3040.00,0.0076
3037.00,0.0093
3034.00,0.0123
3031.00,0.0166
3028.00,0.0210
3025.00,0.0224
3022.00,0.0192
3019.00,0.0139
3016.00,0.0097
3013.00,0.0074
3010.00,0.0064
3007.00,0.0065
3004.00,0.0070
3001.00,0.0072
2998.00,0.0064
2995.00,0.0053
2992.00,0.0047
2989.00,0.0046
2986.00,0.0046
2983.00,0.0046
2980.00,0.0048
2977.00,0.0050
2974.00,0.0052
2971.00,0.0055
2968.00,0.0059
2965.00,0.0064
2962.00,0.0071
2959.00,0.0079
2956.00,0.0087
2953.00,0.0095
2950.00,0.0106
2947.00,0.0120
2944.00,0.0138
2941.00,0.0161
2938.00,0.0188
2935.00,0.0218
2932.00,0.0250
2929.00,0.0277
2926.00,0.0297
2923.00,0.0305
2920.00,0.0303
2917.00,0.0292
2914.00,0.0273
2911.00,0.0252
2908.00,0.0231
2905.00,0.0210
2902.00,0.0189
2899.00,0.0169
2896.00,0.0152
2893.00,0.0139
2890.00,0.0128
2887.00,0.0119
2884.00,0.0111
2881.00,0.0105
2878.00,0.0100
2875.00,0.0096
2872.00,0.0093
2869.00,0.0093
2866.00,0.0096
2863.00,0.0104
2860.00,0.0116
2857.00,0.0129
2854.00,0.0140
2851.00,0.0146
2848.00,0.0142
2845.00,0.0127
2842.00,0.0105
2839.00,0.0083
2836.00,0.0064
2833.00,0.0052
2830.00,0.0045
2827.00,0.0041
2824.00,0.0038
2821.00,0.0037
2818.00,0.0035
2815.00,0.0034
2812.00,0.0033
2809.00,0.0033
2806.00,0.0032
2803.00,0.0031
2800.00,0.0030
2797.00,0.0029
2794.00,0.0029
2791.00,0.0028
2788.00,0.0027
2785.00,0.0027
2782.00,0.0027
2779.00,0.0027
2776.00,0.0026
2773.00,0.0025
2770.00,0.0025
2767.00,0.0025
2764.00,0.0024
2761.00,0.0024
2758.00,0.0023
2755.00,0.0023
2752.00,0.0023
2749.00,0.0023
2746.00,0.0023
2743.00,0.0024
2740.00,0.0024
2737.00,0.0024
2734.00,0.0024
2731.00,0.0024
2728.00,0.0024
2725.00,0.0024
2722.00,0.0023
2719.00,0.0023
2716.00,0.0023
2713.00,0.0023
2710.00,0.0023
2707.00,0.0023
2704.00,0.0023
2701.00,0.0023
2698.00,0.0022
2695.00,0.0022
2692.00,0.0022
2689.00,0.0022
2686.00,0.0022
2683.00,0.0022
2680.00,0.0022
2677.00,0.0022
2674.00,0.0022
2671.00,0.0022
2668.00,0.0022
2665.00,0.0024
2662.00,0.0025
2659.00,0.0026
2656.00,0.0026
2653.00,0.0026
2650.00,0.0026
2647.00,0.0027
2644.00,0.0027
2641.00,0.0027
2638.00,0.0027
2635.00,0.0027
2632.00,0.0027
2629.00,0.0027
2626.00,0.0026
2623.00,0.0025
2620.00,0.0025
2617.00,0.0024
2614.00,0.0024
2611.00,0.0025
2608.00,0.0025
2605.00,0.0025
2602.00,0.0024
2599.00,0.0024
2596.00,0.0023
2593.00,0.0023
2590.00,0.0022
2587.00,0.0022
2584.00,0.0022
2581.00,0.0022
2578.00,0.0022
2575.00,0.0021
2572.00,0.0021
2569.00,0.0021
2566.00,0.0020
2563.00,0.0020
2560.00,0.0021
2557.00,0.0019
2554.00,0.0020
2551.00,0.0020
2548.00,0.0020
2545.00,0.0019
2542.00,0.0019
2539.00,0.0019
2536.00,0.0018
2533.00,0.0018
2530.00,0.0018
2527.00,0.0018
2524.00,0.0018
2521.00,0.0018
2518.00,0.0018
2515.00,0.0017
2512.00,0.0018
2509.00,0.0018
2506.00,0.0017
2503.00,0.0017
2500.00,0.0017
2497.00,0.0018
2494.00,0.0017
2491.00,0.0017
2488.00,0.0018
2485.00,0.0017
2482.00,0.0017
2479.00,0.0016
2476.00,0.0017
2473.00,0.0017
2470.00,0.0016
2467.00,0.0016
2464.00,0.0016
2461.00,0.0016
2458.00,0.0017
2455.00,0.0018
2452.00,0.0017
2449.00,0.0016
2446.00,0.0015
2443.00,0.0016
2440.00,0.0016
2437.00,0.0014
2434.00,0.0014
2431.00,0.0014
2428.00,0.0013
2425.00,0.0014
2422.00,0.0013
2419.00,0.0013
2416.00,0.0013
2413.00,0.0013
2410.00,0.0013
2407.00,0.0012
2404.00,0.0012
2401.00,0.0012
2398.00,0.0012
2395.00,0.0012
2392.00,0.0012
2389.00,0.0012
2386.00,0.0011
2383.00,0.0012
2380.00,0.0012
2377.00,0.0012
2374.00,0.0012
2371.00,0.0012
2368.00,0.0012
2365.00,0.0013
2362.00,0.0013
2359.00,0.0015
2356.00,0.0015
2353.00,0.0014
2350.00,0.0016
2347.00,0.0017
2344.00,0.0019
2341.00,0.0019
2338.00,0.0020
2335.00,0.0020
2332.00,0.0019
2329.00,0.0021
2326.00,0.0031
2323.00,0.0029
2320.00,0.0026
2317.00,0.0024
2314.00,0.0024
2311.00,0.0023
2308.00,0.0023
2305.00,0.0021
2302.00,0.0020
2299.00,0.0021
2296.00,0.0022
2293.00,0.0023
2290.00,0.0025
2287.00,0.0026
2284.00,0.0024
2281.00,0.0022
2278.00,0.0021
2275.00,0.0020
2272.00,0.0019
2269.00,0.0019
2266.00,0.0018
2263.00,0.0018
2260.00,0.0019
2257.00,0.0018
2254.00,0.0017
2251.00,0.0018
2248.00,0.0017
2245.00,0.0017
2242.00,0.0017
2239.00,0.0016
2236.00,0.0017
2233.00,0.0015
2230.00,0.0014
2227.00,0.0015
2224.00,0.0015
2221.00,0.0013
2218.00,0.0015
2215.00,0.0015
2212.00,0.0012
2209.00,0.0013
2206.00,0.0015
2203.00,0.0016
2200.00,0.0016
2197.00,0.0016
2194.00,0.0017
2191.00,0.0017
2188.00,0.0019
2185.00,0.0017
2182.00,0.0010
2179.00,0.0010
2176.00,0.0008
2173.00,0.0009
2170.00,0.0017
2167.00,0.0023
2164.00,0.0024
2161.00,0.0008
2158.00,-0.0021
2155.00,-0.0013
2152.00,-0.0005
2149.00,-0.0006
2146.00,-0.0006
2143.00,-0.0004
2140.00,-0.0003
2137.00,-0.0005
2134.00,-0.0009
2131.00,-0.0004
2128.00,-0.0000
2125.00,0.0003
2122.00,0.0005
2119.00,0.0008
2116.00,0.0011
2113.00,0.0012
2110.00,0.0010
2107.00,0.0010
2104.00,0.0011
2101.00,0.0011
2098.00,0.0008
2095.00,0.0004
2092.00,0.0006
2089.00,0.0010
2086.00,0.0011
2083.00,0.0013
2080.00,0.0013
2077.00,0.0011
2074.00,0.0010
2071.00,0.0010
2068.00,0.0009
2065.00,0.0008
2062.00,0.0008
2059.00,0.0008
2056.00,0.0009
2053.00,0.0014
2050.00,0.0015
2047.00,0.0010
2044.00,0.0009
2041.00,0.0008
2038.00,0.0010
2035.00,0.0004
2032.00,0.0002
2029.00,0.0004
2026.00,0.0002
2023.00,0.0002
2020.00,0.0000
2017.00,0.0001
2014.00,0.0006
2011.00,0.0005
2008.00,-0.0002
2005.00,-0.0002
2002.00,0.0005
1999.00,0.0007
1996.00,0.0007
1993.00,0.0008
1990.00,0.0010
1987.00,0.0013
1984.00,0.0020
1981.00,0.0026
1978.00,0.0010
1975.00,0.0001
1972.00,0.0003
1969.00,0.0009
1966.00,0.0014
1963.00,0.0017
1960.00,0.0018
1957.00,0.0019
1954.00,0.0024
1951.00,0.0027
1948.00,0.0033
1945.00,0.0034
1942.00,0.0034
1939.00,0.0034
1936.00,0.0027
1933.00,0.0020
1930.00,0.0017
1927.00,0.0014
1924.00,0.0013
1921.00,0.0011
1918.00,0.0011
1915.00,0.0011
1912.00,0.0011
1909.00,0.0012
1906.00,0.0012
1903.00,0.0012
1900.00,0.0013
1897.00,0.0016
1894.00,0.0018
1891.00,0.0021
1888.00,0.0024
1885.00,0.0027
1882.00,0.0028
1879.00,0.0030
1876.00,0.0032
1873.00,0.0033
1870.00,0.0035
1867.00,0.0034
1864.00,0.0030
1861.00,0.0026
1858.00,0.0022
1855.00,0.0018
1852.00,0.0017
1849.00,0.0016
1846.00,0.0015
1843.00,0.0014
1840.00,0.0013
1837.00,0.0013
1834.00,0.0014
1831.00,0.0016
1828.00,0.0018
1825.00,0.0020
1822.00,0.0023
1819.00,0.0024
1816.00,0.0026
1813.00,0.0030
1810.00,0.0034
1807.00,0.0037
1804.00,0.0040
1801.00,0.0041
1798.00,0.0038
1795.00,0.0035
1792.00,0.0030
1789.00,0.0026
1786.00,0.0024
1783.00,0.0023
1780.00,0.0024
1777.00,0.0025
1774.00,0.0025
1771.00,0.0026
1768.00,0.0027
1765.00,0.0028
1762.00,0.0031
1759.00,0.0035
1756.00,0.0040
1753.00,0.0047
1750.00,0.0054
1747.00,0.0059
1744.00,0.0064
1741.00,0.0066
1738.00,0.0067
1735.00,0.0068
1732.00,0.0063
1729.00,0.0058
1726.00,0.0053
1723.00,0.0048
1720.00,0.0046
1717.00,0.0042
1714.00,0.0039
1711.00,0.0037
1708.00,0.0037
1705.00,0.0037
1702.00,0.0037
1699.00,0.0036
1696.00,0.0035
1693.00,0.0035
1690.00,0.0038
1687.00,0.0040
1684.00,0.0042
1681.00,0.0043
1678.00,0.0044
1675.00,0.0046
1672.00,0.0048
1669.00,0.0049
1666.00,0.0050
1663.00,0.0049
1660.00,0.0048
1657.00,0.0047
1654.00,0.0047
1651.00,0.0042
1648.00,0.0041
1645.00,0.0038
1642.00,0.0036
1639.00,0.0036
1636.00,0.0036
1633.00,0.0035
1630.00,0.0037
1627.00,0.0042
1624.00,0.0047
1621.00,0.0051
1618.00,0.0051
1615.00,0.0053
1612.00,0.0063
1609.00,0.0089
1606.00,0.0145
1603.00,0.0214
1600.00,0.0222
1597.00,0.0161
1594.00,0.0109
1591.00,0.0087
1588.00,0.0085
1585.00,0.0105
1582.00,0.0104
1579.00,0.0074
1576.00,0.0052
1573.00,0.0043
1570.00,0.0039
1567.00,0.0035
1564.00,0.0034
1561.00,0.0034
1558.00,0.0034
1555.00,0.0035
1552.00,0.0039
1549.00,0.0042
1546.00,0.0046
1543.00,0.0047
1540.00,0.0044
1537.00,0.0041
1534.00,0.0039
1531.00,0.0035
1528.00,0.0034
1525.00,0.0033
1522.00,0.0033
1519.00,0.0034
1516.00,0.0034
1513.00,0.0037
1510.00,0.0042
1507.00,0.0045
1504.00,0.0057
1501.00,0.0085
1498.00,0.0181
1495.00,0.0438
1492.00,0.0539
1489.00,0.0329
1486.00,0.0178
1483.00,0.0114
1480.00,0.0083
1477.00,0.0072
1474.00,0.0069
1471.00,0.0071
1468.00,0.0078
1465.00,0.0087
1462.00,0.0101
1459.00,0.0142
1456.00,0.0347
1453.00,0.0542
1450.00,0.0526
1447.00,0.0408
1444.00,0.0325
1441.00,0.0257
1438.00,0.0208
1435.00,0.0156
1432.00,0.0123
1429.00,0.0099
1426.00,0.0085
1423.00,0.0076
1420.00,0.0072
1417.00,0.0067
1414.00,0.0064
1411.00,0.0064
1408.00,0.0065
1405.00,0.0067
1402.00,0.0067
1399.00,0.0068
1396.00,0.0068
1393.00,0.0072
1390.00,0.0079
1387.00,0.0093
1384.00,0.0105
1381.00,0.0117
1378.00,0.0128
1375.00,0.0135
1372.00,0.0137
1369.00,0.0135
1366.00,0.0133
1363.00,0.0133
1360.00,0.0129
1357.00,0.0122
1354.00,0.0118
1351.00,0.0117
1348.00,0.0118
1345.00,0.0119
1342.00,0.0114
1339.00,0.0104
1336.00,0.0103
1333.00,0.0108
1330.00,0.0115
1327.00,0.0115
1324.00,0.0111
1321.00,0.0108
1318.00,0.0108
1315.00,0.0111
1312.00,0.0113
1309.00,0.0111
1306.00,0.0108
1303.00,0.0104
1300.00,0.0100
1297.00,0.0097
1294.00,0.0096
1291.00,0.0095
1288.00,0.0094
1285.00,0.0093
1282.00,0.0092
1279.00,0.0089
1276.00,0.0084
1273.00,0.0078
1270.00,0.0075
1267.00,0.0072
1264.00,0.0070
1261.00,0.0069
1258.00,0.0069
1255.00,0.0070
1252.00,0.0072
1249.00,0.0073
1246.00,0.0076
1243.00,0.0077
1240.00,0.0077
1237.00,0.0076
1234.00,0.0075
1231.00,0.0074
1228.00,0.0073
1225.00,0.0073
1222.00,0.0073
1219.00,0.0072
1216.00,0.0072
1213.00,0.0073
1210.00,0.0075
1207.00,0.0079
1204.00,0.0086
1201.00,0.0094
1198.00,0.0101
1195.00,0.0105
1192.00,0.0106
1189.00,0.0108
1186.00,0.0117
1183.00,0.0133
1180.00,0.0134
1177.00,0.0115
1174.00,0.0098
1171.00,0.0091
1168.00,0.0089
1165.00,0.0091
1162.00,0.0099
1159.00,0.0119
1156.00,0.0142
1153.00,0.0141
1150.00,0.0114
1147.00,0.0094
1144.00,0.0083
1141.00,0.0077
1138.00,0.0074
1135.00,0.0074
1132.00,0.0077
1129.00,0.0080
1126.00,0.0082
1123.00,0.0088
1120.00,0.0098
1117.00,0.0107
1114.00,0.0108
1111.00,0.0104
1108.00,0.0099
1105.00,0.0096
1102.00,0.0095
1099.00,0.0095
1096.00,0.0096
1093.00,0.0098
1090.00,0.0100
1087.00,0.0104
1084.00,0.0112
1081.00,0.0123
1078.00,0.0134
1075.00,0.0150
1072.00,0.0168
1069.00,0.0178
1066.00,0.0173
1063.00,0.0159
1060.00,0.0145
1057.00,0.0133
1054.00,0.0122
1051.00,0.0112
1048.00,0.0103
1045.00,0.0098
1042.00,0.0097
1039.00,0.0105
1036.00,0.0137
1033.00,0.0206
1030.00,0.0275
1027.00,0.0286
1024.00,0.0235
1021.00,0.0187
1018.00,0.0158
1015.00,0.0139
1012.00,0.0126
1009.00,0.0121
1006.00,0.0126
1003.00,0.0131
1000.00,0.0115
997.00,0.0100
994.00,0.0096
991.00,0.0096
988.00,0.0101
985.00,0.0109
982.00,0.0116
979.00,0.0117
976.00,0.0113
973.00,0.0110
970.00,0.0116
967.00,0.0129
964.00,0.0135
961.00,0.0124
958.00,0.0109
955.00,0.0099
952.00,0.0097
949.00,0.0098
946.00,0.0102
943.00,0.0104
940.00,0.0101
937.00,0.0093
934.00,0.0085
931.00,0.0078
928.00,0.0076
925.00,0.0079
922.00,0.0083
919.00,0.0091
916.00,0.0107
913.00,0.0136
910.00,0.0173
907.00,0.0197
904.00,0.0187
901.00,0.0150
898.00,0.0113
895.00,0.0092
892.00,0.0080
889.00,0.0073
886.00,0.0068
883.00,0.0065
880.00,0.0063
877.00,0.0062
874.00,0.0061
871.00,0.0060
868.00,0.0060
865.00,0.0059
862.00,0.0059
859.00,0.0058
856.00,0.0059
853.00,0.0066
850.00,0.0077
847.00,0.0093
844.00,0.0107
841.00,0.0111
838.00,0.0100
835.00,0.0083
832.00,0.0068
829.00,0.0060
826.00,0.0058
823.00,0.0058
820.00,0.0057
817.00,0.0058
814.00,0.0060
811.00,0.0060
808.00,0.0058
805.00,0.0057
802.00,0.0060
799.00,0.0063
796.00,0.0072
793.00,0.0082
790.00,0.0097
787.00,0.0115
784.00,0.0138
781.00,0.0167
778.00,0.0210
775.00,0.0273
772.00,0.0353
769.00,0.0447
766.00,0.0543
763.00,0.0638
760.00,0.0736
757.00,0.0813
754.00,0.0834
751.00,0.0824
748.00,0.0813
745.00,0.0744
742.00,0.0595
739.00,0.0447
736.00,0.0328
733.00,0.0225
730.00,0.0154
727.00,0.0122
724.00,0.0109
721.00,0.0106
718.00,0.0111
715.00,0.0132
712.00,0.0193
709.00,0.0345
706.00,0.0647
703.00,0.1108
700.00,0.1687
697.00,0.2262
694.00,0.2385
691.00,0.1744
688.00,0.1114
685.00,0.0781
682.00,0.0602
679.00,0.0493
676.00,0.0426
673.00,0.0380
670.00,0.0351
667.00,0.0316
664.00,0.0280
661.00,0.0249
658.00,0.0221
655.00,0.0199
652.00,0.0181
649.00,0.0166
646.00,0.0156
643.00,0.0148
640.00,0.0149
637.00,0.0156
634.00,0.0165
631.00,0.0173
628.00,0.0180
625.00,0.0187
622.00,0.0196
619.00,0.0194
616.00,0.0179
613.00,0.0171
610.00,0.0168
607.00,0.0161
604.00,0.0159
601.00,0.0162
598.00,0.0166
595.00,0.0170
592.00,0.0179
589.00,0.0185
586.00,0.0192
583.00,0.0204
580.00,0.0221
577.00,0.0250
574.00,0.0281
571.00,0.0314
568.00,0.0346
565.00,0.0375
562.00,0.0407
559.00,0.0439
556.00,0.0471
553.00,0.0511
550.00,0.0558
547.00,0.0621
544.00,0.0700
541.00,0.0774
538.00,0.0811
535.00,0.0771
532.00,0.0666
529.00,0.0548
526.00,0.0451
523.00,0.0377
520.00,0.0331
517.00,0.0297
514.00,0.0274
511.00,0.0253
508.00,0.0233
505.00,0.0213
502.00,0.0198
499.00,0.0187
496.00,0.0181
493.00,0.0169
490.00,0.0165
487.00,0.0158
484.00,0.0151
481.00,0.0142
478.00,0.0144
475.00,0.0144
472.00,0.0145
469.00,0.0146
466.00,0.0140
463.00,0.0130
460.00,0.0133
457.00,0.0128
454.00,0.0126
451.00,0.0119
448.00,0.0127
445.00,0.0124
442.00,0.0119
439.00,0.0117
436.00,0.0123
433.00,0.0110
430.00,0.0111
427.00,0.0117
424.00,0.0107
421.00,0.0104
418.00,0.0090
415.00,0.0100
412.00,0.0117
409.00,0.0124
406.00,0.0119
403.00,0.0114
400.00,0.0091