File: FTIR/Mary/2025_11_14_Polystyrene_Post_Scan2.csv
Created as New Dataset,Sample 367 By YargerLab Date Friday, November 14 2025
cm-1,A
4000.00,0.0012
3997.00,0.0011
3994.00,0.0011
3991.00,0.0010
3988.00,0.0011
3985.00,0.0011
3982.00,0.0010
3979.00,0.0011
3976.00,0.0011
3973.00,0.0010
3970.00,0.0010
3967.00,0.0010
3964.00,0.0010
3961.00,0.0010
3958.00,0.0009
3955.00,0.0010
3952.00,0.0010
3949.00,0.0010
3946.00,0.0010
3943.00,0.0009
3940.00,0.0009
3937.00,0.0009
3934.00,0.0009
3931.00,0.0009
3928.00,0.0009
3925.00,0.0010
3922.00,0.0009
3919.00,0.0009
3916.00,0.0009
3913.00,0.0010
3910.00,0.0010
3907.00,0.0010
3904.00,0.0009
3901.00,0.0009
3898.00,0.0009
3895.00,0.0008
3892.00,0.0008
3889.00,0.0009
3886.00,0.0009
3883.00,0.0009
3880.00,0.0009
3877.00,0.0009
3874.00,0.0009
3871.00,0.0009
3868.00,0.0009
3865.00,0.0009
3862.00,0.0009
3859.00,0.0009
3856.00,0.0009
3853.00,0.0008
3850.00,0.0008
3847.00,0.0008
3844.00,0.0008
3841.00,0.0009
3838.00,0.0008
3835.00,0.0009
3832.00,0.0009
3829.00,0.0009
3826.00,0.0009
3823.00,0.0009
3820.00,0.0009
3817.00,0.0008
3814.00,0.0008
3811.00,0.0008
3808.00,0.0008
3805.00,0.0008
3802.00,0.0008
3799.00,0.0008
3796.00,0.0008
3793.00,0.0008
3790.00,0.0008
3787.00,0.0008
3784.00,0.0007
3781.00,0.0008
3778.00,0.0008
3775.00,0.0007
3772.00,0.0008
3769.00,0.0008
3766.00,0.0007
3763.00,0.0008
3760.00,0.0008
3757.00,0.0008
3754.00,0.0008
3751.00,0.0009
3748.00,0.0008
3745.00,0.0007
3742.00,0.0007
3739.00,0.0007
3736.00,0.0007
3733.00,0.0007
3730.00,0.0006
3727.00,0.0006
3724.00,0.0006
3721.00,0.0007
3718.00,0.0007
3715.00,0.0006
3712.00,0.0007
3709.00,0.0007
3706.00,0.0007
3703.00,0.0007
3700.00,0.0007
3697.00,0.0006
3694.00,0.0007
3691.00,0.0007
3688.00,0.0006
3685.00,0.0006
3682.00,0.0007
3679.00,0.0009
3676.00,0.0009
3673.00,0.0008
3670.00,0.0008
3667.00,0.0007
3664.00,0.0008
3661.00,0.0009
3658.00,0.0009
3655.00,0.0009
3652.00,0.0010
3649.00,0.0011
3646.00,0.0011
3643.00,0.0011
3640.00,0.0011
3637.00,0.0012
3634.00,0.0012
3631.00,0.0011
3628.00,0.0012
3625.00,0.0012
3622.00,0.0012
3619.00,0.0013
3616.00,0.0013
3613.00,0.0013
3610.00,0.0013
3607.00,0.0015
3604.00,0.0015
3601.00,0.0016
3598.00,0.0016
3595.00,0.0016
3592.00,0.0017
3589.00,0.0017
3586.00,0.0017
3583.00,0.0018
3580.00,0.0019
3577.00,0.0020
3574.00,0.0020
3571.00,0.0021
3568.00,0.0022
3565.00,0.0023
3562.00,0.0024
3559.00,0.0024
3556.00,0.0025
3553.00,0.0026
3550.00,0.0027
3547.00,0.0028
3544.00,0.0029
3541.00,0.0029
3538.00,0.0030
3535.00,0.0031
3532.00,0.0032
3529.00,0.0033
3526.00,0.0033
3523.00,0.0034
3520.00,0.0036
3517.00,0.0036
3514.00,0.0036
3511.00,0.0036
3508.00,0.0038
3505.00,0.0038
3502.00,0.0039
3499.00,0.0040
3496.00,0.0041
3493.00,0.0042
3490.00,0.0043
3487.00,0.0043
3484.00,0.0044
3481.00,0.0045
3478.00,0.0046
3475.00,0.0048
3472.00,0.0048
3469.00,0.0048
3466.00,0.0048
3463.00,0.0049
3460.00,0.0049
3457.00,0.0050
3454.00,0.0052
3451.00,0.0052
3448.00,0.0052
3445.00,0.0052
3442.00,0.0052
3439.00,0.0053
3436.00,0.0054
3433.00,0.0054
3430.00,0.0055
3427.00,0.0056
3424.00,0.0056
3421.00,0.0057
3418.00,0.0058
3415.00,0.0058
3412.00,0.0058
3409.00,0.0059
3406.00,0.0059
3403.00,0.0060
3400.00,0.0060
3397.00,0.0060
3394.00,0.0061
3391.00,0.0062
3388.00,0.0062
3385.00,0.0064
3382.00,0.0064
3379.00,0.0064
3376.00,0.0065
3373.00,0.0065
3370.00,0.0065
3367.00,0.0066
3364.00,0.0067
3361.00,0.0068
3358.00,0.0069
3355.00,0.0069
3352.00,0.0069
3349.00,0.0069
3346.00,0.0070
3343.00,0.0071
3340.00,0.0071
3337.00,0.0072
3334.00,0.0073
3331.00,0.0074
3328.00,0.0074
3325.00,0.0074
3322.00,0.0075
3319.00,0.0076
3316.00,0.0076
3313.00,0.0077
3310.00,0.0076
3307.00,0.0076
3304.00,0.0077
3301.00,0.0078
3298.00,0.0078
3295.00,0.0079
3292.00,0.0078
3289.00,0.0079
3286.00,0.0078
3283.00,0.0078
3280.00,0.0078
3277.00,0.0077
3274.00,0.0076
3271.00,0.0075
3268.00,0.0075
3265.00,0.0074
3262.00,0.0073
3259.00,0.0072
3256.00,0.0071
3253.00,0.0070
3250.00,0.0068
3247.00,0.0068
3244.00,0.0067
3241.00,0.0066
3238.00,0.0065
3235.00,0.0064
3232.00,0.0064
3229.00,0.0063
3226.00,0.0063
3223.00,0.0062
3220.00,0.0061
3217.00,0.0061
3214.00,0.0061
3211.00,0.0061
3208.00,0.0061
3205.00,0.0061
3202.00,0.0060
3199.00,0.0060
3196.00,0.0059
3193.00,0.0057
3190.00,0.0056
3187.00,0.0055
3184.00,0.0055
3181.00,0.0054
3178.00,0.0054
3175.00,0.0052
3172.00,0.0052
3169.00,0.0052
3166.00,0.0053
3163.00,0.0053
3160.00,0.0052
3157.00,0.0050
3154.00,0.0048
3151.00,0.0048
3148.00,0.0047
3145.00,0.0046
3142.00,0.0045
3139.00,0.0045
3136.00,0.0046
3133.00,0.0046
3130.00,0.0045
3127.00,0.0045
3124.00,0.0045
3121.00,0.0045
3118.00,0.0046
3115.00,0.0049
3112.00,0.0054
3109.00,0.0061
3106.00,0.0069
3103.00,0.0072
3100.00,0.0071
3097.00,0.0069
3094.00,0.0071
3091.00,0.0082
3088.00,0.0103
3085.00,0.0130
3082.00,0.0142
3079.00,0.0130
3076.00,0.0115
3073.00,0.0109
3070.00,0.0116
3067.00,0.0134
3064.00,0.0163
3061.00,0.0187
3058.00,0.0185
3055.00,0.0159
3052.00,0.0132
3049.00,0.0114
3046.00,0.0105
3043.00,0.0106
3040.00,0.0117
3037.00,0.0140
3034.00,0.0180
3031.00,0.0242
3028.00,0.0310
3025.00,0.0339
3022.00,0.0294
3019.00,0.0213
3016.00,0.0150
3013.00,0.0114
3010.00,0.0098
3007.00,0.0097
3004.00,0.0105
3001.00,0.0110
2998.00,0.0101
2995.00,0.0085
2992.00,0.0076
2989.00,0.0074
2986.00,0.0075
2983.00,0.0077
2980.00,0.0080
2977.00,0.0086
2974.00,0.0092
2971.00,0.0100
2968.00,0.0110
2965.00,0.0121
2962.00,0.0134
2959.00,0.0147
2956.00,0.0159
2953.00,0.0170
2950.00,0.0185
2947.00,0.0206
2944.00,0.0234
2941.00,0.0271
2938.00,0.0317
2935.00,0.0370
2932.00,0.0427
2929.00,0.0482
2926.00,0.0526
2923.00,0.0554
2920.00,0.0561
2917.00,0.0539
2914.00,0.0486
2911.00,0.0432
2908.00,0.0386
2905.00,0.0345
2902.00,0.0307
2899.00,0.0272
2896.00,0.0241
2893.00,0.0218
2890.00,0.0200
2887.00,0.0185
2884.00,0.0172
2881.00,0.0162
2878.00,0.0156
2875.00,0.0151
2872.00,0.0148
2869.00,0.0148
2866.00,0.0153
2863.00,0.0168
2860.00,0.0193
2857.00,0.0225
2854.00,0.0257
2851.00,0.0270
2848.00,0.0248
2845.00,0.0207
2842.00,0.0162
2839.00,0.0122
2836.00,0.0091
2833.00,0.0072
2830.00,0.0062
2827.00,0.0055
2824.00,0.0051
2821.00,0.0048
2818.00,0.0046
2815.00,0.0045
2812.00,0.0043
2809.00,0.0041
2806.00,0.0040
2803.00,0.0038
2800.00,0.0037
2797.00,0.0035
2794.00,0.0034
2791.00,0.0033
2788.00,0.0032
2785.00,0.0032
2782.00,0.0032
2779.00,0.0031
2776.00,0.0030
2773.00,0.0029
2770.00,0.0028
2767.00,0.0028
2764.00,0.0027
2761.00,0.0027
2758.00,0.0026
2755.00,0.0026
2752.00,0.0025
2749.00,0.0025
2746.00,0.0025
2743.00,0.0024
2740.00,0.0024
2737.00,0.0025
2734.00,0.0025
2731.00,0.0025
2728.00,0.0025
2725.00,0.0024
2722.00,0.0024
2719.00,0.0024
2716.00,0.0023
2713.00,0.0023
2710.00,0.0023
2707.00,0.0023
2704.00,0.0022
2701.00,0.0022
2698.00,0.0022
2695.00,0.0022
2692.00,0.0022
2689.00,0.0022
2686.00,0.0022
2683.00,0.0022
2680.00,0.0022
2677.00,0.0022
2674.00,0.0022
2671.00,0.0022
2668.00,0.0022
2665.00,0.0022
2662.00,0.0024
2659.00,0.0025
2656.00,0.0025
2653.00,0.0025
2650.00,0.0025
2647.00,0.0025
2644.00,0.0025
2641.00,0.0025
2638.00,0.0025
2635.00,0.0025
2632.00,0.0025
2629.00,0.0024
2626.00,0.0023
2623.00,0.0022
2620.00,0.0022
2617.00,0.0021
2614.00,0.0020
2611.00,0.0021
2608.00,0.0021
2605.00,0.0021
2602.00,0.0021
2599.00,0.0020
2596.00,0.0019
2593.00,0.0018
2590.00,0.0017
2587.00,0.0018
2584.00,0.0018
2581.00,0.0018
2578.00,0.0017
2575.00,0.0016
2572.00,0.0015
2569.00,0.0015
2566.00,0.0015
2563.00,0.0014
2560.00,0.0014
2557.00,0.0014
2554.00,0.0014
2551.00,0.0013
2548.00,0.0013
2545.00,0.0014
2542.00,0.0014
2539.00,0.0012
2536.00,0.0012
2533.00,0.0012
2530.00,0.0012
2527.00,0.0012
2524.00,0.0012
2521.00,0.0012
2518.00,0.0012
2515.00,0.0011
2512.00,0.0012
2509.00,0.0011
2506.00,0.0011
2503.00,0.0010
2500.00,0.0009
2497.00,0.0009
2494.00,0.0010
2491.00,0.0008
2488.00,0.0008
2485.00,0.0007
2482.00,0.0007
2479.00,0.0007
2476.00,0.0007
2473.00,0.0007
2470.00,0.0007
2467.00,0.0007
2464.00,0.0006
2461.00,0.0007
2458.00,0.0007
2455.00,0.0007
2452.00,0.0006
2449.00,0.0006
2446.00,0.0006
2443.00,0.0005
2440.00,0.0004
2437.00,0.0004
2434.00,0.0002
2431.00,0.0002
2428.00,0.0002
2425.00,0.0002
2422.00,0.0001
2419.00,0.0001
2416.00,0.0001
2413.00,0.0001
2410.00,0.0001
2407.00,-0.0000
2404.00,-0.0001
2401.00,-0.0001
2398.00,-0.0001
2395.00,-0.0001
2392.00,-0.0001
2389.00,-0.0001
2386.00,-0.0001
2383.00,-0.0001
2380.00,-0.0000
2377.00,0.0000
2374.00,-0.0000
2371.00,-0.0000
2368.00,0.0000
2365.00,0.0001
2362.00,0.0002
2359.00,0.0002
2356.00,0.0002
2353.00,0.0001
2350.00,0.0003
2347.00,0.0005
2344.00,0.0006
2341.00,0.0008
2338.00,0.0008
2335.00,0.0008
2332.00,0.0006
2329.00,0.0008
2326.00,0.0019
2323.00,0.0015
2320.00,0.0011
2317.00,0.0011
2314.00,0.0011
2311.00,0.0011
2308.00,0.0010
2305.00,0.0009
2302.00,0.0008
2299.00,0.0008
2296.00,0.0009
2293.00,0.0009
2290.00,0.0011
2287.00,0.0011
2284.00,0.0010
2281.00,0.0007
2278.00,0.0005
2275.00,0.0006
2272.00,0.0005
2269.00,0.0003
2266.00,0.0002
2263.00,0.0002
2260.00,0.0003
2257.00,0.0002
2254.00,-0.0001
2251.00,0.0000
2248.00,-0.0001
2245.00,0.0001
2242.00,0.0001
2239.00,0.0000
2236.00,-0.0000
2233.00,-0.0001
2230.00,-0.0001
2227.00,-0.0002
2224.00,-0.0002
2221.00,-0.0005
2218.00,-0.0006
2215.00,-0.0002
2212.00,-0.0005
2209.00,-0.0003
2206.00,-0.0003
2203.00,-0.0003
2200.00,-0.0002
2197.00,-0.0002
2194.00,-0.0001
2191.00,0.0001
2188.00,-0.0002
2185.00,-0.0006
2182.00,-0.0007
2179.00,-0.0006
2176.00,-0.0010
2173.00,-0.0005
2170.00,0.0001
2167.00,0.0003
2164.00,0.0009
2161.00,-0.0010
2158.00,-0.0042
2155.00,-0.0035
2152.00,-0.0026
2149.00,-0.0022
2146.00,-0.0024
2143.00,-0.0023
2140.00,-0.0023
2137.00,-0.0026
2134.00,-0.0026
2131.00,-0.0023
2128.00,-0.0020
2125.00,-0.0015
2122.00,-0.0013
2119.00,-0.0011
2116.00,-0.0007
2113.00,-0.0006
2110.00,-0.0007
2107.00,-0.0006
2104.00,-0.0006
2101.00,-0.0005
2098.00,-0.0009
2095.00,-0.0014
2092.00,-0.0011
2089.00,-0.0008
2086.00,-0.0006
2083.00,-0.0007
2080.00,-0.0005
2077.00,-0.0005
2074.00,-0.0006
2071.00,-0.0007
2068.00,-0.0008
2065.00,-0.0009
2062.00,-0.0010
2059.00,-0.0009
2056.00,-0.0010
2053.00,-0.0003
2050.00,-0.0002
2047.00,-0.0005
2044.00,-0.0006
2041.00,-0.0005
2038.00,-0.0005
2035.00,-0.0004
2032.00,-0.0010
2029.00,-0.0012
2026.00,-0.0012
2023.00,-0.0014
2020.00,-0.0016
2017.00,-0.0016
2014.00,-0.0015
2011.00,-0.0007
2008.00,-0.0013
2005.00,-0.0018
2002.00,-0.0015
1999.00,-0.0010
1996.00,-0.0006
1993.00,-0.0004
1990.00,-0.0002
1987.00,-0.0001
1984.00,0.0004
1981.00,0.0011
1978.00,-0.0004
1975.00,-0.0009
1972.00,-0.0008
1969.00,-0.0005
1966.00,0.0001
1963.00,0.0008
1960.00,0.0007
1957.00,0.0010
1954.00,0.0015
1951.00,0.0019
1948.00,0.0026
1945.00,0.0032
1942.00,0.0033
1939.00,0.0030
1936.00,0.0021
1933.00,0.0013
1930.00,0.0007
1927.00,0.0003
1924.00,0.0001
1921.00,0.0000
1918.00,-0.0000
1915.00,-0.0002
1912.00,-0.0002
1909.00,-0.0002
1906.00,-0.0002
1903.00,-0.0001
1900.00,0.0001
1897.00,0.0005
1894.00,0.0010
1891.00,0.0016
1888.00,0.0018
1885.00,0.0021
1882.00,0.0023
1879.00,0.0026
1876.00,0.0028
1873.00,0.0030
1870.00,0.0033
1867.00,0.0029
1864.00,0.0025
1861.00,0.0018
1858.00,0.0012
1855.00,0.0008
1852.00,0.0005
1849.00,0.0004
1846.00,0.0005
1843.00,0.0001
1840.00,0.0002
1837.00,0.0003
1834.00,0.0006
1831.00,0.0010
1828.00,0.0011
1825.00,0.0014
1822.00,0.0017
1819.00,0.0019
1816.00,0.0022
1813.00,0.0030
1810.00,0.0036
1807.00,0.0040
1804.00,0.0045
1801.00,0.0048
1798.00,0.0045
1795.00,0.0041
1792.00,0.0035
1789.00,0.0030
1786.00,0.0030
1783.00,0.0032
1780.00,0.0035
1777.00,0.0038
1774.00,0.0042
1771.00,0.0043
1768.00,0.0045
1765.00,0.0051
1762.00,0.0060
1759.00,0.0073
1756.00,0.0091
1753.00,0.0112
1750.00,0.0139
1747.00,0.0161
1744.00,0.0175
1741.00,0.0182
1738.00,0.0176
1735.00,0.0166
1732.00,0.0150
1729.00,0.0141
1726.00,0.0130
1723.00,0.0121
1720.00,0.0116
1717.00,0.0108
1714.00,0.0105
1711.00,0.0104
1708.00,0.0104
1705.00,0.0104
1702.00,0.0103
1699.00,0.0103
1696.00,0.0104
1693.00,0.0109
1690.00,0.0118
1687.00,0.0123
1684.00,0.0132
1681.00,0.0140
1678.00,0.0146
1675.00,0.0154
1672.00,0.0161
1669.00,0.0169
1666.00,0.0173
1663.00,0.0179
1660.00,0.0182
1657.00,0.0183
1654.00,0.0179
1651.00,0.0180
1648.00,0.0179
1645.00,0.0174
1642.00,0.0169
1639.00,0.0165
1636.00,0.0161
1633.00,0.0154
1630.00,0.0148
1627.00,0.0143
1624.00,0.0137
1621.00,0.0131
1618.00,0.0126
1615.00,0.0126
1612.00,0.0135
1609.00,0.0168
1606.00,0.0250
1603.00,0.0360
1600.00,0.0382
1597.00,0.0287
1594.00,0.0204
1591.00,0.0162
1588.00,0.0152
1585.00,0.0181
1582.00,0.0189
1579.00,0.0148
1576.00,0.0118
1573.00,0.0111
1570.00,0.0109
1567.00,0.0108
1564.00,0.0109
1561.00,0.0110
1558.00,0.0121
1555.00,0.0125
1552.00,0.0133
1549.00,0.0140
1546.00,0.0143
1543.00,0.0145
1540.00,0.0139
1537.00,0.0131
1534.00,0.0126
1531.00,0.0115
1528.00,0.0109
1525.00,0.0104
1522.00,0.0100
1519.00,0.0098
1516.00,0.0096
1513.00,0.0092
1510.00,0.0094
1507.00,0.0096
1504.00,0.0105
1501.00,0.0143
1498.00,0.0272
1495.00,0.0652
1492.00,0.0841
1489.00,0.0522
1486.00,0.0285
1483.00,0.0185
1480.00,0.0142
1477.00,0.0132
1474.00,0.0136
1471.00,0.0143
1468.00,0.0154
1465.00,0.0166
1462.00,0.0183
1459.00,0.0235
1456.00,0.0518
1453.00,0.0852
1450.00,0.0843
1447.00,0.0654
1444.00,0.0525
1441.00,0.0420
1438.00,0.0342
1435.00,0.0263
1432.00,0.0213
1429.00,0.0179
1426.00,0.0161
1423.00,0.0154
1420.00,0.0152
1417.00,0.0152
1414.00,0.0148
1411.00,0.0145
1408.00,0.0144
1405.00,0.0145
1402.00,0.0146
1399.00,0.0149
1396.00,0.0154
1393.00,0.0161
1390.00,0.0172
1387.00,0.0190
1384.00,0.0207
1381.00,0.0223
1378.00,0.0237
1375.00,0.0247
1372.00,0.0248
1369.00,0.0244
1366.00,0.0239
1363.00,0.0233
1360.00,0.0223
1357.00,0.0214
1354.00,0.0210
1351.00,0.0211
1348.00,0.0210
1345.00,0.0205
1342.00,0.0198
1339.00,0.0193
1336.00,0.0194
1333.00,0.0204
1330.00,0.0215
1327.00,0.0215
1324.00,0.0208
1321.00,0.0203
1318.00,0.0205
1315.00,0.0212
1312.00,0.0216
1309.00,0.0211
1306.00,0.0203
1303.00,0.0196
1300.00,0.0189
1297.00,0.0187
1294.00,0.0187
1291.00,0.0187
1288.00,0.0184
1285.00,0.0181
1282.00,0.0181
1279.00,0.0179
1276.00,0.0176
1273.00,0.0172
1270.00,0.0169
1267.00,0.0168
1264.00,0.0165
1261.00,0.0163
1258.00,0.0163
1255.00,0.0165
1252.00,0.0169
1249.00,0.0174
1246.00,0.0176
1243.00,0.0176
1240.00,0.0174
1237.00,0.0172
1234.00,0.0171
1231.00,0.0171
1228.00,0.0172
1225.00,0.0172
1222.00,0.0173
1219.00,0.0170
1216.00,0.0169
1213.00,0.0171
1210.00,0.0176
1207.00,0.0183
1204.00,0.0195
1201.00,0.0209
1198.00,0.0218
1195.00,0.0220
1192.00,0.0220
1189.00,0.0226
1186.00,0.0246
1183.00,0.0275
1180.00,0.0282
1177.00,0.0253
1174.00,0.0225
1171.00,0.0214
1168.00,0.0210
1165.00,0.0209
1162.00,0.0216
1159.00,0.0240
1156.00,0.0274
1153.00,0.0273
1150.00,0.0231
1147.00,0.0197
1144.00,0.0178
1141.00,0.0166
1138.00,0.0158
1135.00,0.0154
1132.00,0.0153
1129.00,0.0156
1126.00,0.0161
1123.00,0.0167
1120.00,0.0176
1117.00,0.0187
1114.00,0.0197
1111.00,0.0201
1108.00,0.0201
1105.00,0.0201
1102.00,0.0201
1099.00,0.0202
1096.00,0.0206
1093.00,0.0210
1090.00,0.0216
1087.00,0.0225
1084.00,0.0240
1081.00,0.0258
1078.00,0.0274
1075.00,0.0297
1072.00,0.0325
1069.00,0.0339
1066.00,0.0329
1063.00,0.0302
1060.00,0.0277
1057.00,0.0260
1054.00,0.0247
1051.00,0.0237
1048.00,0.0230
1045.00,0.0225
1042.00,0.0221
1039.00,0.0229
1036.00,0.0272
1033.00,0.0377
1030.00,0.0494
1027.00,0.0522
1024.00,0.0442
1021.00,0.0364
1018.00,0.0314
1015.00,0.0279
1012.00,0.0253
1009.00,0.0237
1006.00,0.0240
1003.00,0.0247
1000.00,0.0220
997.00,0.0190
994.00,0.0180
991.00,0.0177
988.00,0.0181
985.00,0.0192
982.00,0.0201
979.00,0.0201
976.00,0.0190
973.00,0.0182
970.00,0.0188
967.00,0.0204
964.00,0.0212
961.00,0.0197
958.00,0.0174
955.00,0.0159
952.00,0.0153
949.00,0.0155
946.00,0.0162
943.00,0.0167
940.00,0.0165
937.00,0.0154
934.00,0.0140
931.00,0.0128
928.00,0.0122
925.00,0.0124
922.00,0.0129
919.00,0.0140
916.00,0.0166
913.00,0.0214
910.00,0.0275
907.00,0.0314
904.00,0.0299
901.00,0.0241
898.00,0.0181
895.00,0.0145
892.00,0.0126
889.00,0.0114
886.00,0.0106
883.00,0.0100
880.00,0.0096
877.00,0.0093
874.00,0.0092
871.00,0.0090
868.00,0.0090
865.00,0.0091
862.00,0.0090
859.00,0.0091
856.00,0.0094
853.00,0.0101
850.00,0.0118
847.00,0.0141
844.00,0.0163
841.00,0.0169
838.00,0.0154
835.00,0.0125
832.00,0.0103
829.00,0.0093
826.00,0.0089
823.00,0.0088
820.00,0.0088
817.00,0.0089
814.00,0.0091
811.00,0.0093
808.00,0.0094
805.00,0.0096
802.00,0.0099
799.00,0.0107
796.00,0.0119
793.00,0.0135
790.00,0.0157
787.00,0.0185
784.00,0.0217
781.00,0.0262
778.00,0.0327
775.00,0.0422
772.00,0.0545
769.00,0.0697
766.00,0.0851
763.00,0.1000
760.00,0.1156
757.00,0.1279
754.00,0.1313
751.00,0.1303
748.00,0.1299
745.00,0.1195
742.00,0.0950
739.00,0.0706
736.00,0.0517
733.00,0.0360
730.00,0.0256
727.00,0.0210
724.00,0.0193
721.00,0.0186
718.00,0.0188
715.00,0.0210
712.00,0.0288
709.00,0.0501
706.00,0.0949
703.00,0.1672
700.00,0.2675
697.00,0.3861
694.00,0.4265
691.00,0.3025
688.00,0.1882
685.00,0.1307
682.00,0.1007
679.00,0.0827
676.00,0.0715
673.00,0.0639
670.00,0.0584
667.00,0.0527
664.00,0.0481
661.00,0.0431
658.00,0.0386
655.00,0.0350
652.00,0.0324
649.00,0.0304
646.00,0.0288
643.00,0.0276
640.00,0.0275
637.00,0.0286
634.00,0.0300
631.00,0.0315
628.00,0.0328
625.00,0.0337
622.00,0.0351
619.00,0.0347
616.00,0.0322
613.00,0.0308
610.00,0.0298
607.00,0.0289
604.00,0.0287
601.00,0.0292
598.00,0.0297
595.00,0.0304
592.00,0.0313
589.00,0.0322
586.00,0.0337
583.00,0.0354
580.00,0.0382
577.00,0.0424
574.00,0.0471
571.00,0.0523
568.00,0.0574
565.00,0.0622
562.00,0.0672
559.00,0.0723
556.00,0.0775
553.00,0.0833
550.00,0.0909
547.00,0.1008
544.00,0.1135
541.00,0.1263
538.00,0.1327
535.00,0.1261
532.00,0.1094
529.00,0.0906
526.00,0.0743
523.00,0.0626
520.00,0.0551
517.00,0.0499
514.00,0.0456
511.00,0.0417
508.00,0.0380
505.00,0.0359
502.00,0.0335
499.00,0.0308
496.00,0.0296
493.00,0.0287
490.00,0.0270
487.00,0.0259
484.00,0.0257
481.00,0.0254
478.00,0.0246
475.00,0.0238
472.00,0.0243
469.00,0.0237
466.00,0.0226
463.00,0.0219
460.00,0.0212
457.00,0.0220
454.00,0.0215
451.00,0.0217
448.00,0.0205
445.00,0.0197
442.00,0.0193
439.00,0.0190
436.00,0.0191
433.00,0.0194
430.00,0.0191
427.00,0.0178
424.00,0.0180
421.00,0.0171
418.00,0.0166
415.00,0.0166
412.00,0.0174
409.00,0.0192
406.00,0.0191
403.00,0.0191
400.00,0.0147