File: FTIR/Mary/2025_10_03_Polystyrene_PostScan_Calibration_3.csv
Created as New Dataset,Sample 182 By YargerLab Date Friday, October 03 2025
cm-1,A
4000.00,0.0017
3997.00,0.0017
3994.00,0.0017
3991.00,0.0017
3988.00,0.0017
3985.00,0.0017
3982.00,0.0017
3979.00,0.0017
3976.00,0.0017
3973.00,0.0017
3970.00,0.0017
3967.00,0.0017
3964.00,0.0017
3961.00,0.0017
3958.00,0.0017
3955.00,0.0017
3952.00,0.0017
3949.00,0.0016
3946.00,0.0016
3943.00,0.0017
3940.00,0.0017
3937.00,0.0017
3934.00,0.0017
3931.00,0.0017
3928.00,0.0017
3925.00,0.0017
3922.00,0.0017
3919.00,0.0016
3916.00,0.0016
3913.00,0.0017
3910.00,0.0017
3907.00,0.0017
3904.00,0.0016
3901.00,0.0015
3898.00,0.0016
3895.00,0.0016
3892.00,0.0017
3889.00,0.0017
3886.00,0.0016
3883.00,0.0016
3880.00,0.0016
3877.00,0.0017
3874.00,0.0017
3871.00,0.0017
3868.00,0.0017
3865.00,0.0016
3862.00,0.0016
3859.00,0.0016
3856.00,0.0019
3853.00,0.0018
3850.00,0.0016
3847.00,0.0016
3844.00,0.0016
3841.00,0.0017
3838.00,0.0017
3835.00,0.0017
3832.00,0.0016
3829.00,0.0016
3826.00,0.0016
3823.00,0.0016
3820.00,0.0017
3817.00,0.0016
3814.00,0.0017
3811.00,0.0017
3808.00,0.0016
3805.00,0.0017
3802.00,0.0017
3799.00,0.0017
3796.00,0.0016
3793.00,0.0017
3790.00,0.0017
3787.00,0.0017
3784.00,0.0017
3781.00,0.0017
3778.00,0.0017
3775.00,0.0018
3772.00,0.0017
3769.00,0.0017
3766.00,0.0016
3763.00,0.0017
3760.00,0.0016
3757.00,0.0016
3754.00,0.0016
3751.00,0.0016
3748.00,0.0016
3745.00,0.0016
3742.00,0.0016
3739.00,0.0015
3736.00,0.0015
3733.00,0.0015
3730.00,0.0015
3727.00,0.0016
3724.00,0.0016
3721.00,0.0015
3718.00,0.0015
3715.00,0.0015
3712.00,0.0014
3709.00,0.0014
3706.00,0.0015
3703.00,0.0016
3700.00,0.0016
3697.00,0.0016
3694.00,0.0016
3691.00,0.0016
3688.00,0.0015
3685.00,0.0015
3682.00,0.0015
3679.00,0.0016
3676.00,0.0015
3673.00,0.0015
3670.00,0.0014
3667.00,0.0016
3664.00,0.0016
3661.00,0.0017
3658.00,0.0017
3655.00,0.0018
3652.00,0.0017
3649.00,0.0015
3646.00,0.0015
3643.00,0.0016
3640.00,0.0016
3637.00,0.0016
3634.00,0.0016
3631.00,0.0016
3628.00,0.0016
3625.00,0.0015
3622.00,0.0016
3619.00,0.0017
3616.00,0.0016
3613.00,0.0016
3610.00,0.0016
3607.00,0.0015
3604.00,0.0016
3601.00,0.0016
3598.00,0.0016
3595.00,0.0017
3592.00,0.0017
3589.00,0.0016
3586.00,0.0017
3583.00,0.0017
3580.00,0.0017
3577.00,0.0017
3574.00,0.0018
3571.00,0.0018
3568.00,0.0017
3565.00,0.0018
3562.00,0.0018
3559.00,0.0019
3556.00,0.0019
3553.00,0.0019
3550.00,0.0019
3547.00,0.0019
3544.00,0.0019
3541.00,0.0020
3538.00,0.0020
3535.00,0.0021
3532.00,0.0020
3529.00,0.0020
3526.00,0.0020
3523.00,0.0021
3520.00,0.0021
3517.00,0.0022
3514.00,0.0023
3511.00,0.0023
3508.00,0.0023
3505.00,0.0022
3502.00,0.0023
3499.00,0.0023
3496.00,0.0023
3493.00,0.0024
3490.00,0.0024
3487.00,0.0024
3484.00,0.0025
3481.00,0.0025
3478.00,0.0025
3475.00,0.0025
3472.00,0.0026
3469.00,0.0026
3466.00,0.0026
3463.00,0.0026
3460.00,0.0027
3457.00,0.0027
3454.00,0.0027
3451.00,0.0027
3448.00,0.0027
3445.00,0.0027
3442.00,0.0028
3439.00,0.0028
3436.00,0.0028
3433.00,0.0028
3430.00,0.0028
3427.00,0.0028
3424.00,0.0028
3421.00,0.0028
3418.00,0.0029
3415.00,0.0028
3412.00,0.0029
3409.00,0.0029
3406.00,0.0029
3403.00,0.0030
3400.00,0.0029
3397.00,0.0030
3394.00,0.0030
3391.00,0.0030
3388.00,0.0030
3385.00,0.0030
3382.00,0.0030
3379.00,0.0031
3376.00,0.0031
3373.00,0.0030
3370.00,0.0031
3367.00,0.0031
3364.00,0.0031
3361.00,0.0032
3358.00,0.0032
3355.00,0.0032
3352.00,0.0032
3349.00,0.0033
3346.00,0.0033
3343.00,0.0033
3340.00,0.0033
3337.00,0.0033
3334.00,0.0034
3331.00,0.0034
3328.00,0.0035
3325.00,0.0035
3322.00,0.0035
3319.00,0.0035
3316.00,0.0035
3313.00,0.0035
3310.00,0.0036
3307.00,0.0036
3304.00,0.0036
3301.00,0.0036
3298.00,0.0035
3295.00,0.0035
3292.00,0.0036
3289.00,0.0036
3286.00,0.0036
3283.00,0.0036
3280.00,0.0036
3277.00,0.0036
3274.00,0.0036
3271.00,0.0036
3268.00,0.0036
3265.00,0.0036
3262.00,0.0035
3259.00,0.0034
3256.00,0.0034
3253.00,0.0034
3250.00,0.0033
3247.00,0.0034
3244.00,0.0033
3241.00,0.0032
3238.00,0.0032
3235.00,0.0032
3232.00,0.0031
3229.00,0.0032
3226.00,0.0032
3223.00,0.0031
3220.00,0.0031
3217.00,0.0031
3214.00,0.0031
3211.00,0.0031
3208.00,0.0031
3205.00,0.0032
3202.00,0.0032
3199.00,0.0031
3196.00,0.0031
3193.00,0.0030
3190.00,0.0031
3187.00,0.0030
3184.00,0.0029
3181.00,0.0029
3178.00,0.0029
3175.00,0.0029
3172.00,0.0028
3169.00,0.0029
3166.00,0.0030
3163.00,0.0029
3160.00,0.0029
3157.00,0.0028
3154.00,0.0028
3151.00,0.0028
3148.00,0.0027
3145.00,0.0027
3142.00,0.0027
3139.00,0.0026
3136.00,0.0027
3133.00,0.0026
3130.00,0.0027
3127.00,0.0027
3124.00,0.0027
3121.00,0.0027
3118.00,0.0029
3115.00,0.0031
3112.00,0.0034
3109.00,0.0039
3106.00,0.0043
3103.00,0.0045
3100.00,0.0043
3097.00,0.0043
3094.00,0.0046
3091.00,0.0054
3088.00,0.0068
3085.00,0.0083
3082.00,0.0088
3079.00,0.0081
3076.00,0.0072
3073.00,0.0069
3070.00,0.0074
3067.00,0.0086
3064.00,0.0103
3061.00,0.0114
3058.00,0.0111
3055.00,0.0097
3052.00,0.0082
3049.00,0.0072
3046.00,0.0067
3043.00,0.0070
3040.00,0.0077
3037.00,0.0092
3034.00,0.0117
3031.00,0.0154
3028.00,0.0191
3025.00,0.0203
3022.00,0.0176
3019.00,0.0130
3016.00,0.0094
3013.00,0.0074
3010.00,0.0065
3007.00,0.0066
3004.00,0.0070
3001.00,0.0071
2998.00,0.0064
2995.00,0.0054
2992.00,0.0048
2989.00,0.0047
2986.00,0.0047
2983.00,0.0047
2980.00,0.0048
2977.00,0.0051
2974.00,0.0053
2971.00,0.0056
2968.00,0.0060
2965.00,0.0066
2962.00,0.0072
2959.00,0.0079
2956.00,0.0086
2953.00,0.0093
2950.00,0.0103
2947.00,0.0114
2944.00,0.0129
2941.00,0.0148
2938.00,0.0171
2935.00,0.0197
2932.00,0.0224
2929.00,0.0248
2926.00,0.0265
2923.00,0.0273
2920.00,0.0272
2917.00,0.0262
2914.00,0.0244
2911.00,0.0224
2908.00,0.0204
2905.00,0.0184
2902.00,0.0164
2899.00,0.0145
2896.00,0.0128
2893.00,0.0115
2890.00,0.0106
2887.00,0.0098
2884.00,0.0092
2881.00,0.0087
2878.00,0.0082
2875.00,0.0078
2872.00,0.0077
2869.00,0.0077
2866.00,0.0080
2863.00,0.0086
2860.00,0.0097
2857.00,0.0110
2854.00,0.0121
2851.00,0.0128
2848.00,0.0125
2845.00,0.0113
2842.00,0.0096
2839.00,0.0078
2836.00,0.0062
2833.00,0.0052
2830.00,0.0045
2827.00,0.0041
2824.00,0.0039
2821.00,0.0037
2818.00,0.0037
2815.00,0.0036
2812.00,0.0035
2809.00,0.0034
2806.00,0.0034
2803.00,0.0033
2800.00,0.0032
2797.00,0.0032
2794.00,0.0032
2791.00,0.0031
2788.00,0.0031
2785.00,0.0031
2782.00,0.0031
2779.00,0.0031
2776.00,0.0030
2773.00,0.0030
2770.00,0.0029
2767.00,0.0029
2764.00,0.0029
2761.00,0.0028
2758.00,0.0028
2755.00,0.0028
2752.00,0.0028
2749.00,0.0028
2746.00,0.0027
2743.00,0.0027
2740.00,0.0027
2737.00,0.0027
2734.00,0.0028
2731.00,0.0028
2728.00,0.0028
2725.00,0.0028
2722.00,0.0028
2719.00,0.0028
2716.00,0.0028
2713.00,0.0027
2710.00,0.0027
2707.00,0.0027
2704.00,0.0027
2701.00,0.0027
2698.00,0.0027
2695.00,0.0027
2692.00,0.0027
2689.00,0.0027
2686.00,0.0027
2683.00,0.0027
2680.00,0.0027
2677.00,0.0027
2674.00,0.0027
2671.00,0.0027
2668.00,0.0027
2665.00,0.0029
2662.00,0.0030
2659.00,0.0031
2656.00,0.0031
2653.00,0.0031
2650.00,0.0031
2647.00,0.0032
2644.00,0.0032
2641.00,0.0031
2638.00,0.0031
2635.00,0.0031
2632.00,0.0032
2629.00,0.0031
2626.00,0.0030
2623.00,0.0030
2620.00,0.0029
2617.00,0.0028
2614.00,0.0029
2611.00,0.0029
2608.00,0.0029
2605.00,0.0029
2602.00,0.0029
2599.00,0.0029
2596.00,0.0028
2593.00,0.0027
2590.00,0.0027
2587.00,0.0026
2584.00,0.0027
2581.00,0.0026
2578.00,0.0026
2575.00,0.0026
2572.00,0.0025
2569.00,0.0025
2566.00,0.0025
2563.00,0.0025
2560.00,0.0025
2557.00,0.0024
2554.00,0.0024
2551.00,0.0024
2548.00,0.0024
2545.00,0.0024
2542.00,0.0024
2539.00,0.0023
2536.00,0.0023
2533.00,0.0023
2530.00,0.0023
2527.00,0.0023
2524.00,0.0022
2521.00,0.0023
2518.00,0.0023
2515.00,0.0022
2512.00,0.0022
2509.00,0.0022
2506.00,0.0021
2503.00,0.0022
2500.00,0.0021
2497.00,0.0022
2494.00,0.0021
2491.00,0.0022
2488.00,0.0022
2485.00,0.0022
2482.00,0.0022
2479.00,0.0021
2476.00,0.0021
2473.00,0.0021
2470.00,0.0020
2467.00,0.0021
2464.00,0.0020
2461.00,0.0021
2458.00,0.0021
2455.00,0.0022
2452.00,0.0021
2449.00,0.0020
2446.00,0.0020
2443.00,0.0020
2440.00,0.0020
2437.00,0.0019
2434.00,0.0019
2431.00,0.0018
2428.00,0.0018
2425.00,0.0018
2422.00,0.0017
2419.00,0.0017
2416.00,0.0017
2413.00,0.0018
2410.00,0.0017
2407.00,0.0016
2404.00,0.0016
2401.00,0.0016
2398.00,0.0016
2395.00,0.0016
2392.00,0.0015
2389.00,0.0016
2386.00,0.0015
2383.00,0.0015
2380.00,0.0016
2377.00,0.0015
2374.00,0.0016
2371.00,0.0016
2368.00,0.0015
2365.00,0.0016
2362.00,0.0017
2359.00,0.0018
2356.00,0.0018
2353.00,0.0016
2350.00,0.0018
2347.00,0.0021
2344.00,0.0021
2341.00,0.0022
2338.00,0.0023
2335.00,0.0023
2332.00,0.0022
2329.00,0.0024
2326.00,0.0033
2323.00,0.0032
2320.00,0.0028
2317.00,0.0026
2314.00,0.0027
2311.00,0.0025
2308.00,0.0024
2305.00,0.0024
2302.00,0.0024
2299.00,0.0024
2296.00,0.0024
2293.00,0.0027
2290.00,0.0028
2287.00,0.0029
2284.00,0.0027
2281.00,0.0025
2278.00,0.0024
2275.00,0.0023
2272.00,0.0023
2269.00,0.0023
2266.00,0.0022
2263.00,0.0021
2260.00,0.0022
2257.00,0.0022
2254.00,0.0019
2251.00,0.0020
2248.00,0.0020
2245.00,0.0020
2242.00,0.0020
2239.00,0.0019
2236.00,0.0018
2233.00,0.0019
2230.00,0.0018
2227.00,0.0019
2224.00,0.0019
2221.00,0.0018
2218.00,0.0018
2215.00,0.0018
2212.00,0.0016
2209.00,0.0019
2206.00,0.0019
2203.00,0.0019
2200.00,0.0019
2197.00,0.0019
2194.00,0.0020
2191.00,0.0021
2188.00,0.0021
2185.00,0.0018
2182.00,0.0015
2179.00,0.0015
2176.00,0.0012
2173.00,0.0014
2170.00,0.0025
2167.00,0.0027
2164.00,0.0031
2161.00,0.0014
2158.00,-0.0013
2155.00,-0.0008
2152.00,-0.0002
2149.00,-0.0004
2146.00,-0.0003
2143.00,-0.0001
2140.00,-0.0001
2137.00,-0.0003
2134.00,-0.0006
2131.00,0.0000
2128.00,0.0004
2125.00,0.0007
2122.00,0.0009
2119.00,0.0011
2116.00,0.0015
2113.00,0.0015
2110.00,0.0015
2107.00,0.0013
2104.00,0.0014
2101.00,0.0015
2098.00,0.0012
2095.00,0.0009
2092.00,0.0011
2089.00,0.0015
2086.00,0.0014
2083.00,0.0015
2080.00,0.0017
2077.00,0.0015
2074.00,0.0016
2071.00,0.0016
2068.00,0.0015
2065.00,0.0012
2062.00,0.0012
2059.00,0.0012
2056.00,0.0012
2053.00,0.0020
2050.00,0.0022
2047.00,0.0017
2044.00,0.0014
2041.00,0.0013
2038.00,0.0015
2035.00,0.0010
2032.00,0.0009
2029.00,0.0009
2026.00,0.0008
2023.00,0.0006
2020.00,0.0006
2017.00,0.0006
2014.00,0.0009
2011.00,0.0009
2008.00,0.0002
2005.00,0.0003
2002.00,0.0006
1999.00,0.0008
1996.00,0.0009
1993.00,0.0013
1990.00,0.0017
1987.00,0.0018
1984.00,0.0023
1981.00,0.0028
1978.00,0.0012
1975.00,0.0007
1972.00,0.0007
1969.00,0.0014
1966.00,0.0016
1963.00,0.0016
1960.00,0.0017
1957.00,0.0020
1954.00,0.0022
1951.00,0.0023
1948.00,0.0030
1945.00,0.0032
1942.00,0.0032
1939.00,0.0031
1936.00,0.0026
1933.00,0.0022
1930.00,0.0017
1927.00,0.0014
1924.00,0.0015
1921.00,0.0015
1918.00,0.0014
1915.00,0.0013
1912.00,0.0014
1909.00,0.0014
1906.00,0.0015
1903.00,0.0015
1900.00,0.0016
1897.00,0.0017
1894.00,0.0020
1891.00,0.0022
1888.00,0.0024
1885.00,0.0026
1882.00,0.0028
1879.00,0.0029
1876.00,0.0031
1873.00,0.0033
1870.00,0.0032
1867.00,0.0032
1864.00,0.0029
1861.00,0.0026
1858.00,0.0023
1855.00,0.0020
1852.00,0.0018
1849.00,0.0017
1846.00,0.0015
1843.00,0.0015
1840.00,0.0014
1837.00,0.0015
1834.00,0.0016
1831.00,0.0017
1828.00,0.0019
1825.00,0.0021
1822.00,0.0023
1819.00,0.0023
1816.00,0.0025
1813.00,0.0029
1810.00,0.0033
1807.00,0.0035
1804.00,0.0037
1801.00,0.0037
1798.00,0.0035
1795.00,0.0032
1792.00,0.0028
1789.00,0.0025
1786.00,0.0024
1783.00,0.0023
1780.00,0.0024
1777.00,0.0024
1774.00,0.0024
1771.00,0.0024
1768.00,0.0025
1765.00,0.0027
1762.00,0.0030
1759.00,0.0034
1756.00,0.0039
1753.00,0.0043
1750.00,0.0049
1747.00,0.0055
1744.00,0.0061
1741.00,0.0066
1738.00,0.0069
1735.00,0.0069
1732.00,0.0068
1729.00,0.0065
1726.00,0.0060
1723.00,0.0054
1720.00,0.0049
1717.00,0.0044
1714.00,0.0041
1711.00,0.0041
1708.00,0.0041
1705.00,0.0042
1702.00,0.0041
1699.00,0.0041
1696.00,0.0044
1693.00,0.0047
1690.00,0.0051
1687.00,0.0053
1684.00,0.0057
1681.00,0.0060
1678.00,0.0064
1675.00,0.0067
1672.00,0.0068
1669.00,0.0072
1666.00,0.0075
1663.00,0.0076
1660.00,0.0077
1657.00,0.0078
1654.00,0.0078
1651.00,0.0077
1648.00,0.0076
1645.00,0.0075
1642.00,0.0075
1639.00,0.0073
1636.00,0.0069
1633.00,0.0068
1630.00,0.0067
1627.00,0.0065
1624.00,0.0062
1621.00,0.0059
1618.00,0.0059
1615.00,0.0062
1612.00,0.0069
1609.00,0.0090
1606.00,0.0139
1603.00,0.0196
1600.00,0.0203
1597.00,0.0152
1594.00,0.0108
1591.00,0.0087
1588.00,0.0082
1585.00,0.0097
1582.00,0.0098
1579.00,0.0076
1576.00,0.0061
1573.00,0.0054
1570.00,0.0051
1567.00,0.0050
1564.00,0.0050
1561.00,0.0050
1558.00,0.0051
1555.00,0.0056
1552.00,0.0060
1549.00,0.0066
1546.00,0.0069
1543.00,0.0069
1540.00,0.0069
1537.00,0.0069
1534.00,0.0067
1531.00,0.0064
1528.00,0.0062
1525.00,0.0059
1522.00,0.0058
1519.00,0.0058
1516.00,0.0059
1513.00,0.0059
1510.00,0.0060
1507.00,0.0061
1504.00,0.0072
1501.00,0.0095
1498.00,0.0172
1495.00,0.0379
1492.00,0.0456
1489.00,0.0285
1486.00,0.0164
1483.00,0.0110
1480.00,0.0084
1477.00,0.0072
1474.00,0.0067
1471.00,0.0070
1468.00,0.0076
1465.00,0.0083
1462.00,0.0096
1459.00,0.0129
1456.00,0.0296
1453.00,0.0455
1450.00,0.0443
1447.00,0.0347
1444.00,0.0279
1441.00,0.0222
1438.00,0.0179
1435.00,0.0134
1432.00,0.0107
1429.00,0.0088
1426.00,0.0076
1423.00,0.0070
1420.00,0.0067
1417.00,0.0065
1414.00,0.0064
1411.00,0.0063
1408.00,0.0062
1405.00,0.0061
1402.00,0.0061
1399.00,0.0062
1396.00,0.0065
1393.00,0.0073
1390.00,0.0081
1387.00,0.0092
1384.00,0.0103
1381.00,0.0113
1378.00,0.0122
1375.00,0.0128
1372.00,0.0128
1369.00,0.0125
1366.00,0.0121
1363.00,0.0116
1360.00,0.0111
1357.00,0.0108
1354.00,0.0105
1351.00,0.0105
1348.00,0.0104
1345.00,0.0100
1342.00,0.0097
1339.00,0.0096
1336.00,0.0097
1333.00,0.0102
1330.00,0.0107
1327.00,0.0108
1324.00,0.0104
1321.00,0.0102
1318.00,0.0103
1315.00,0.0105
1312.00,0.0106
1309.00,0.0104
1306.00,0.0101
1303.00,0.0097
1300.00,0.0093
1297.00,0.0091
1294.00,0.0091
1291.00,0.0089
1288.00,0.0087
1285.00,0.0085
1282.00,0.0084
1279.00,0.0082
1276.00,0.0081
1273.00,0.0080
1270.00,0.0079
1267.00,0.0078
1264.00,0.0077
1261.00,0.0077
1258.00,0.0076
1255.00,0.0077
1252.00,0.0077
1249.00,0.0079
1246.00,0.0079
1243.00,0.0078
1240.00,0.0077
1237.00,0.0077
1234.00,0.0076
1231.00,0.0077
1228.00,0.0077
1225.00,0.0078
1222.00,0.0078
1219.00,0.0077
1216.00,0.0077
1213.00,0.0079
1210.00,0.0080
1207.00,0.0083
1204.00,0.0088
1201.00,0.0093
1198.00,0.0096
1195.00,0.0098
1192.00,0.0099
1189.00,0.0102
1186.00,0.0112
1183.00,0.0126
1180.00,0.0128
1177.00,0.0112
1174.00,0.0098
1171.00,0.0092
1168.00,0.0090
1165.00,0.0090
1162.00,0.0093
1159.00,0.0104
1156.00,0.0119
1153.00,0.0115
1150.00,0.0091
1147.00,0.0073
1144.00,0.0065
1141.00,0.0059
1138.00,0.0055
1135.00,0.0054
1132.00,0.0052
1129.00,0.0052
1126.00,0.0051
1123.00,0.0050
1120.00,0.0051
1117.00,0.0055
1114.00,0.0059
1111.00,0.0059
1108.00,0.0059
1105.00,0.0061
1102.00,0.0063
1099.00,0.0067
1096.00,0.0070
1093.00,0.0074
1090.00,0.0080
1087.00,0.0087
1084.00,0.0096
1081.00,0.0106
1078.00,0.0116
1075.00,0.0130
1072.00,0.0145
1069.00,0.0153
1066.00,0.0147
1063.00,0.0131
1060.00,0.0116
1057.00,0.0107
1054.00,0.0102
1051.00,0.0098
1048.00,0.0094
1045.00,0.0092
1042.00,0.0092
1039.00,0.0099
1036.00,0.0126
1033.00,0.0182
1030.00,0.0236
1027.00,0.0246
1024.00,0.0206
1021.00,0.0169
1018.00,0.0146
1015.00,0.0131
1012.00,0.0120
1009.00,0.0115
1006.00,0.0117
1003.00,0.0121
1000.00,0.0108
997.00,0.0096
994.00,0.0091
991.00,0.0091
988.00,0.0095
985.00,0.0102
982.00,0.0107
979.00,0.0108
976.00,0.0104
973.00,0.0101
970.00,0.0104
967.00,0.0112
964.00,0.0115
961.00,0.0109
958.00,0.0096
955.00,0.0087
952.00,0.0085
949.00,0.0086
946.00,0.0089
943.00,0.0091
940.00,0.0090
937.00,0.0085
934.00,0.0077
931.00,0.0072
928.00,0.0071
925.00,0.0073
922.00,0.0077
919.00,0.0083
916.00,0.0098
913.00,0.0123
910.00,0.0152
907.00,0.0171
904.00,0.0162
901.00,0.0133
898.00,0.0103
895.00,0.0084
892.00,0.0074
889.00,0.0069
886.00,0.0066
883.00,0.0062
880.00,0.0059
877.00,0.0058
874.00,0.0056
871.00,0.0054
868.00,0.0054
865.00,0.0054
862.00,0.0053
859.00,0.0054
856.00,0.0055
853.00,0.0060
850.00,0.0069
847.00,0.0081
844.00,0.0091
841.00,0.0095
838.00,0.0088
835.00,0.0075
832.00,0.0062
829.00,0.0056
826.00,0.0053
823.00,0.0052
820.00,0.0052
817.00,0.0054
814.00,0.0054
811.00,0.0055
808.00,0.0058
805.00,0.0058
802.00,0.0062
799.00,0.0065
796.00,0.0072
793.00,0.0082
790.00,0.0094
787.00,0.0108
784.00,0.0127
781.00,0.0152
778.00,0.0187
775.00,0.0237
772.00,0.0303
769.00,0.0381
766.00,0.0459
763.00,0.0535
760.00,0.0614
757.00,0.0677
754.00,0.0695
751.00,0.0688
748.00,0.0680
745.00,0.0625
742.00,0.0506
739.00,0.0385
736.00,0.0288
733.00,0.0203
730.00,0.0145
727.00,0.0116
724.00,0.0107
721.00,0.0105
718.00,0.0108
715.00,0.0125
712.00,0.0176
709.00,0.0304
706.00,0.0552
703.00,0.0923
700.00,0.1376
697.00,0.1818
694.00,0.1931
691.00,0.1455
688.00,0.0953
685.00,0.0679
682.00,0.0529
679.00,0.0438
676.00,0.0380
673.00,0.0341
670.00,0.0317
667.00,0.0287
664.00,0.0258
661.00,0.0233
658.00,0.0208
655.00,0.0190
652.00,0.0175
649.00,0.0161
646.00,0.0153
643.00,0.0147
640.00,0.0146
637.00,0.0152
634.00,0.0160
631.00,0.0167
628.00,0.0173
625.00,0.0177
622.00,0.0186
619.00,0.0185
616.00,0.0172
613.00,0.0166
610.00,0.0163
607.00,0.0157
604.00,0.0154
601.00,0.0158
598.00,0.0160
595.00,0.0164
592.00,0.0171
589.00,0.0177
586.00,0.0182
583.00,0.0191
580.00,0.0206
577.00,0.0228
574.00,0.0255
571.00,0.0283
568.00,0.0310
565.00,0.0337
562.00,0.0364
559.00,0.0388
556.00,0.0416
553.00,0.0450
550.00,0.0491
547.00,0.0543
544.00,0.0610
541.00,0.0674
538.00,0.0702
535.00,0.0668
532.00,0.0584
529.00,0.0488
526.00,0.0405
523.00,0.0341
520.00,0.0301
517.00,0.0271
514.00,0.0253
511.00,0.0235
508.00,0.0216
505.00,0.0203
502.00,0.0190
499.00,0.0179
496.00,0.0171
493.00,0.0162
490.00,0.0155
487.00,0.0151
484.00,0.0148
481.00,0.0146
478.00,0.0141
475.00,0.0139
472.00,0.0140
469.00,0.0141
466.00,0.0137
463.00,0.0127
460.00,0.0127
457.00,0.0125
454.00,0.0124
451.00,0.0118
448.00,0.0119
445.00,0.0114
442.00,0.0103
439.00,0.0111
436.00,0.0118
433.00,0.0107
430.00,0.0106
427.00,0.0109
424.00,0.0109
421.00,0.0117
418.00,0.0089
415.00,0.0102
412.00,0.0101
409.00,0.0121
406.00,0.0113
403.00,0.0099
400.00,0.0105