File: FTIR/Mary/2025_11_16_Polystyrene_Scan1.csv
Created as New Dataset,Sample 369 By YargerLab Date Friday, November 14 2025
cm-1,A
4000.00,0.0028
3997.00,0.0028
3994.00,0.0028
3991.00,0.0027
3988.00,0.0027
3985.00,0.0027
3982.00,0.0028
3979.00,0.0028
3976.00,0.0028
3973.00,0.0028
3970.00,0.0028
3967.00,0.0028
3964.00,0.0028
3961.00,0.0027
3958.00,0.0027
3955.00,0.0027
3952.00,0.0028
3949.00,0.0028
3946.00,0.0027
3943.00,0.0027
3940.00,0.0027
3937.00,0.0027
3934.00,0.0028
3931.00,0.0028
3928.00,0.0028
3925.00,0.0028
3922.00,0.0028
3919.00,0.0028
3916.00,0.0028
3913.00,0.0027
3910.00,0.0027
3907.00,0.0028
3904.00,0.0028
3901.00,0.0028
3898.00,0.0027
3895.00,0.0027
3892.00,0.0028
3889.00,0.0028
3886.00,0.0028
3883.00,0.0028
3880.00,0.0028
3877.00,0.0028
3874.00,0.0028
3871.00,0.0029
3868.00,0.0029
3865.00,0.0029
3862.00,0.0028
3859.00,0.0028
3856.00,0.0030
3853.00,0.0031
3850.00,0.0030
3847.00,0.0028
3844.00,0.0028
3841.00,0.0029
3838.00,0.0030
3835.00,0.0030
3832.00,0.0029
3829.00,0.0028
3826.00,0.0028
3823.00,0.0030
3820.00,0.0030
3817.00,0.0030
3814.00,0.0029
3811.00,0.0028
3808.00,0.0029
3805.00,0.0029
3802.00,0.0029
3799.00,0.0029
3796.00,0.0029
3793.00,0.0028
3790.00,0.0027
3787.00,0.0027
3784.00,0.0027
3781.00,0.0028
3778.00,0.0027
3775.00,0.0028
3772.00,0.0028
3769.00,0.0028
3766.00,0.0029
3763.00,0.0029
3760.00,0.0028
3757.00,0.0028
3754.00,0.0030
3751.00,0.0032
3748.00,0.0031
3745.00,0.0031
3742.00,0.0029
3739.00,0.0028
3736.00,0.0028
3733.00,0.0028
3730.00,0.0028
3727.00,0.0027
3724.00,0.0027
3721.00,0.0027
3718.00,0.0027
3715.00,0.0028
3712.00,0.0028
3709.00,0.0028
3706.00,0.0027
3703.00,0.0028
3700.00,0.0028
3697.00,0.0028
3694.00,0.0027
3691.00,0.0029
3688.00,0.0030
3685.00,0.0029
3682.00,0.0028
3679.00,0.0029
3676.00,0.0030
3673.00,0.0031
3670.00,0.0030
3667.00,0.0030
3664.00,0.0029
3661.00,0.0029
3658.00,0.0031
3655.00,0.0031
3652.00,0.0032
3649.00,0.0032
3646.00,0.0034
3643.00,0.0032
3640.00,0.0031
3637.00,0.0031
3634.00,0.0032
3631.00,0.0034
3628.00,0.0035
3625.00,0.0035
3622.00,0.0035
3619.00,0.0036
3616.00,0.0036
3613.00,0.0036
3610.00,0.0037
3607.00,0.0036
3604.00,0.0036
3601.00,0.0037
3598.00,0.0037
3595.00,0.0038
3592.00,0.0039
3589.00,0.0040
3586.00,0.0040
3583.00,0.0041
3580.00,0.0041
3577.00,0.0041
3574.00,0.0042
3571.00,0.0042
3568.00,0.0044
3565.00,0.0044
3562.00,0.0045
3559.00,0.0046
3556.00,0.0046
3553.00,0.0047
3550.00,0.0048
3547.00,0.0049
3544.00,0.0049
3541.00,0.0050
3538.00,0.0050
3535.00,0.0052
3532.00,0.0053
3529.00,0.0053
3526.00,0.0053
3523.00,0.0054
3520.00,0.0055
3517.00,0.0056
3514.00,0.0057
3511.00,0.0057
3508.00,0.0057
3505.00,0.0058
3502.00,0.0059
3499.00,0.0060
3496.00,0.0061
3493.00,0.0062
3490.00,0.0063
3487.00,0.0063
3484.00,0.0064
3481.00,0.0064
3478.00,0.0066
3475.00,0.0066
3472.00,0.0067
3469.00,0.0067
3466.00,0.0068
3463.00,0.0069
3460.00,0.0069
3457.00,0.0070
3454.00,0.0070
3451.00,0.0071
3448.00,0.0072
3445.00,0.0072
3442.00,0.0072
3439.00,0.0073
3436.00,0.0073
3433.00,0.0073
3430.00,0.0074
3427.00,0.0075
3424.00,0.0075
3421.00,0.0075
3418.00,0.0076
3415.00,0.0077
3412.00,0.0077
3409.00,0.0077
3406.00,0.0078
3403.00,0.0078
3400.00,0.0079
3397.00,0.0079
3394.00,0.0079
3391.00,0.0080
3388.00,0.0081
3385.00,0.0081
3382.00,0.0082
3379.00,0.0082
3376.00,0.0082
3373.00,0.0083
3370.00,0.0083
3367.00,0.0083
3364.00,0.0083
3361.00,0.0084
3358.00,0.0085
3355.00,0.0086
3352.00,0.0086
3349.00,0.0086
3346.00,0.0087
3343.00,0.0088
3340.00,0.0088
3337.00,0.0088
3334.00,0.0089
3331.00,0.0090
3328.00,0.0090
3325.00,0.0090
3322.00,0.0090
3319.00,0.0091
3316.00,0.0091
3313.00,0.0092
3310.00,0.0092
3307.00,0.0092
3304.00,0.0093
3301.00,0.0094
3298.00,0.0094
3295.00,0.0094
3292.00,0.0094
3289.00,0.0094
3286.00,0.0094
3283.00,0.0094
3280.00,0.0094
3277.00,0.0093
3274.00,0.0093
3271.00,0.0092
3268.00,0.0091
3265.00,0.0090
3262.00,0.0089
3259.00,0.0089
3256.00,0.0089
3253.00,0.0088
3250.00,0.0087
3247.00,0.0086
3244.00,0.0085
3241.00,0.0084
3238.00,0.0083
3235.00,0.0083
3232.00,0.0083
3229.00,0.0082
3226.00,0.0081
3223.00,0.0081
3220.00,0.0081
3217.00,0.0080
3214.00,0.0080
3211.00,0.0080
3208.00,0.0080
3205.00,0.0080
3202.00,0.0080
3199.00,0.0079
3196.00,0.0078
3193.00,0.0078
3190.00,0.0077
3187.00,0.0076
3184.00,0.0075
3181.00,0.0075
3178.00,0.0074
3175.00,0.0074
3172.00,0.0073
3169.00,0.0073
3166.00,0.0073
3163.00,0.0073
3160.00,0.0072
3157.00,0.0071
3154.00,0.0069
3151.00,0.0068
3148.00,0.0068
3145.00,0.0068
3142.00,0.0067
3139.00,0.0067
3136.00,0.0067
3133.00,0.0067
3130.00,0.0067
3127.00,0.0067
3124.00,0.0067
3121.00,0.0067
3118.00,0.0069
3115.00,0.0071
3112.00,0.0076
3109.00,0.0084
3106.00,0.0092
3103.00,0.0096
3100.00,0.0094
3097.00,0.0092
3094.00,0.0095
3091.00,0.0106
3088.00,0.0129
3085.00,0.0157
3082.00,0.0169
3079.00,0.0157
3076.00,0.0141
3073.00,0.0135
3070.00,0.0142
3067.00,0.0162
3064.00,0.0192
3061.00,0.0216
3058.00,0.0212
3055.00,0.0185
3052.00,0.0157
3049.00,0.0138
3046.00,0.0130
3043.00,0.0131
3040.00,0.0143
3037.00,0.0167
3034.00,0.0211
3031.00,0.0277
3028.00,0.0348
3025.00,0.0376
3022.00,0.0327
3019.00,0.0243
3016.00,0.0177
3013.00,0.0141
3010.00,0.0125
3007.00,0.0124
3004.00,0.0132
3001.00,0.0137
2998.00,0.0126
2995.00,0.0109
2992.00,0.0099
2989.00,0.0097
2986.00,0.0098
2983.00,0.0099
2980.00,0.0102
2977.00,0.0107
2974.00,0.0113
2971.00,0.0120
2968.00,0.0130
2965.00,0.0142
2962.00,0.0155
2959.00,0.0167
2956.00,0.0180
2953.00,0.0194
2950.00,0.0210
2947.00,0.0233
2944.00,0.0262
2941.00,0.0300
2938.00,0.0346
2935.00,0.0401
2932.00,0.0459
2929.00,0.0513
2926.00,0.0553
2923.00,0.0576
2920.00,0.0577
2917.00,0.0553
2914.00,0.0509
2911.00,0.0461
2908.00,0.0417
2905.00,0.0376
2902.00,0.0338
2899.00,0.0303
2896.00,0.0272
2893.00,0.0248
2890.00,0.0230
2887.00,0.0215
2884.00,0.0202
2881.00,0.0192
2878.00,0.0185
2875.00,0.0180
2872.00,0.0178
2869.00,0.0177
2866.00,0.0182
2863.00,0.0198
2860.00,0.0222
2857.00,0.0252
2854.00,0.0280
2851.00,0.0294
2848.00,0.0280
2845.00,0.0244
2842.00,0.0200
2839.00,0.0158
2836.00,0.0127
2833.00,0.0108
2830.00,0.0096
2827.00,0.0090
2824.00,0.0086
2821.00,0.0082
2818.00,0.0080
2815.00,0.0078
2812.00,0.0077
2809.00,0.0075
2806.00,0.0074
2803.00,0.0072
2800.00,0.0071
2797.00,0.0069
2794.00,0.0068
2791.00,0.0067
2788.00,0.0066
2785.00,0.0065
2782.00,0.0065
2779.00,0.0064
2776.00,0.0063
2773.00,0.0062
2770.00,0.0061
2767.00,0.0061
2764.00,0.0061
2761.00,0.0060
2758.00,0.0060
2755.00,0.0059
2752.00,0.0059
2749.00,0.0058
2746.00,0.0058
2743.00,0.0058
2740.00,0.0058
2737.00,0.0057
2734.00,0.0058
2731.00,0.0058
2728.00,0.0058
2725.00,0.0057
2722.00,0.0058
2719.00,0.0057
2716.00,0.0057
2713.00,0.0057
2710.00,0.0056
2707.00,0.0056
2704.00,0.0056
2701.00,0.0056
2698.00,0.0056
2695.00,0.0056
2692.00,0.0055
2689.00,0.0055
2686.00,0.0055
2683.00,0.0055
2680.00,0.0055
2677.00,0.0055
2674.00,0.0055
2671.00,0.0055
2668.00,0.0056
2665.00,0.0056
2662.00,0.0057
2659.00,0.0058
2656.00,0.0058
2653.00,0.0058
2650.00,0.0058
2647.00,0.0059
2644.00,0.0059
2641.00,0.0058
2638.00,0.0058
2635.00,0.0059
2632.00,0.0059
2629.00,0.0058
2626.00,0.0057
2623.00,0.0056
2620.00,0.0055
2617.00,0.0055
2614.00,0.0054
2611.00,0.0054
2608.00,0.0054
2605.00,0.0055
2602.00,0.0055
2599.00,0.0054
2596.00,0.0052
2593.00,0.0051
2590.00,0.0051
2587.00,0.0051
2584.00,0.0052
2581.00,0.0051
2578.00,0.0050
2575.00,0.0049
2572.00,0.0048
2569.00,0.0048
2566.00,0.0048
2563.00,0.0048
2560.00,0.0047
2557.00,0.0047
2554.00,0.0047
2551.00,0.0047
2548.00,0.0048
2545.00,0.0047
2542.00,0.0046
2539.00,0.0046
2536.00,0.0046
2533.00,0.0046
2530.00,0.0046
2527.00,0.0046
2524.00,0.0046
2521.00,0.0046
2518.00,0.0046
2515.00,0.0045
2512.00,0.0046
2509.00,0.0046
2506.00,0.0046
2503.00,0.0045
2500.00,0.0045
2497.00,0.0045
2494.00,0.0045
2491.00,0.0044
2488.00,0.0044
2485.00,0.0043
2482.00,0.0043
2479.00,0.0044
2476.00,0.0043
2473.00,0.0042
2470.00,0.0042
2467.00,0.0042
2464.00,0.0041
2461.00,0.0041
2458.00,0.0041
2455.00,0.0042
2452.00,0.0041
2449.00,0.0041
2446.00,0.0040
2443.00,0.0040
2440.00,0.0040
2437.00,0.0039
2434.00,0.0039
2431.00,0.0038
2428.00,0.0038
2425.00,0.0038
2422.00,0.0038
2419.00,0.0037
2416.00,0.0037
2413.00,0.0037
2410.00,0.0037
2407.00,0.0036
2404.00,0.0035
2401.00,0.0036
2398.00,0.0037
2395.00,0.0036
2392.00,0.0036
2389.00,0.0035
2386.00,0.0035
2383.00,0.0035
2380.00,0.0036
2377.00,0.0037
2374.00,0.0036
2371.00,0.0036
2368.00,0.0036
2365.00,0.0037
2362.00,0.0039
2359.00,0.0040
2356.00,0.0039
2353.00,0.0040
2350.00,0.0041
2347.00,0.0042
2344.00,0.0043
2341.00,0.0044
2338.00,0.0045
2335.00,0.0045
2332.00,0.0043
2329.00,0.0044
2326.00,0.0056
2323.00,0.0054
2320.00,0.0050
2317.00,0.0049
2314.00,0.0049
2311.00,0.0048
2308.00,0.0047
2305.00,0.0045
2302.00,0.0045
2299.00,0.0044
2296.00,0.0046
2293.00,0.0047
2290.00,0.0049
2287.00,0.0050
2284.00,0.0046
2281.00,0.0044
2278.00,0.0043
2275.00,0.0043
2272.00,0.0041
2269.00,0.0041
2266.00,0.0039
2263.00,0.0039
2260.00,0.0040
2257.00,0.0039
2254.00,0.0036
2251.00,0.0038
2248.00,0.0037
2245.00,0.0038
2242.00,0.0039
2239.00,0.0038
2236.00,0.0037
2233.00,0.0035
2230.00,0.0036
2227.00,0.0035
2224.00,0.0035
2221.00,0.0035
2218.00,0.0034
2215.00,0.0034
2212.00,0.0034
2209.00,0.0036
2206.00,0.0036
2203.00,0.0036
2200.00,0.0035
2197.00,0.0035
2194.00,0.0036
2191.00,0.0037
2188.00,0.0037
2185.00,0.0036
2182.00,0.0031
2179.00,0.0032
2176.00,0.0027
2173.00,0.0028
2170.00,0.0036
2167.00,0.0043
2164.00,0.0048
2161.00,0.0031
2158.00,-0.0005
2155.00,0.0002
2152.00,0.0011
2149.00,0.0015
2146.00,0.0013
2143.00,0.0015
2140.00,0.0016
2137.00,0.0011
2134.00,0.0008
2131.00,0.0014
2128.00,0.0019
2125.00,0.0022
2122.00,0.0024
2119.00,0.0027
2116.00,0.0031
2113.00,0.0032
2110.00,0.0032
2107.00,0.0031
2104.00,0.0031
2101.00,0.0032
2098.00,0.0029
2095.00,0.0023
2092.00,0.0027
2089.00,0.0031
2086.00,0.0032
2083.00,0.0034
2080.00,0.0033
2077.00,0.0033
2074.00,0.0032
2071.00,0.0031
2068.00,0.0030
2065.00,0.0030
2062.00,0.0030
2059.00,0.0027
2056.00,0.0028
2053.00,0.0036
2050.00,0.0036
2047.00,0.0029
2044.00,0.0030
2041.00,0.0029
2038.00,0.0033
2035.00,0.0031
2032.00,0.0023
2029.00,0.0022
2026.00,0.0021
2023.00,0.0023
2020.00,0.0025
2017.00,0.0024
2014.00,0.0024
2011.00,0.0025
2008.00,0.0020
2005.00,0.0020
2002.00,0.0023
1999.00,0.0023
1996.00,0.0029
1993.00,0.0031
1990.00,0.0032
1987.00,0.0038
1984.00,0.0041
1981.00,0.0047
1978.00,0.0032
1975.00,0.0026
1972.00,0.0028
1969.00,0.0032
1966.00,0.0039
1963.00,0.0042
1960.00,0.0040
1957.00,0.0047
1954.00,0.0051
1951.00,0.0056
1948.00,0.0063
1945.00,0.0067
1942.00,0.0068
1939.00,0.0065
1936.00,0.0056
1933.00,0.0050
1930.00,0.0044
1927.00,0.0040
1924.00,0.0037
1921.00,0.0035
1918.00,0.0035
1915.00,0.0035
1912.00,0.0034
1909.00,0.0034
1906.00,0.0035
1903.00,0.0036
1900.00,0.0038
1897.00,0.0041
1894.00,0.0045
1891.00,0.0049
1888.00,0.0053
1885.00,0.0057
1882.00,0.0059
1879.00,0.0062
1876.00,0.0066
1873.00,0.0067
1870.00,0.0066
1867.00,0.0066
1864.00,0.0061
1861.00,0.0055
1858.00,0.0049
1855.00,0.0046
1852.00,0.0042
1849.00,0.0039
1846.00,0.0039
1843.00,0.0038
1840.00,0.0038
1837.00,0.0038
1834.00,0.0039
1831.00,0.0041
1828.00,0.0044
1825.00,0.0048
1822.00,0.0051
1819.00,0.0053
1816.00,0.0056
1813.00,0.0062
1810.00,0.0068
1807.00,0.0073
1804.00,0.0077
1801.00,0.0078
1798.00,0.0076
1795.00,0.0071
1792.00,0.0065
1789.00,0.0061
1786.00,0.0059
1783.00,0.0059
1780.00,0.0061
1777.00,0.0063
1774.00,0.0066
1771.00,0.0068
1768.00,0.0071
1765.00,0.0075
1762.00,0.0083
1759.00,0.0095
1756.00,0.0112
1753.00,0.0130
1750.00,0.0152
1747.00,0.0174
1744.00,0.0188
1741.00,0.0194
1738.00,0.0189
1735.00,0.0181
1732.00,0.0165
1729.00,0.0157
1726.00,0.0148
1723.00,0.0140
1720.00,0.0136
1717.00,0.0129
1714.00,0.0127
1711.00,0.0126
1708.00,0.0125
1705.00,0.0125
1702.00,0.0125
1699.00,0.0126
1696.00,0.0127
1693.00,0.0131
1690.00,0.0138
1687.00,0.0143
1684.00,0.0150
1681.00,0.0160
1678.00,0.0165
1675.00,0.0173
1672.00,0.0179
1669.00,0.0186
1666.00,0.0191
1663.00,0.0195
1660.00,0.0198
1657.00,0.0198
1654.00,0.0198
1651.00,0.0195
1648.00,0.0194
1645.00,0.0190
1642.00,0.0185
1639.00,0.0182
1636.00,0.0179
1633.00,0.0176
1630.00,0.0172
1627.00,0.0170
1624.00,0.0167
1621.00,0.0164
1618.00,0.0161
1615.00,0.0162
1612.00,0.0172
1609.00,0.0206
1606.00,0.0287
1603.00,0.0393
1600.00,0.0414
1597.00,0.0323
1594.00,0.0241
1591.00,0.0201
1588.00,0.0190
1585.00,0.0218
1582.00,0.0226
1579.00,0.0185
1576.00,0.0155
1573.00,0.0146
1570.00,0.0142
1567.00,0.0140
1564.00,0.0140
1561.00,0.0141
1558.00,0.0149
1555.00,0.0152
1552.00,0.0158
1549.00,0.0164
1546.00,0.0169
1543.00,0.0170
1540.00,0.0167
1537.00,0.0161
1534.00,0.0155
1531.00,0.0148
1528.00,0.0141
1525.00,0.0137
1522.00,0.0133
1519.00,0.0132
1516.00,0.0133
1513.00,0.0131
1510.00,0.0130
1507.00,0.0132
1504.00,0.0148
1501.00,0.0182
1498.00,0.0311
1495.00,0.0692
1492.00,0.0866
1489.00,0.0547
1486.00,0.0320
1483.00,0.0224
1480.00,0.0179
1477.00,0.0165
1474.00,0.0165
1471.00,0.0177
1468.00,0.0189
1465.00,0.0202
1462.00,0.0219
1459.00,0.0269
1456.00,0.0562
1453.00,0.0876
1450.00,0.0861
1447.00,0.0677
1444.00,0.0552
1441.00,0.0449
1438.00,0.0373
1435.00,0.0294
1432.00,0.0246
1429.00,0.0213
1426.00,0.0197
1423.00,0.0189
1420.00,0.0185
1417.00,0.0182
1414.00,0.0179
1411.00,0.0174
1408.00,0.0171
1405.00,0.0170
1402.00,0.0170
1399.00,0.0171
1396.00,0.0174
1393.00,0.0183
1390.00,0.0195
1387.00,0.0212
1384.00,0.0230
1381.00,0.0245
1378.00,0.0259
1375.00,0.0270
1372.00,0.0274
1369.00,0.0271
1366.00,0.0266
1363.00,0.0258
1360.00,0.0249
1357.00,0.0240
1354.00,0.0235
1351.00,0.0233
1348.00,0.0231
1345.00,0.0226
1342.00,0.0219
1339.00,0.0212
1336.00,0.0214
1333.00,0.0224
1330.00,0.0235
1327.00,0.0236
1324.00,0.0231
1321.00,0.0227
1318.00,0.0227
1315.00,0.0233
1312.00,0.0236
1309.00,0.0233
1306.00,0.0226
1303.00,0.0220
1300.00,0.0215
1297.00,0.0213
1294.00,0.0214
1291.00,0.0213
1288.00,0.0211
1285.00,0.0210
1282.00,0.0210
1279.00,0.0207
1276.00,0.0203
1273.00,0.0198
1270.00,0.0195
1267.00,0.0193
1264.00,0.0191
1261.00,0.0190
1258.00,0.0190
1255.00,0.0191
1252.00,0.0194
1249.00,0.0197
1246.00,0.0199
1243.00,0.0200
1240.00,0.0199
1237.00,0.0198
1234.00,0.0197
1231.00,0.0195
1228.00,0.0196
1225.00,0.0196
1222.00,0.0196
1219.00,0.0195
1216.00,0.0194
1213.00,0.0196
1210.00,0.0199
1207.00,0.0206
1204.00,0.0216
1201.00,0.0227
1198.00,0.0237
1195.00,0.0240
1192.00,0.0242
1189.00,0.0247
1186.00,0.0264
1183.00,0.0291
1180.00,0.0297
1177.00,0.0269
1174.00,0.0244
1171.00,0.0233
1168.00,0.0230
1165.00,0.0229
1162.00,0.0235
1159.00,0.0258
1156.00,0.0290
1153.00,0.0288
1150.00,0.0248
1147.00,0.0217
1144.00,0.0200
1141.00,0.0189
1138.00,0.0182
1135.00,0.0177
1132.00,0.0177
1129.00,0.0178
1126.00,0.0180
1123.00,0.0185
1120.00,0.0192
1117.00,0.0202
1114.00,0.0211
1111.00,0.0214
1108.00,0.0214
1105.00,0.0214
1102.00,0.0215
1099.00,0.0218
1096.00,0.0221
1093.00,0.0226
1090.00,0.0231
1087.00,0.0240
1084.00,0.0255
1081.00,0.0271
1078.00,0.0287
1075.00,0.0310
1072.00,0.0337
1069.00,0.0351
1066.00,0.0342
1063.00,0.0316
1060.00,0.0291
1057.00,0.0274
1054.00,0.0261
1051.00,0.0250
1048.00,0.0242
1045.00,0.0237
1042.00,0.0236
1039.00,0.0245
1036.00,0.0286
1033.00,0.0386
1030.00,0.0493
1027.00,0.0515
1024.00,0.0441
1021.00,0.0369
1018.00,0.0324
1015.00,0.0292
1012.00,0.0270
1009.00,0.0258
1006.00,0.0262
1003.00,0.0267
1000.00,0.0242
997.00,0.0216
994.00,0.0207
991.00,0.0205
988.00,0.0209
985.00,0.0219
982.00,0.0228
979.00,0.0229
976.00,0.0221
973.00,0.0213
970.00,0.0219
967.00,0.0235
964.00,0.0241
961.00,0.0228
958.00,0.0206
955.00,0.0192
952.00,0.0188
949.00,0.0189
946.00,0.0194
943.00,0.0198
940.00,0.0194
937.00,0.0185
934.00,0.0172
931.00,0.0162
928.00,0.0158
925.00,0.0160
922.00,0.0166
919.00,0.0177
916.00,0.0202
913.00,0.0245
910.00,0.0299
907.00,0.0334
904.00,0.0320
901.00,0.0264
898.00,0.0208
895.00,0.0176
892.00,0.0160
889.00,0.0151
886.00,0.0144
883.00,0.0138
880.00,0.0136
877.00,0.0135
874.00,0.0132
871.00,0.0128
868.00,0.0126
865.00,0.0126
862.00,0.0125
859.00,0.0125
856.00,0.0128
853.00,0.0135
850.00,0.0150
847.00,0.0173
844.00,0.0194
841.00,0.0200
838.00,0.0187
835.00,0.0162
832.00,0.0142
829.00,0.0133
826.00,0.0127
823.00,0.0124
820.00,0.0123
817.00,0.0124
814.00,0.0126
811.00,0.0127
808.00,0.0129
805.00,0.0131
802.00,0.0135
799.00,0.0142
796.00,0.0152
793.00,0.0166
790.00,0.0187
787.00,0.0212
784.00,0.0244
781.00,0.0286
778.00,0.0346
775.00,0.0433
772.00,0.0547
769.00,0.0687
766.00,0.0830
763.00,0.0969
760.00,0.1118
757.00,0.1239
754.00,0.1275
751.00,0.1264
748.00,0.1251
745.00,0.1149
742.00,0.0919
739.00,0.0694
736.00,0.0520
733.00,0.0375
730.00,0.0280
727.00,0.0234
724.00,0.0216
721.00,0.0212
718.00,0.0215
715.00,0.0238
712.00,0.0312
709.00,0.0517
706.00,0.0940
703.00,0.1615
700.00,0.2523
697.00,0.3553
694.00,0.3880
691.00,0.2773
688.00,0.1736
685.00,0.1215
682.00,0.0945
679.00,0.0784
676.00,0.0683
673.00,0.0618
670.00,0.0569
667.00,0.0514
664.00,0.0471
661.00,0.0429
658.00,0.0390
655.00,0.0358
652.00,0.0333
649.00,0.0314
646.00,0.0300
643.00,0.0292
640.00,0.0289
637.00,0.0299
634.00,0.0310
631.00,0.0320
628.00,0.0333
625.00,0.0340
622.00,0.0350
619.00,0.0350
616.00,0.0328
613.00,0.0316
610.00,0.0309
607.00,0.0299
604.00,0.0296
601.00,0.0302
598.00,0.0309
595.00,0.0314
592.00,0.0321
589.00,0.0330
586.00,0.0341
583.00,0.0359
580.00,0.0384
577.00,0.0422
574.00,0.0466
571.00,0.0513
568.00,0.0560
565.00,0.0606
562.00,0.0650
559.00,0.0697
556.00,0.0746
553.00,0.0800
550.00,0.0865
547.00,0.0955
544.00,0.1071
541.00,0.1193
538.00,0.1255
535.00,0.1192
532.00,0.1029
529.00,0.0855
526.00,0.0707
523.00,0.0599
520.00,0.0528
517.00,0.0483
514.00,0.0448
511.00,0.0419
508.00,0.0390
505.00,0.0362
502.00,0.0340
499.00,0.0322
496.00,0.0313
493.00,0.0304
490.00,0.0290
487.00,0.0280
484.00,0.0279
481.00,0.0276
478.00,0.0269
475.00,0.0264
472.00,0.0264
469.00,0.0257
466.00,0.0251
463.00,0.0243
460.00,0.0236
457.00,0.0239
454.00,0.0236
451.00,0.0231
448.00,0.0230
445.00,0.0237
442.00,0.0230
439.00,0.0233
436.00,0.0227
433.00,0.0214
430.00,0.0210
427.00,0.0206
424.00,0.0213
421.00,0.0236
418.00,0.0231
415.00,0.0204
412.00,0.0200
409.00,0.0228
406.00,0.0224
403.00,0.0228
400.00,0.0192