File: FTIR/Mary/2025_06_10_Standard_Polystyrene_1.csv
Created as New Dataset,Sample 641 By YargerLab Date Tuesday, June 10 2025
cm-1,A
4000.00,0.0018
3997.00,0.0018
3994.00,0.0018
3991.00,0.0017
3988.00,0.0017
3985.00,0.0017
3982.00,0.0017
3979.00,0.0016
3976.00,0.0016
3973.00,0.0016
3970.00,0.0016
3967.00,0.0016
3964.00,0.0016
3961.00,0.0016
3958.00,0.0016
3955.00,0.0016
3952.00,0.0016
3949.00,0.0014
3946.00,0.0013
3943.00,0.0015
3940.00,0.0016
3937.00,0.0015
3934.00,0.0013
3931.00,0.0013
3928.00,0.0015
3925.00,0.0016
3922.00,0.0014
3919.00,0.0011
3916.00,0.0013
3913.00,0.0015
3910.00,0.0015
3907.00,0.0015
3904.00,0.0010
3901.00,0.0005
3898.00,0.0010
3895.00,0.0011
3892.00,0.0014
3889.00,0.0012
3886.00,0.0009
3883.00,0.0009
3880.00,0.0009
3877.00,0.0009
3874.00,0.0011
3871.00,0.0008
3868.00,0.0009
3865.00,0.0007
3862.00,0.0009
3859.00,0.0009
3856.00,0.0018
3853.00,0.0014
3850.00,0.0008
3847.00,0.0008
3844.00,0.0008
3841.00,0.0008
3838.00,0.0008
3835.00,0.0010
3832.00,0.0009
3829.00,0.0009
3826.00,0.0010
3823.00,0.0007
3820.00,0.0009
3817.00,0.0007
3814.00,0.0012
3811.00,0.0013
3808.00,0.0013
3805.00,0.0011
3802.00,0.0008
3799.00,0.0009
3796.00,0.0010
3793.00,0.0014
3790.00,0.0016
3787.00,0.0015
3784.00,0.0014
3781.00,0.0012
3778.00,0.0013
3775.00,0.0013
3772.00,0.0012
3769.00,0.0011
3766.00,0.0010
3763.00,0.0010
3760.00,0.0008
3757.00,0.0007
3754.00,0.0005
3751.00,0.0002
3748.00,0.0000
3745.00,-0.0001
3742.00,0.0001
3739.00,-0.0004
3736.00,-0.0005
3733.00,-0.0001
3730.00,0.0003
3727.00,0.0003
3724.00,0.0005
3721.00,0.0006
3718.00,0.0009
3715.00,0.0009
3712.00,0.0006
3709.00,0.0005
3706.00,0.0007
3703.00,0.0009
3700.00,0.0010
3697.00,0.0010
3694.00,0.0010
3691.00,0.0009
3688.00,0.0006
3685.00,0.0007
3682.00,0.0007
3679.00,0.0007
3676.00,0.0002
3673.00,0.0002
3670.00,0.0002
3667.00,0.0005
3664.00,0.0008
3661.00,0.0009
3658.00,0.0009
3655.00,0.0006
3652.00,-0.0001
3649.00,-0.0003
3646.00,-0.0001
3643.00,0.0005
3640.00,0.0009
3637.00,0.0007
3634.00,0.0006
3631.00,0.0005
3628.00,0.0003
3625.00,0.0002
3622.00,0.0005
3619.00,0.0005
3616.00,-0.0000
3613.00,0.0000
3610.00,-0.0000
3607.00,0.0003
3604.00,0.0005
3601.00,0.0006
3598.00,0.0006
3595.00,0.0005
3592.00,0.0005
3589.00,0.0002
3586.00,0.0005
3583.00,0.0006
3580.00,0.0009
3577.00,0.0011
3574.00,0.0011
3571.00,0.0007
3568.00,0.0002
3565.00,0.0004
3562.00,0.0007
3559.00,0.0011
3556.00,0.0011
3553.00,0.0011
3550.00,0.0010
3547.00,0.0007
3544.00,0.0010
3541.00,0.0012
3538.00,0.0013
3535.00,0.0014
3532.00,0.0013
3529.00,0.0013
3526.00,0.0011
3523.00,0.0012
3520.00,0.0014
3517.00,0.0016
3514.00,0.0016
3511.00,0.0015
3508.00,0.0015
3505.00,0.0014
3502.00,0.0015
3499.00,0.0015
3496.00,0.0017
3493.00,0.0018
3490.00,0.0018
3487.00,0.0018
3484.00,0.0018
3481.00,0.0019
3478.00,0.0019
3475.00,0.0020
3472.00,0.0021
3469.00,0.0020
3466.00,0.0021
3463.00,0.0021
3460.00,0.0021
3457.00,0.0022
3454.00,0.0023
3451.00,0.0022
3448.00,0.0022
3445.00,0.0022
3442.00,0.0023
3439.00,0.0023
3436.00,0.0023
3433.00,0.0023
3430.00,0.0024
3427.00,0.0025
3424.00,0.0025
3421.00,0.0025
3418.00,0.0025
3415.00,0.0025
3412.00,0.0026
3409.00,0.0026
3406.00,0.0027
3403.00,0.0027
3400.00,0.0027
3397.00,0.0027
3394.00,0.0026
3391.00,0.0026
3388.00,0.0027
3385.00,0.0028
3382.00,0.0028
3379.00,0.0028
3376.00,0.0029
3373.00,0.0029
3370.00,0.0029
3367.00,0.0029
3364.00,0.0029
3361.00,0.0030
3358.00,0.0030
3355.00,0.0031
3352.00,0.0031
3349.00,0.0032
3346.00,0.0032
3343.00,0.0032
3340.00,0.0033
3337.00,0.0032
3334.00,0.0032
3331.00,0.0032
3328.00,0.0032
3325.00,0.0032
3322.00,0.0032
3319.00,0.0032
3316.00,0.0032
3313.00,0.0032
3310.00,0.0031
3307.00,0.0031
3304.00,0.0032
3301.00,0.0032
3298.00,0.0032
3295.00,0.0032
3292.00,0.0032
3289.00,0.0033
3286.00,0.0032
3283.00,0.0032
3280.00,0.0031
3277.00,0.0031
3274.00,0.0030
3271.00,0.0031
3268.00,0.0031
3265.00,0.0031
3262.00,0.0030
3259.00,0.0030
3256.00,0.0029
3253.00,0.0029
3250.00,0.0029
3247.00,0.0028
3244.00,0.0027
3241.00,0.0027
3238.00,0.0027
3235.00,0.0026
3232.00,0.0026
3229.00,0.0026
3226.00,0.0026
3223.00,0.0025
3220.00,0.0025
3217.00,0.0024
3214.00,0.0024
3211.00,0.0025
3208.00,0.0024
3205.00,0.0024
3202.00,0.0024
3199.00,0.0024
3196.00,0.0024
3193.00,0.0023
3190.00,0.0023
3187.00,0.0023
3184.00,0.0023
3181.00,0.0023
3178.00,0.0022
3175.00,0.0023
3172.00,0.0023
3169.00,0.0023
3166.00,0.0024
3163.00,0.0023
3160.00,0.0023
3157.00,0.0022
3154.00,0.0021
3151.00,0.0021
3148.00,0.0021
3145.00,0.0021
3142.00,0.0021
3139.00,0.0020
3136.00,0.0021
3133.00,0.0021
3130.00,0.0021
3127.00,0.0021
3124.00,0.0020
3121.00,0.0020
3118.00,0.0021
3115.00,0.0022
3112.00,0.0025
3109.00,0.0028
3106.00,0.0031
3103.00,0.0033
3100.00,0.0032
3097.00,0.0031
3094.00,0.0033
3091.00,0.0038
3088.00,0.0048
3085.00,0.0060
3082.00,0.0064
3079.00,0.0059
3076.00,0.0053
3073.00,0.0051
3070.00,0.0053
3067.00,0.0062
3064.00,0.0074
3061.00,0.0085
3058.00,0.0083
3055.00,0.0073
3052.00,0.0061
3049.00,0.0053
3046.00,0.0048
3043.00,0.0049
3040.00,0.0055
3037.00,0.0066
3034.00,0.0083
3031.00,0.0112
3028.00,0.0142
3025.00,0.0155
3022.00,0.0136
3019.00,0.0098
3016.00,0.0068
3013.00,0.0051
3010.00,0.0043
3007.00,0.0042
3004.00,0.0044
3001.00,0.0044
2998.00,0.0038
2995.00,0.0028
2992.00,0.0023
2989.00,0.0021
2986.00,0.0018
2983.00,0.0013
2980.00,0.0012
2977.00,0.0017
2974.00,0.0020
2971.00,0.0022
2968.00,0.0028
2965.00,0.0034
2962.00,0.0040
2959.00,0.0046
2956.00,0.0053
2953.00,0.0059
2950.00,0.0067
2947.00,0.0077
2944.00,0.0090
2941.00,0.0107
2938.00,0.0125
2935.00,0.0146
2932.00,0.0167
2929.00,0.0187
2926.00,0.0203
2923.00,0.0210
2920.00,0.0209
2917.00,0.0201
2914.00,0.0188
2911.00,0.0171
2908.00,0.0155
2905.00,0.0140
2902.00,0.0125
2899.00,0.0111
2896.00,0.0099
2893.00,0.0089
2890.00,0.0081
2887.00,0.0076
2884.00,0.0070
2881.00,0.0067
2878.00,0.0064
2875.00,0.0062
2872.00,0.0061
2869.00,0.0061
2866.00,0.0064
2863.00,0.0070
2860.00,0.0079
2857.00,0.0091
2854.00,0.0100
2851.00,0.0105
2848.00,0.0102
2845.00,0.0091
2842.00,0.0076
2839.00,0.0059
2836.00,0.0047
2833.00,0.0039
2830.00,0.0034
2827.00,0.0032
2824.00,0.0030
2821.00,0.0029
2818.00,0.0029
2815.00,0.0028
2812.00,0.0027
2809.00,0.0027
2806.00,0.0026
2803.00,0.0026
2800.00,0.0025
2797.00,0.0025
2794.00,0.0024
2791.00,0.0024
2788.00,0.0024
2785.00,0.0024
2782.00,0.0024
2779.00,0.0023
2776.00,0.0023
2773.00,0.0022
2770.00,0.0022
2767.00,0.0022
2764.00,0.0022
2761.00,0.0022
2758.00,0.0022
2755.00,0.0022
2752.00,0.0022
2749.00,0.0021
2746.00,0.0022
2743.00,0.0022
2740.00,0.0022
2737.00,0.0022
2734.00,0.0022
2731.00,0.0022
2728.00,0.0022
2725.00,0.0021
2722.00,0.0021
2719.00,0.0022
2716.00,0.0022
2713.00,0.0022
2710.00,0.0021
2707.00,0.0022
2704.00,0.0021
2701.00,0.0022
2698.00,0.0022
2695.00,0.0021
2692.00,0.0021
2689.00,0.0021
2686.00,0.0021
2683.00,0.0021
2680.00,0.0021
2677.00,0.0021
2674.00,0.0021
2671.00,0.0021
2668.00,0.0021
2665.00,0.0022
2662.00,0.0023
2659.00,0.0024
2656.00,0.0024
2653.00,0.0024
2650.00,0.0024
2647.00,0.0025
2644.00,0.0024
2641.00,0.0024
2638.00,0.0023
2635.00,0.0024
2632.00,0.0024
2629.00,0.0024
2626.00,0.0023
2623.00,0.0023
2620.00,0.0022
2617.00,0.0022
2614.00,0.0023
2611.00,0.0022
2608.00,0.0022
2605.00,0.0022
2602.00,0.0022
2599.00,0.0022
2596.00,0.0021
2593.00,0.0020
2590.00,0.0019
2587.00,0.0020
2584.00,0.0020
2581.00,0.0020
2578.00,0.0020
2575.00,0.0020
2572.00,0.0020
2569.00,0.0020
2566.00,0.0018
2563.00,0.0018
2560.00,0.0019
2557.00,0.0018
2554.00,0.0018
2551.00,0.0017
2548.00,0.0018
2545.00,0.0017
2542.00,0.0018
2539.00,0.0017
2536.00,0.0016
2533.00,0.0016
2530.00,0.0016
2527.00,0.0016
2524.00,0.0017
2521.00,0.0017
2518.00,0.0016
2515.00,0.0016
2512.00,0.0016
2509.00,0.0016
2506.00,0.0017
2503.00,0.0017
2500.00,0.0016
2497.00,0.0016
2494.00,0.0017
2491.00,0.0015
2488.00,0.0015
2485.00,0.0015
2482.00,0.0015
2479.00,0.0015
2476.00,0.0016
2473.00,0.0014
2470.00,0.0014
2467.00,0.0014
2464.00,0.0015
2461.00,0.0016
2458.00,0.0016
2455.00,0.0015
2452.00,0.0015
2449.00,0.0014
2446.00,0.0014
2443.00,0.0015
2440.00,0.0015
2437.00,0.0014
2434.00,0.0014
2431.00,0.0014
2428.00,0.0013
2425.00,0.0013
2422.00,0.0012
2419.00,0.0012
2416.00,0.0013
2413.00,0.0014
2410.00,0.0014
2407.00,0.0012
2404.00,0.0012
2401.00,0.0012
2398.00,0.0012
2395.00,0.0011
2392.00,0.0011
2389.00,0.0012
2386.00,0.0012
2383.00,0.0012
2380.00,0.0011
2377.00,0.0011
2374.00,0.0013
2371.00,0.0012
2368.00,0.0012
2365.00,0.0013
2362.00,0.0014
2359.00,0.0014
2356.00,0.0015
2353.00,0.0014
2350.00,0.0015
2347.00,0.0017
2344.00,0.0017
2341.00,0.0018
2338.00,0.0019
2335.00,0.0019
2332.00,0.0019
2329.00,0.0019
2326.00,0.0026
2323.00,0.0025
2320.00,0.0021
2317.00,0.0021
2314.00,0.0020
2311.00,0.0019
2308.00,0.0018
2305.00,0.0018
2302.00,0.0019
2299.00,0.0019
2296.00,0.0020
2293.00,0.0021
2290.00,0.0022
2287.00,0.0022
2284.00,0.0021
2281.00,0.0019
2278.00,0.0019
2275.00,0.0017
2272.00,0.0017
2269.00,0.0015
2266.00,0.0014
2263.00,0.0016
2260.00,0.0016
2257.00,0.0015
2254.00,0.0013
2251.00,0.0012
2248.00,0.0013
2245.00,0.0012
2242.00,0.0013
2239.00,0.0014
2236.00,0.0011
2233.00,0.0011
2230.00,0.0012
2227.00,0.0013
2224.00,0.0012
2221.00,0.0011
2218.00,0.0010
2215.00,0.0012
2212.00,0.0012
2209.00,0.0012
2206.00,0.0013
2203.00,0.0014
2200.00,0.0012
2197.00,0.0011
2194.00,0.0010
2191.00,0.0012
2188.00,0.0015
2185.00,0.0015
2182.00,0.0010
2179.00,0.0009
2176.00,0.0009
2173.00,0.0009
2170.00,0.0015
2167.00,0.0020
2164.00,0.0020
2161.00,0.0014
2158.00,-0.0011
2155.00,-0.0010
2152.00,-0.0009
2149.00,-0.0005
2146.00,-0.0003
2143.00,-0.0002
2140.00,-0.0002
2137.00,-0.0002
2134.00,-0.0006
2131.00,-0.0004
2128.00,-0.0001
2125.00,0.0001
2122.00,0.0003
2119.00,0.0006
2116.00,0.0008
2113.00,0.0009
2110.00,0.0009
2107.00,0.0009
2104.00,0.0009
2101.00,0.0009
2098.00,0.0008
2095.00,0.0004
2092.00,0.0006
2089.00,0.0009
2086.00,0.0010
2083.00,0.0011
2080.00,0.0010
2077.00,0.0009
2074.00,0.0007
2071.00,0.0007
2068.00,0.0009
2065.00,0.0008
2062.00,0.0008
2059.00,0.0008
2056.00,0.0008
2053.00,0.0012
2050.00,0.0013
2047.00,0.0010
2044.00,0.0006
2041.00,0.0005
2038.00,0.0002
2035.00,0.0004
2032.00,0.0001
2029.00,-0.0000
2026.00,0.0002
2023.00,0.0002
2020.00,0.0002
2017.00,0.0002
2014.00,0.0000
2011.00,0.0001
2008.00,0.0001
2005.00,-0.0003
2002.00,0.0002
1999.00,0.0001
1996.00,0.0003
1993.00,0.0007
1990.00,0.0006
1987.00,0.0010
1984.00,0.0012
1981.00,0.0017
1978.00,0.0005
1975.00,-0.0001
1972.00,0.0001
1969.00,0.0006
1966.00,0.0008
1963.00,0.0007
1960.00,0.0005
1957.00,0.0009
1954.00,0.0013
1951.00,0.0015
1948.00,0.0018
1945.00,0.0022
1942.00,0.0022
1939.00,0.0018
1936.00,0.0015
1933.00,0.0013
1930.00,0.0010
1927.00,0.0007
1924.00,0.0008
1921.00,0.0008
1918.00,0.0006
1915.00,0.0006
1912.00,0.0007
1909.00,0.0008
1906.00,0.0008
1903.00,0.0008
1900.00,0.0010
1897.00,0.0011
1894.00,0.0012
1891.00,0.0014
1888.00,0.0016
1885.00,0.0016
1882.00,0.0018
1879.00,0.0020
1876.00,0.0022
1873.00,0.0021
1870.00,0.0023
1867.00,0.0023
1864.00,0.0019
1861.00,0.0017
1858.00,0.0015
1855.00,0.0012
1852.00,0.0012
1849.00,0.0011
1846.00,0.0009
1843.00,0.0009
1840.00,0.0009
1837.00,0.0011
1834.00,0.0011
1831.00,0.0014
1828.00,0.0014
1825.00,0.0015
1822.00,0.0017
1819.00,0.0017
1816.00,0.0019
1813.00,0.0023
1810.00,0.0026
1807.00,0.0028
1804.00,0.0030
1801.00,0.0030
1798.00,0.0027
1795.00,0.0025
1792.00,0.0022
1789.00,0.0019
1786.00,0.0019
1783.00,0.0019
1780.00,0.0019
1777.00,0.0019
1774.00,0.0022
1771.00,0.0023
1768.00,0.0023
1765.00,0.0027
1762.00,0.0034
1759.00,0.0037
1756.00,0.0041
1753.00,0.0044
1750.00,0.0051
1747.00,0.0057
1744.00,0.0063
1741.00,0.0065
1738.00,0.0063
1735.00,0.0057
1732.00,0.0052
1729.00,0.0052
1726.00,0.0049
1723.00,0.0046
1720.00,0.0044
1717.00,0.0040
1714.00,0.0036
1711.00,0.0035
1708.00,0.0033
1705.00,0.0033
1702.00,0.0028
1699.00,0.0025
1696.00,0.0022
1693.00,0.0023
1690.00,0.0024
1687.00,0.0024
1684.00,0.0025
1681.00,0.0027
1678.00,0.0027
1675.00,0.0029
1672.00,0.0030
1669.00,0.0033
1666.00,0.0033
1663.00,0.0034
1660.00,0.0032
1657.00,0.0033
1654.00,0.0034
1651.00,0.0030
1648.00,0.0029
1645.00,0.0028
1642.00,0.0028
1639.00,0.0030
1636.00,0.0030
1633.00,0.0031
1630.00,0.0031
1627.00,0.0032
1624.00,0.0033
1621.00,0.0033
1618.00,0.0033
1615.00,0.0036
1612.00,0.0043
1609.00,0.0059
1606.00,0.0095
1603.00,0.0141
1600.00,0.0152
1597.00,0.0114
1594.00,0.0078
1591.00,0.0060
1588.00,0.0056
1585.00,0.0068
1582.00,0.0069
1579.00,0.0051
1576.00,0.0036
1573.00,0.0032
1570.00,0.0030
1567.00,0.0026
1564.00,0.0027
1561.00,0.0029
1558.00,0.0025
1555.00,0.0028
1552.00,0.0028
1549.00,0.0028
1546.00,0.0029
1543.00,0.0034
1540.00,0.0030
1537.00,0.0024
1534.00,0.0023
1531.00,0.0021
1528.00,0.0022
1525.00,0.0023
1522.00,0.0026
1519.00,0.0026
1516.00,0.0025
1513.00,0.0025
1510.00,0.0029
1507.00,0.0032
1504.00,0.0038
1501.00,0.0057
1498.00,0.0116
1495.00,0.0269
1492.00,0.0349
1489.00,0.0219
1486.00,0.0118
1483.00,0.0076
1480.00,0.0057
1477.00,0.0049
1474.00,0.0047
1471.00,0.0048
1468.00,0.0055
1465.00,0.0060
1462.00,0.0068
1459.00,0.0098
1456.00,0.0211
1453.00,0.0348
1450.00,0.0347
1447.00,0.0269
1444.00,0.0214
1441.00,0.0170
1438.00,0.0137
1435.00,0.0101
1432.00,0.0080
1429.00,0.0067
1426.00,0.0060
1423.00,0.0056
1420.00,0.0054
1417.00,0.0050
1414.00,0.0049
1411.00,0.0048
1408.00,0.0046
1405.00,0.0045
1402.00,0.0044
1399.00,0.0043
1396.00,0.0046
1393.00,0.0050
1390.00,0.0056
1387.00,0.0066
1384.00,0.0073
1381.00,0.0080
1378.00,0.0088
1375.00,0.0096
1372.00,0.0100
1369.00,0.0099
1366.00,0.0097
1363.00,0.0096
1360.00,0.0092
1357.00,0.0087
1354.00,0.0085
1351.00,0.0085
1348.00,0.0084
1345.00,0.0082
1342.00,0.0081
1339.00,0.0081
1336.00,0.0081
1333.00,0.0085
1330.00,0.0090
1327.00,0.0092
1324.00,0.0089
1321.00,0.0088
1318.00,0.0089
1315.00,0.0092
1312.00,0.0092
1309.00,0.0089
1306.00,0.0086
1303.00,0.0081
1300.00,0.0078
1297.00,0.0076
1294.00,0.0075
1291.00,0.0074
1288.00,0.0073
1285.00,0.0071
1282.00,0.0071
1279.00,0.0070
1276.00,0.0068
1273.00,0.0066
1270.00,0.0064
1267.00,0.0063
1264.00,0.0063
1261.00,0.0063
1258.00,0.0061
1255.00,0.0061
1252.00,0.0062
1249.00,0.0064
1246.00,0.0065
1243.00,0.0066
1240.00,0.0066
1237.00,0.0066
1234.00,0.0067
1231.00,0.0067
1228.00,0.0066
1225.00,0.0064
1222.00,0.0062
1219.00,0.0058
1216.00,0.0056
1213.00,0.0057
1210.00,0.0060
1207.00,0.0065
1204.00,0.0070
1201.00,0.0075
1198.00,0.0079
1195.00,0.0080
1192.00,0.0080
1189.00,0.0081
1186.00,0.0087
1183.00,0.0099
1180.00,0.0101
1177.00,0.0088
1174.00,0.0077
1171.00,0.0075
1168.00,0.0077
1165.00,0.0080
1162.00,0.0087
1159.00,0.0099
1156.00,0.0114
1153.00,0.0111
1150.00,0.0090
1147.00,0.0075
1144.00,0.0067
1141.00,0.0062
1138.00,0.0060
1135.00,0.0059
1132.00,0.0060
1129.00,0.0062
1126.00,0.0066
1123.00,0.0070
1120.00,0.0074
1117.00,0.0083
1114.00,0.0093
1111.00,0.0098
1108.00,0.0098
1105.00,0.0098
1102.00,0.0097
1099.00,0.0097
1096.00,0.0097
1093.00,0.0098
1090.00,0.0099
1087.00,0.0102
1084.00,0.0109
1081.00,0.0116
1078.00,0.0126
1075.00,0.0138
1072.00,0.0153
1069.00,0.0163
1066.00,0.0161
1063.00,0.0154
1060.00,0.0146
1057.00,0.0140
1054.00,0.0134
1051.00,0.0130
1048.00,0.0125
1045.00,0.0121
1042.00,0.0121
1039.00,0.0128
1036.00,0.0153
1033.00,0.0203
1030.00,0.0254
1027.00,0.0263
1024.00,0.0226
1021.00,0.0191
1018.00,0.0170
1015.00,0.0156
1012.00,0.0145
1009.00,0.0139
1006.00,0.0142
1003.00,0.0147
1000.00,0.0135
997.00,0.0122
994.00,0.0117
991.00,0.0117
988.00,0.0120
985.00,0.0125
982.00,0.0129
979.00,0.0127
976.00,0.0118
973.00,0.0110
970.00,0.0111
967.00,0.0115
964.00,0.0118
961.00,0.0110
958.00,0.0096
955.00,0.0088
952.00,0.0085
949.00,0.0086
946.00,0.0088
943.00,0.0089
940.00,0.0087
937.00,0.0081
934.00,0.0074
931.00,0.0071
928.00,0.0070
925.00,0.0071
922.00,0.0074
919.00,0.0081
916.00,0.0093
913.00,0.0115
910.00,0.0142
907.00,0.0158
904.00,0.0150
901.00,0.0123
898.00,0.0096
895.00,0.0079
892.00,0.0071
889.00,0.0066
886.00,0.0061
883.00,0.0059
880.00,0.0057
877.00,0.0056
874.00,0.0054
871.00,0.0053
868.00,0.0051
865.00,0.0050
862.00,0.0051
859.00,0.0052
856.00,0.0051
853.00,0.0054
850.00,0.0063
847.00,0.0074
844.00,0.0084
841.00,0.0086
838.00,0.0078
835.00,0.0065
832.00,0.0053
829.00,0.0048
826.00,0.0047
823.00,0.0048
820.00,0.0047
817.00,0.0047
814.00,0.0049
811.00,0.0052
808.00,0.0052
805.00,0.0053
802.00,0.0056
799.00,0.0060
796.00,0.0065
793.00,0.0072
790.00,0.0082
787.00,0.0094
784.00,0.0108
781.00,0.0128
778.00,0.0158
775.00,0.0200
772.00,0.0253
769.00,0.0317
766.00,0.0383
763.00,0.0443
760.00,0.0504
757.00,0.0552
754.00,0.0566
751.00,0.0560
748.00,0.0556
745.00,0.0514
742.00,0.0415
739.00,0.0314
736.00,0.0231
733.00,0.0160
730.00,0.0117
727.00,0.0098
724.00,0.0092
721.00,0.0091
718.00,0.0096
715.00,0.0111
712.00,0.0152
709.00,0.0252
706.00,0.0451
703.00,0.0752
700.00,0.1119
697.00,0.1472
694.00,0.1570
691.00,0.1202
688.00,0.0796
685.00,0.0565
682.00,0.0442
679.00,0.0364
676.00,0.0314
673.00,0.0283
670.00,0.0264
667.00,0.0243
664.00,0.0217
661.00,0.0195
658.00,0.0175
655.00,0.0157
652.00,0.0143
649.00,0.0132
646.00,0.0125
643.00,0.0121
640.00,0.0119
637.00,0.0124
634.00,0.0133
631.00,0.0143
628.00,0.0149
625.00,0.0152
622.00,0.0159
619.00,0.0161
616.00,0.0151
613.00,0.0143
610.00,0.0140
607.00,0.0137
604.00,0.0138
601.00,0.0139
598.00,0.0141
595.00,0.0147
592.00,0.0151
589.00,0.0157
586.00,0.0162
583.00,0.0169
580.00,0.0182
577.00,0.0197
574.00,0.0221
571.00,0.0246
568.00,0.0270
565.00,0.0293
562.00,0.0318
559.00,0.0344
556.00,0.0368
553.00,0.0392
550.00,0.0421
547.00,0.0466
544.00,0.0521
541.00,0.0573
538.00,0.0600
535.00,0.0572
532.00,0.0502
529.00,0.0417
526.00,0.0344
523.00,0.0298
520.00,0.0263
517.00,0.0238
514.00,0.0222
511.00,0.0206
508.00,0.0188
505.00,0.0172
502.00,0.0156
499.00,0.0153
496.00,0.0147
493.00,0.0139
490.00,0.0135
487.00,0.0133
484.00,0.0129
481.00,0.0120
478.00,0.0122
475.00,0.0122
472.00,0.0112
469.00,0.0120
466.00,0.0120
463.00,0.0120
460.00,0.0112
457.00,0.0103
454.00,0.0109
451.00,0.0114
448.00,0.0113
445.00,0.0114
442.00,0.0111
439.00,0.0102
436.00,0.0110
433.00,0.0103
430.00,0.0099
427.00,0.0106
424.00,0.0106
421.00,0.0093
418.00,0.0070
415.00,0.0091
412.00,0.0107
409.00,0.0111
406.00,0.0110
403.00,0.0094
400.00,0.0004