File: FTIR/Mary/2025_06_10_Standard_Polystyrene_midset_2.csv
Created as New Dataset,Sample 650 By YargerLab Date Tuesday, June 10 2025
cm-1,A
4000.00,0.0039
3997.00,0.0039
3994.00,0.0039
3991.00,0.0039
3988.00,0.0039
3985.00,0.0039
3982.00,0.0038
3979.00,0.0038
3976.00,0.0038
3973.00,0.0038
3970.00,0.0038
3967.00,0.0038
3964.00,0.0039
3961.00,0.0039
3958.00,0.0039
3955.00,0.0039
3952.00,0.0038
3949.00,0.0038
3946.00,0.0039
3943.00,0.0038
3940.00,0.0038
3937.00,0.0038
3934.00,0.0039
3931.00,0.0039
3928.00,0.0038
3925.00,0.0038
3922.00,0.0038
3919.00,0.0038
3916.00,0.0037
3913.00,0.0037
3910.00,0.0037
3907.00,0.0038
3904.00,0.0038
3901.00,0.0039
3898.00,0.0039
3895.00,0.0039
3892.00,0.0038
3889.00,0.0039
3886.00,0.0038
3883.00,0.0038
3880.00,0.0037
3877.00,0.0037
3874.00,0.0038
3871.00,0.0039
3868.00,0.0039
3865.00,0.0039
3862.00,0.0038
3859.00,0.0038
3856.00,0.0038
3853.00,0.0038
3850.00,0.0038
3847.00,0.0038
3844.00,0.0038
3841.00,0.0038
3838.00,0.0039
3835.00,0.0038
3832.00,0.0038
3829.00,0.0038
3826.00,0.0037
3823.00,0.0037
3820.00,0.0037
3817.00,0.0037
3814.00,0.0037
3811.00,0.0037
3808.00,0.0037
3805.00,0.0038
3802.00,0.0038
3799.00,0.0037
3796.00,0.0037
3793.00,0.0037
3790.00,0.0037
3787.00,0.0036
3784.00,0.0036
3781.00,0.0036
3778.00,0.0036
3775.00,0.0036
3772.00,0.0038
3769.00,0.0038
3766.00,0.0037
3763.00,0.0037
3760.00,0.0037
3757.00,0.0037
3754.00,0.0037
3751.00,0.0038
3748.00,0.0038
3745.00,0.0038
3742.00,0.0038
3739.00,0.0037
3736.00,0.0038
3733.00,0.0038
3730.00,0.0037
3727.00,0.0037
3724.00,0.0037
3721.00,0.0037
3718.00,0.0036
3715.00,0.0036
3712.00,0.0036
3709.00,0.0037
3706.00,0.0037
3703.00,0.0036
3700.00,0.0036
3697.00,0.0036
3694.00,0.0036
3691.00,0.0036
3688.00,0.0036
3685.00,0.0036
3682.00,0.0035
3679.00,0.0036
3676.00,0.0038
3673.00,0.0037
3670.00,0.0036
3667.00,0.0036
3664.00,0.0037
3661.00,0.0037
3658.00,0.0036
3655.00,0.0037
3652.00,0.0038
3649.00,0.0038
3646.00,0.0037
3643.00,0.0036
3640.00,0.0037
3637.00,0.0037
3634.00,0.0037
3631.00,0.0038
3628.00,0.0038
3625.00,0.0039
3622.00,0.0038
3619.00,0.0037
3616.00,0.0038
3613.00,0.0038
3610.00,0.0039
3607.00,0.0039
3604.00,0.0039
3601.00,0.0039
3598.00,0.0040
3595.00,0.0040
3592.00,0.0040
3589.00,0.0040
3586.00,0.0041
3583.00,0.0041
3580.00,0.0040
3577.00,0.0040
3574.00,0.0041
3571.00,0.0042
3568.00,0.0043
3565.00,0.0043
3562.00,0.0042
3559.00,0.0042
3556.00,0.0042
3553.00,0.0042
3550.00,0.0042
3547.00,0.0044
3544.00,0.0044
3541.00,0.0044
3538.00,0.0045
3535.00,0.0044
3532.00,0.0044
3529.00,0.0045
3526.00,0.0046
3523.00,0.0047
3520.00,0.0048
3517.00,0.0048
3514.00,0.0048
3511.00,0.0048
3508.00,0.0047
3505.00,0.0048
3502.00,0.0049
3499.00,0.0049
3496.00,0.0049
3493.00,0.0049
3490.00,0.0049
3487.00,0.0049
3484.00,0.0050
3481.00,0.0050
3478.00,0.0051
3475.00,0.0051
3472.00,0.0051
3469.00,0.0051
3466.00,0.0051
3463.00,0.0052
3460.00,0.0053
3457.00,0.0056
3454.00,0.0055
3451.00,0.0054
3448.00,0.0054
3445.00,0.0055
3442.00,0.0055
3439.00,0.0055
3436.00,0.0056
3433.00,0.0056
3430.00,0.0057
3427.00,0.0058
3424.00,0.0057
3421.00,0.0058
3418.00,0.0059
3415.00,0.0060
3412.00,0.0061
3409.00,0.0061
3406.00,0.0062
3403.00,0.0062
3400.00,0.0064
3397.00,0.0065
3394.00,0.0064
3391.00,0.0065
3388.00,0.0066
3385.00,0.0067
3382.00,0.0067
3379.00,0.0068
3376.00,0.0069
3373.00,0.0070
3370.00,0.0070
3367.00,0.0072
3364.00,0.0074
3361.00,0.0075
3358.00,0.0075
3355.00,0.0077
3352.00,0.0078
3349.00,0.0079
3346.00,0.0081
3343.00,0.0082
3340.00,0.0085
3337.00,0.0087
3334.00,0.0088
3331.00,0.0089
3328.00,0.0091
3325.00,0.0092
3322.00,0.0093
3319.00,0.0095
3316.00,0.0096
3313.00,0.0098
3310.00,0.0099
3307.00,0.0100
3304.00,0.0101
3301.00,0.0103
3298.00,0.0103
3295.00,0.0105
3292.00,0.0105
3289.00,0.0105
3286.00,0.0104
3283.00,0.0104
3280.00,0.0103
3277.00,0.0103
3274.00,0.0101
3271.00,0.0099
3268.00,0.0098
3265.00,0.0097
3262.00,0.0094
3259.00,0.0093
3256.00,0.0091
3253.00,0.0089
3250.00,0.0088
3247.00,0.0087
3244.00,0.0086
3241.00,0.0085
3238.00,0.0084
3235.00,0.0083
3232.00,0.0082
3229.00,0.0080
3226.00,0.0080
3223.00,0.0079
3220.00,0.0078
3217.00,0.0077
3214.00,0.0076
3211.00,0.0076
3208.00,0.0075
3205.00,0.0074
3202.00,0.0074
3199.00,0.0073
3196.00,0.0072
3193.00,0.0071
3190.00,0.0070
3187.00,0.0069
3184.00,0.0068
3181.00,0.0067
3178.00,0.0066
3175.00,0.0067
3172.00,0.0065
3169.00,0.0065
3166.00,0.0065
3163.00,0.0063
3160.00,0.0062
3157.00,0.0062
3154.00,0.0061
3151.00,0.0061
3148.00,0.0060
3145.00,0.0060
3142.00,0.0060
3139.00,0.0059
3136.00,0.0059
3133.00,0.0058
3130.00,0.0058
3127.00,0.0059
3124.00,0.0058
3121.00,0.0058
3118.00,0.0059
3115.00,0.0060
3112.00,0.0062
3109.00,0.0066
3106.00,0.0069
3103.00,0.0071
3100.00,0.0071
3097.00,0.0070
3094.00,0.0072
3091.00,0.0076
3088.00,0.0085
3085.00,0.0096
3082.00,0.0100
3079.00,0.0096
3076.00,0.0090
3073.00,0.0088
3070.00,0.0091
3067.00,0.0098
3064.00,0.0109
3061.00,0.0118
3058.00,0.0117
3055.00,0.0107
3052.00,0.0095
3049.00,0.0088
3046.00,0.0085
3043.00,0.0085
3040.00,0.0090
3037.00,0.0098
3034.00,0.0113
3031.00,0.0138
3028.00,0.0165
3025.00,0.0176
3022.00,0.0158
3019.00,0.0124
3016.00,0.0098
3013.00,0.0085
3010.00,0.0079
3007.00,0.0078
3004.00,0.0081
3001.00,0.0082
2998.00,0.0077
2995.00,0.0071
2992.00,0.0066
2989.00,0.0064
2986.00,0.0064
2983.00,0.0064
2980.00,0.0065
2977.00,0.0066
2974.00,0.0067
2971.00,0.0068
2968.00,0.0070
2965.00,0.0072
2962.00,0.0075
2959.00,0.0078
2956.00,0.0081
2953.00,0.0086
2950.00,0.0092
2947.00,0.0100
2944.00,0.0111
2941.00,0.0124
2938.00,0.0140
2935.00,0.0157
2932.00,0.0176
2929.00,0.0194
2926.00,0.0209
2923.00,0.0220
2920.00,0.0224
2917.00,0.0221
2914.00,0.0208
2911.00,0.0191
2908.00,0.0176
2905.00,0.0162
2902.00,0.0149
2899.00,0.0136
2896.00,0.0125
2893.00,0.0116
2890.00,0.0109
2887.00,0.0104
2884.00,0.0100
2881.00,0.0095
2878.00,0.0092
2875.00,0.0089
2872.00,0.0087
2869.00,0.0085
2866.00,0.0086
2863.00,0.0089
2860.00,0.0095
2857.00,0.0106
2854.00,0.0117
2851.00,0.0126
2848.00,0.0125
2845.00,0.0114
2842.00,0.0100
2839.00,0.0086
2836.00,0.0075
2833.00,0.0067
2830.00,0.0063
2827.00,0.0060
2824.00,0.0059
2821.00,0.0058
2818.00,0.0057
2815.00,0.0056
2812.00,0.0056
2809.00,0.0055
2806.00,0.0054
2803.00,0.0054
2800.00,0.0053
2797.00,0.0052
2794.00,0.0051
2791.00,0.0051
2788.00,0.0051
2785.00,0.0051
2782.00,0.0051
2779.00,0.0050
2776.00,0.0050
2773.00,0.0050
2770.00,0.0049
2767.00,0.0048
2764.00,0.0048
2761.00,0.0048
2758.00,0.0048
2755.00,0.0048
2752.00,0.0047
2749.00,0.0047
2746.00,0.0047
2743.00,0.0047
2740.00,0.0047
2737.00,0.0047
2734.00,0.0046
2731.00,0.0046
2728.00,0.0047
2725.00,0.0047
2722.00,0.0047
2719.00,0.0047
2716.00,0.0047
2713.00,0.0046
2710.00,0.0046
2707.00,0.0046
2704.00,0.0046
2701.00,0.0046
2698.00,0.0046
2695.00,0.0046
2692.00,0.0046
2689.00,0.0045
2686.00,0.0045
2683.00,0.0046
2680.00,0.0045
2677.00,0.0045
2674.00,0.0045
2671.00,0.0044
2668.00,0.0045
2665.00,0.0046
2662.00,0.0047
2659.00,0.0047
2656.00,0.0047
2653.00,0.0047
2650.00,0.0047
2647.00,0.0047
2644.00,0.0047
2641.00,0.0046
2638.00,0.0046
2635.00,0.0047
2632.00,0.0047
2629.00,0.0047
2626.00,0.0047
2623.00,0.0046
2620.00,0.0046
2617.00,0.0046
2614.00,0.0045
2611.00,0.0046
2608.00,0.0046
2605.00,0.0046
2602.00,0.0045
2599.00,0.0045
2596.00,0.0044
2593.00,0.0044
2590.00,0.0043
2587.00,0.0044
2584.00,0.0043
2581.00,0.0043
2578.00,0.0042
2575.00,0.0041
2572.00,0.0042
2569.00,0.0042
2566.00,0.0042
2563.00,0.0042
2560.00,0.0042
2557.00,0.0042
2554.00,0.0040
2551.00,0.0041
2548.00,0.0041
2545.00,0.0040
2542.00,0.0041
2539.00,0.0041
2536.00,0.0041
2533.00,0.0041
2530.00,0.0041
2527.00,0.0041
2524.00,0.0040
2521.00,0.0040
2518.00,0.0041
2515.00,0.0041
2512.00,0.0039
2509.00,0.0040
2506.00,0.0040
2503.00,0.0040
2500.00,0.0039
2497.00,0.0039
2494.00,0.0039
2491.00,0.0039
2488.00,0.0040
2485.00,0.0040
2482.00,0.0039
2479.00,0.0038
2476.00,0.0039
2473.00,0.0038
2470.00,0.0038
2467.00,0.0039
2464.00,0.0038
2461.00,0.0038
2458.00,0.0039
2455.00,0.0039
2452.00,0.0038
2449.00,0.0038
2446.00,0.0038
2443.00,0.0038
2440.00,0.0038
2437.00,0.0038
2434.00,0.0037
2431.00,0.0037
2428.00,0.0036
2425.00,0.0036
2422.00,0.0036
2419.00,0.0036
2416.00,0.0036
2413.00,0.0036
2410.00,0.0036
2407.00,0.0036
2404.00,0.0036
2401.00,0.0035
2398.00,0.0036
2395.00,0.0034
2392.00,0.0035
2389.00,0.0035
2386.00,0.0035
2383.00,0.0034
2380.00,0.0034
2377.00,0.0035
2374.00,0.0035
2371.00,0.0035
2368.00,0.0035
2365.00,0.0035
2362.00,0.0037
2359.00,0.0036
2356.00,0.0035
2353.00,0.0036
2350.00,0.0037
2347.00,0.0038
2344.00,0.0039
2341.00,0.0039
2338.00,0.0039
2335.00,0.0039
2332.00,0.0039
2329.00,0.0040
2326.00,0.0043
2323.00,0.0043
2320.00,0.0043
2317.00,0.0042
2314.00,0.0041
2311.00,0.0041
2308.00,0.0040
2305.00,0.0039
2302.00,0.0039
2299.00,0.0040
2296.00,0.0041
2293.00,0.0043
2290.00,0.0042
2287.00,0.0042
2284.00,0.0041
2281.00,0.0039
2278.00,0.0038
2275.00,0.0038
2272.00,0.0038
2269.00,0.0040
2266.00,0.0038
2263.00,0.0038
2260.00,0.0038
2257.00,0.0037
2254.00,0.0037
2251.00,0.0038
2248.00,0.0038
2245.00,0.0036
2242.00,0.0036
2239.00,0.0037
2236.00,0.0039
2233.00,0.0038
2230.00,0.0037
2227.00,0.0035
2224.00,0.0035
2221.00,0.0036
2218.00,0.0037
2215.00,0.0037
2212.00,0.0035
2209.00,0.0035
2206.00,0.0037
2203.00,0.0037
2200.00,0.0039
2197.00,0.0037
2194.00,0.0038
2191.00,0.0037
2188.00,0.0038
2185.00,0.0039
2182.00,0.0032
2179.00,0.0031
2176.00,0.0032
2173.00,0.0038
2170.00,0.0042
2167.00,0.0047
2164.00,0.0044
2161.00,0.0033
2158.00,0.0015
2155.00,0.0020
2152.00,0.0023
2149.00,0.0023
2146.00,0.0023
2143.00,0.0023
2140.00,0.0024
2137.00,0.0021
2134.00,0.0020
2131.00,0.0023
2128.00,0.0026
2125.00,0.0026
2122.00,0.0028
2119.00,0.0030
2116.00,0.0031
2113.00,0.0031
2110.00,0.0030
2107.00,0.0033
2104.00,0.0032
2101.00,0.0031
2098.00,0.0029
2095.00,0.0027
2092.00,0.0030
2089.00,0.0030
2086.00,0.0030
2083.00,0.0032
2080.00,0.0034
2077.00,0.0037
2074.00,0.0038
2071.00,0.0034
2068.00,0.0032
2065.00,0.0029
2062.00,0.0030
2059.00,0.0031
2056.00,0.0031
2053.00,0.0036
2050.00,0.0036
2047.00,0.0029
2044.00,0.0033
2041.00,0.0039
2038.00,0.0032
2035.00,0.0029
2032.00,0.0026
2029.00,0.0024
2026.00,0.0028
2023.00,0.0031
2020.00,0.0028
2017.00,0.0028
2014.00,0.0022
2011.00,0.0005
2008.00,0.0022
2005.00,0.0029
2002.00,0.0032
1999.00,0.0028
1996.00,0.0026
1993.00,0.0031
1990.00,0.0034
1987.00,0.0037
1984.00,0.0039
1981.00,0.0048
1978.00,0.0039
1975.00,0.0026
1972.00,0.0029
1969.00,0.0032
1966.00,0.0034
1963.00,0.0036
1960.00,0.0033
1957.00,0.0031
1954.00,0.0034
1951.00,0.0038
1948.00,0.0043
1945.00,0.0041
1942.00,0.0043
1939.00,0.0041
1936.00,0.0038
1933.00,0.0034
1930.00,0.0032
1927.00,0.0031
1924.00,0.0029
1921.00,0.0028
1918.00,0.0029
1915.00,0.0028
1912.00,0.0028
1909.00,0.0028
1906.00,0.0028
1903.00,0.0028
1900.00,0.0028
1897.00,0.0030
1894.00,0.0032
1891.00,0.0034
1888.00,0.0035
1885.00,0.0037
1882.00,0.0037
1879.00,0.0038
1876.00,0.0038
1873.00,0.0039
1870.00,0.0040
1867.00,0.0039
1864.00,0.0037
1861.00,0.0034
1858.00,0.0032
1855.00,0.0031
1852.00,0.0029
1849.00,0.0027
1846.00,0.0028
1843.00,0.0027
1840.00,0.0026
1837.00,0.0026
1834.00,0.0027
1831.00,0.0027
1828.00,0.0028
1825.00,0.0029
1822.00,0.0030
1819.00,0.0030
1816.00,0.0032
1813.00,0.0034
1810.00,0.0036
1807.00,0.0038
1804.00,0.0040
1801.00,0.0040
1798.00,0.0038
1795.00,0.0037
1792.00,0.0035
1789.00,0.0031
1786.00,0.0029
1783.00,0.0029
1780.00,0.0028
1777.00,0.0029
1774.00,0.0029
1771.00,0.0029
1768.00,0.0027
1765.00,0.0026
1762.00,0.0026
1759.00,0.0025
1756.00,0.0026
1753.00,0.0027
1750.00,0.0027
1747.00,0.0026
1744.00,0.0025
1741.00,0.0025
1738.00,0.0026
1735.00,0.0028
1732.00,0.0027
1729.00,0.0026
1726.00,0.0025
1723.00,0.0026
1720.00,0.0028
1717.00,0.0030
1714.00,0.0032
1711.00,0.0036
1708.00,0.0043
1705.00,0.0053
1702.00,0.0065
1699.00,0.0077
1696.00,0.0081
1693.00,0.0090
1690.00,0.0098
1687.00,0.0106
1684.00,0.0113
1681.00,0.0122
1678.00,0.0129
1675.00,0.0135
1672.00,0.0139
1669.00,0.0145
1666.00,0.0149
1663.00,0.0155
1660.00,0.0161
1657.00,0.0166
1654.00,0.0170
1651.00,0.0176
1648.00,0.0177
1645.00,0.0177
1642.00,0.0175
1639.00,0.0175
1636.00,0.0175
1633.00,0.0174
1630.00,0.0170
1627.00,0.0165
1624.00,0.0156
1621.00,0.0145
1618.00,0.0135
1615.00,0.0126
1612.00,0.0123
1609.00,0.0129
1606.00,0.0155
1603.00,0.0194
1600.00,0.0198
1597.00,0.0158
1594.00,0.0123
1591.00,0.0105
1588.00,0.0100
1585.00,0.0112
1582.00,0.0116
1579.00,0.0101
1576.00,0.0091
1573.00,0.0091
1570.00,0.0091
1567.00,0.0094
1564.00,0.0098
1561.00,0.0104
1558.00,0.0114
1555.00,0.0117
1552.00,0.0124
1549.00,0.0131
1546.00,0.0139
1543.00,0.0147
1540.00,0.0151
1537.00,0.0155
1534.00,0.0157
1531.00,0.0162
1528.00,0.0163
1525.00,0.0163
1522.00,0.0164
1519.00,0.0168
1516.00,0.0170
1513.00,0.0168
1510.00,0.0165
1507.00,0.0160
1504.00,0.0162
1501.00,0.0171
1498.00,0.0219
1495.00,0.0364
1492.00,0.0436
1489.00,0.0300
1486.00,0.0192
1483.00,0.0143
1480.00,0.0118
1477.00,0.0108
1474.00,0.0104
1471.00,0.0103
1468.00,0.0103
1465.00,0.0107
1462.00,0.0116
1459.00,0.0142
1456.00,0.0259
1453.00,0.0394
1450.00,0.0395
1447.00,0.0319
1444.00,0.0264
1441.00,0.0219
1438.00,0.0186
1435.00,0.0151
1432.00,0.0128
1429.00,0.0110
1426.00,0.0099
1423.00,0.0094
1420.00,0.0092
1417.00,0.0091
1414.00,0.0088
1411.00,0.0088
1408.00,0.0088
1405.00,0.0087
1402.00,0.0086
1399.00,0.0087
1396.00,0.0088
1393.00,0.0092
1390.00,0.0097
1387.00,0.0105
1384.00,0.0112
1381.00,0.0119
1378.00,0.0125
1375.00,0.0131
1372.00,0.0132
1369.00,0.0130
1366.00,0.0128
1363.00,0.0126
1360.00,0.0122
1357.00,0.0119
1354.00,0.0118
1351.00,0.0121
1348.00,0.0120
1345.00,0.0115
1342.00,0.0112
1339.00,0.0109
1336.00,0.0110
1333.00,0.0113
1330.00,0.0115
1327.00,0.0114
1324.00,0.0111
1321.00,0.0110
1318.00,0.0112
1315.00,0.0115
1312.00,0.0116
1309.00,0.0115
1306.00,0.0111
1303.00,0.0106
1300.00,0.0102
1297.00,0.0099
1294.00,0.0098
1291.00,0.0096
1288.00,0.0094
1285.00,0.0094
1282.00,0.0094
1279.00,0.0093
1276.00,0.0093
1273.00,0.0090
1270.00,0.0089
1267.00,0.0088
1264.00,0.0087
1261.00,0.0087
1258.00,0.0086
1255.00,0.0086
1252.00,0.0088
1249.00,0.0089
1246.00,0.0090
1243.00,0.0092
1240.00,0.0094
1237.00,0.0095
1234.00,0.0099
1231.00,0.0104
1228.00,0.0107
1225.00,0.0107
1222.00,0.0103
1219.00,0.0099
1216.00,0.0096
1213.00,0.0094
1210.00,0.0094
1207.00,0.0094
1204.00,0.0095
1201.00,0.0097
1198.00,0.0098
1195.00,0.0099
1192.00,0.0100
1189.00,0.0101
1186.00,0.0105
1183.00,0.0115
1180.00,0.0117
1177.00,0.0103
1174.00,0.0091
1171.00,0.0086
1168.00,0.0085
1165.00,0.0086
1162.00,0.0088
1159.00,0.0099
1156.00,0.0115
1153.00,0.0116
1150.00,0.0097
1147.00,0.0081
1144.00,0.0072
1141.00,0.0068
1138.00,0.0065
1135.00,0.0062
1132.00,0.0062
1129.00,0.0063
1126.00,0.0066
1123.00,0.0070
1120.00,0.0074
1117.00,0.0076
1114.00,0.0077
1111.00,0.0077
1108.00,0.0077
1105.00,0.0079
1102.00,0.0080
1099.00,0.0080
1096.00,0.0081
1093.00,0.0083
1090.00,0.0085
1087.00,0.0089
1084.00,0.0097
1081.00,0.0105
1078.00,0.0113
1075.00,0.0125
1072.00,0.0140
1069.00,0.0146
1066.00,0.0142
1063.00,0.0130
1060.00,0.0118
1057.00,0.0111
1054.00,0.0103
1051.00,0.0096
1048.00,0.0091
1045.00,0.0088
1042.00,0.0088
1039.00,0.0092
1036.00,0.0114
1033.00,0.0162
1030.00,0.0214
1027.00,0.0226
1024.00,0.0190
1021.00,0.0158
1018.00,0.0137
1015.00,0.0122
1012.00,0.0114
1009.00,0.0111
1006.00,0.0114
1003.00,0.0117
1000.00,0.0107
997.00,0.0095
994.00,0.0090
991.00,0.0089
988.00,0.0092
985.00,0.0100
982.00,0.0106
979.00,0.0108
976.00,0.0103
973.00,0.0099
970.00,0.0102
967.00,0.0110
964.00,0.0113
961.00,0.0107
958.00,0.0096
955.00,0.0088
952.00,0.0087
949.00,0.0088
946.00,0.0091
943.00,0.0092
940.00,0.0091
937.00,0.0086
934.00,0.0078
931.00,0.0072
928.00,0.0070
925.00,0.0072
922.00,0.0076
919.00,0.0082
916.00,0.0094
913.00,0.0116
910.00,0.0144
907.00,0.0163
904.00,0.0156
901.00,0.0127
898.00,0.0097
895.00,0.0078
892.00,0.0068
889.00,0.0062
886.00,0.0060
883.00,0.0057
880.00,0.0055
877.00,0.0054
874.00,0.0052
871.00,0.0050
868.00,0.0050
865.00,0.0050
862.00,0.0050
859.00,0.0052
856.00,0.0053
853.00,0.0058
850.00,0.0063
847.00,0.0074
844.00,0.0087
841.00,0.0092
838.00,0.0085
835.00,0.0072
832.00,0.0063
829.00,0.0058
826.00,0.0056
823.00,0.0054
820.00,0.0053
817.00,0.0053
814.00,0.0055
811.00,0.0054
808.00,0.0056
805.00,0.0057
802.00,0.0059
799.00,0.0063
796.00,0.0071
793.00,0.0080
790.00,0.0090
787.00,0.0102
784.00,0.0119
781.00,0.0140
778.00,0.0170
775.00,0.0216
772.00,0.0275
769.00,0.0346
766.00,0.0418
763.00,0.0489
760.00,0.0563
757.00,0.0624
754.00,0.0644
751.00,0.0640
748.00,0.0637
745.00,0.0589
742.00,0.0475
739.00,0.0359
736.00,0.0268
733.00,0.0190
730.00,0.0139
727.00,0.0116
724.00,0.0107
721.00,0.0108
718.00,0.0113
715.00,0.0128
712.00,0.0172
709.00,0.0282
706.00,0.0509
703.00,0.0867
700.00,0.1316
697.00,0.1772
694.00,0.1961
691.00,0.1532
688.00,0.1015
685.00,0.0720
682.00,0.0562
679.00,0.0461
676.00,0.0394
673.00,0.0353
670.00,0.0327
667.00,0.0293
664.00,0.0269
661.00,0.0243
658.00,0.0219
655.00,0.0198
652.00,0.0181
649.00,0.0169
646.00,0.0159
643.00,0.0153
640.00,0.0154
637.00,0.0159
634.00,0.0165
631.00,0.0173
628.00,0.0181
625.00,0.0184
622.00,0.0190
619.00,0.0188
616.00,0.0177
613.00,0.0169
610.00,0.0163
607.00,0.0157
604.00,0.0155
601.00,0.0157
598.00,0.0159
595.00,0.0163
592.00,0.0168
589.00,0.0173
586.00,0.0179
583.00,0.0188
580.00,0.0202
577.00,0.0226
574.00,0.0252
571.00,0.0281
568.00,0.0306
565.00,0.0332
562.00,0.0362
559.00,0.0389
556.00,0.0418
553.00,0.0453
550.00,0.0488
547.00,0.0539
544.00,0.0608
541.00,0.0681
538.00,0.0724
535.00,0.0693
532.00,0.0603
529.00,0.0502
526.00,0.0414
523.00,0.0349
520.00,0.0307
517.00,0.0280
514.00,0.0260
511.00,0.0237
508.00,0.0218
505.00,0.0203
502.00,0.0192
499.00,0.0177
496.00,0.0169
493.00,0.0164
490.00,0.0154
487.00,0.0147
484.00,0.0144
481.00,0.0142
478.00,0.0135
475.00,0.0125
472.00,0.0129
469.00,0.0131
466.00,0.0124
463.00,0.0122
460.00,0.0119
457.00,0.0119
454.00,0.0109
451.00,0.0109
448.00,0.0107
445.00,0.0106
442.00,0.0107
439.00,0.0094
436.00,0.0090
433.00,0.0093
430.00,0.0094
427.00,0.0081
424.00,0.0079
421.00,0.0082
418.00,0.0071
415.00,0.0069
412.00,0.0094
409.00,0.0095
406.00,0.0077
403.00,0.0069
400.00,0.0056