File: FTIR/Mary/2025_06_11_Standard_Polystyrene_postscan1.csv
Created as New Dataset,Sample 668 By YargerLab Date Wednesday, June 11 2025
cm-1,A
4000.00,0.0015
3997.00,0.0015
3994.00,0.0014
3991.00,0.0015
3988.00,0.0017
3985.00,0.0015
3982.00,0.0015
3979.00,0.0016
3976.00,0.0014
3973.00,0.0014
3970.00,0.0015
3967.00,0.0015
3964.00,0.0015
3961.00,0.0014
3958.00,0.0014
3955.00,0.0014
3952.00,0.0014
3949.00,0.0014
3946.00,0.0013
3943.00,0.0012
3940.00,0.0014
3937.00,0.0014
3934.00,0.0014
3931.00,0.0015
3928.00,0.0015
3925.00,0.0013
3922.00,0.0015
3919.00,0.0015
3916.00,0.0014
3913.00,0.0015
3910.00,0.0016
3907.00,0.0015
3904.00,0.0013
3901.00,0.0011
3898.00,0.0014
3895.00,0.0014
3892.00,0.0013
3889.00,0.0013
3886.00,0.0012
3883.00,0.0012
3880.00,0.0013
3877.00,0.0015
3874.00,0.0015
3871.00,0.0015
3868.00,0.0014
3865.00,0.0013
3862.00,0.0015
3859.00,0.0015
3856.00,0.0014
3853.00,0.0011
3850.00,0.0013
3847.00,0.0014
3844.00,0.0014
3841.00,0.0014
3838.00,0.0014
3835.00,0.0015
3832.00,0.0017
3829.00,0.0015
3826.00,0.0015
3823.00,0.0015
3820.00,0.0014
3817.00,0.0013
3814.00,0.0013
3811.00,0.0015
3808.00,0.0014
3805.00,0.0013
3802.00,0.0016
3799.00,0.0017
3796.00,0.0015
3793.00,0.0013
3790.00,0.0015
3787.00,0.0015
3784.00,0.0014
3781.00,0.0015
3778.00,0.0016
3775.00,0.0016
3772.00,0.0015
3769.00,0.0018
3766.00,0.0015
3763.00,0.0013
3760.00,0.0013
3757.00,0.0014
3754.00,0.0015
3751.00,0.0015
3748.00,0.0013
3745.00,0.0011
3742.00,0.0014
3739.00,0.0014
3736.00,0.0014
3733.00,0.0010
3730.00,0.0013
3727.00,0.0016
3724.00,0.0012
3721.00,0.0011
3718.00,0.0013
3715.00,0.0014
3712.00,0.0015
3709.00,0.0015
3706.00,0.0014
3703.00,0.0013
3700.00,0.0014
3697.00,0.0015
3694.00,0.0013
3691.00,0.0014
3688.00,0.0012
3685.00,0.0012
3682.00,0.0011
3679.00,0.0015
3676.00,0.0016
3673.00,0.0012
3670.00,0.0011
3667.00,0.0014
3664.00,0.0014
3661.00,0.0013
3658.00,0.0014
3655.00,0.0014
3652.00,0.0012
3649.00,0.0011
3646.00,0.0015
3643.00,0.0013
3640.00,0.0012
3637.00,0.0012
3634.00,0.0013
3631.00,0.0015
3628.00,0.0014
3625.00,0.0014
3622.00,0.0017
3619.00,0.0014
3616.00,0.0012
3613.00,0.0010
3610.00,0.0009
3607.00,0.0011
3604.00,0.0012
3601.00,0.0014
3598.00,0.0012
3595.00,0.0010
3592.00,0.0009
3589.00,0.0010
3586.00,0.0011
3583.00,0.0011
3580.00,0.0013
3577.00,0.0013
3574.00,0.0013
3571.00,0.0011
3568.00,0.0010
3565.00,0.0009
3562.00,0.0012
3559.00,0.0012
3556.00,0.0014
3553.00,0.0015
3550.00,0.0013
3547.00,0.0013
3544.00,0.0011
3541.00,0.0013
3538.00,0.0015
3535.00,0.0015
3532.00,0.0014
3529.00,0.0013
3526.00,0.0013
3523.00,0.0013
3520.00,0.0019
3517.00,0.0016
3514.00,0.0014
3511.00,0.0013
3508.00,0.0012
3505.00,0.0012
3502.00,0.0012
3499.00,0.0011
3496.00,0.0012
3493.00,0.0013
3490.00,0.0013
3487.00,0.0014
3484.00,0.0014
3481.00,0.0014
3478.00,0.0015
3475.00,0.0013
3472.00,0.0013
3469.00,0.0013
3466.00,0.0013
3463.00,0.0013
3460.00,0.0014
3457.00,0.0014
3454.00,0.0015
3451.00,0.0015
3448.00,0.0015
3445.00,0.0015
3442.00,0.0016
3439.00,0.0014
3436.00,0.0013
3433.00,0.0013
3430.00,0.0013
3427.00,0.0015
3424.00,0.0015
3421.00,0.0013
3418.00,0.0014
3415.00,0.0014
3412.00,0.0013
3409.00,0.0014
3406.00,0.0013
3403.00,0.0014
3400.00,0.0014
3397.00,0.0015
3394.00,0.0016
3391.00,0.0016
3388.00,0.0015
3385.00,0.0013
3382.00,0.0012
3379.00,0.0012
3376.00,0.0015
3373.00,0.0014
3370.00,0.0012
3367.00,0.0012
3364.00,0.0013
3361.00,0.0013
3358.00,0.0012
3355.00,0.0010
3352.00,0.0013
3349.00,0.0014
3346.00,0.0009
3343.00,0.0009
3340.00,0.0009
3337.00,0.0009
3334.00,0.0009
3331.00,0.0009
3328.00,0.0008
3325.00,0.0010
3322.00,0.0008
3319.00,0.0009
3316.00,0.0011
3313.00,0.0011
3310.00,0.0011
3307.00,0.0007
3304.00,0.0008
3301.00,0.0009
3298.00,0.0007
3295.00,0.0006
3292.00,0.0008
3289.00,0.0007
3286.00,0.0007
3283.00,0.0006
3280.00,0.0006
3277.00,0.0008
3274.00,0.0009
3271.00,0.0010
3268.00,0.0015
3265.00,0.0012
3262.00,0.0010
3259.00,0.0008
3256.00,0.0009
3253.00,0.0011
3250.00,0.0014
3247.00,0.0013
3244.00,0.0011
3241.00,0.0012
3238.00,0.0013
3235.00,0.0014
3232.00,0.0014
3229.00,0.0013
3226.00,0.0013
3223.00,0.0012
3220.00,0.0014
3217.00,0.0015
3214.00,0.0014
3211.00,0.0016
3208.00,0.0015
3205.00,0.0015
3202.00,0.0015
3199.00,0.0015
3196.00,0.0018
3193.00,0.0017
3190.00,0.0017
3187.00,0.0017
3184.00,0.0015
3181.00,0.0016
3178.00,0.0017
3175.00,0.0017
3172.00,0.0019
3169.00,0.0018
3166.00,0.0017
3163.00,0.0018
3160.00,0.0017
3157.00,0.0019
3154.00,0.0018
3151.00,0.0017
3148.00,0.0017
3145.00,0.0017
3142.00,0.0017
3139.00,0.0017
3136.00,0.0017
3133.00,0.0016
3130.00,0.0018
3127.00,0.0017
3124.00,0.0017
3121.00,0.0016
3118.00,0.0017
3115.00,0.0020
3112.00,0.0023
3109.00,0.0025
3106.00,0.0029
3103.00,0.0031
3100.00,0.0030
3097.00,0.0031
3094.00,0.0031
3091.00,0.0037
3088.00,0.0046
3085.00,0.0056
3082.00,0.0063
3079.00,0.0057
3076.00,0.0048
3073.00,0.0047
3070.00,0.0050
3067.00,0.0058
3064.00,0.0069
3061.00,0.0078
3058.00,0.0078
3055.00,0.0069
3052.00,0.0058
3049.00,0.0049
3046.00,0.0046
3043.00,0.0047
3040.00,0.0054
3037.00,0.0063
3034.00,0.0080
3031.00,0.0108
3028.00,0.0136
3025.00,0.0148
3022.00,0.0130
3019.00,0.0091
3016.00,0.0062
3013.00,0.0052
3010.00,0.0046
3007.00,0.0045
3004.00,0.0050
3001.00,0.0051
2998.00,0.0044
2995.00,0.0036
2992.00,0.0031
2989.00,0.0029
2986.00,0.0029
2983.00,0.0029
2980.00,0.0030
2977.00,0.0028
2974.00,0.0030
2971.00,0.0030
2968.00,0.0031
2965.00,0.0035
2962.00,0.0037
2959.00,0.0039
2956.00,0.0043
2953.00,0.0049
2950.00,0.0054
2947.00,0.0062
2944.00,0.0072
2941.00,0.0086
2938.00,0.0102
2935.00,0.0117
2932.00,0.0131
2929.00,0.0147
2926.00,0.0158
2923.00,0.0163
2920.00,0.0163
2917.00,0.0155
2914.00,0.0148
2911.00,0.0137
2908.00,0.0126
2905.00,0.0116
2902.00,0.0104
2899.00,0.0090
2896.00,0.0080
2893.00,0.0073
2890.00,0.0069
2887.00,0.0064
2884.00,0.0060
2881.00,0.0058
2878.00,0.0054
2875.00,0.0049
2872.00,0.0047
2869.00,0.0046
2866.00,0.0047
2863.00,0.0052
2860.00,0.0058
2857.00,0.0064
2854.00,0.0069
2851.00,0.0072
2848.00,0.0075
2845.00,0.0072
2842.00,0.0061
2839.00,0.0050
2836.00,0.0041
2833.00,0.0035
2830.00,0.0030
2827.00,0.0028
2824.00,0.0026
2821.00,0.0026
2818.00,0.0024
2815.00,0.0023
2812.00,0.0024
2809.00,0.0025
2806.00,0.0023
2803.00,0.0022
2800.00,0.0022
2797.00,0.0023
2794.00,0.0023
2791.00,0.0022
2788.00,0.0020
2785.00,0.0022
2782.00,0.0021
2779.00,0.0021
2776.00,0.0021
2773.00,0.0020
2770.00,0.0021
2767.00,0.0019
2764.00,0.0018
2761.00,0.0020
2758.00,0.0018
2755.00,0.0017
2752.00,0.0018
2749.00,0.0019
2746.00,0.0017
2743.00,0.0016
2740.00,0.0018
2737.00,0.0019
2734.00,0.0019
2731.00,0.0018
2728.00,0.0018
2725.00,0.0018
2722.00,0.0017
2719.00,0.0018
2716.00,0.0018
2713.00,0.0017
2710.00,0.0017
2707.00,0.0018
2704.00,0.0019
2701.00,0.0019
2698.00,0.0018
2695.00,0.0018
2692.00,0.0018
2689.00,0.0018
2686.00,0.0018
2683.00,0.0017
2680.00,0.0018
2677.00,0.0017
2674.00,0.0017
2671.00,0.0018
2668.00,0.0018
2665.00,0.0020
2662.00,0.0021
2659.00,0.0020
2656.00,0.0021
2653.00,0.0021
2650.00,0.0021
2647.00,0.0021
2644.00,0.0020
2641.00,0.0019
2638.00,0.0018
2635.00,0.0019
2632.00,0.0021
2629.00,0.0022
2626.00,0.0022
2623.00,0.0020
2620.00,0.0021
2617.00,0.0021
2614.00,0.0019
2611.00,0.0020
2608.00,0.0019
2605.00,0.0019
2602.00,0.0016
2599.00,0.0017
2596.00,0.0017
2593.00,0.0019
2590.00,0.0018
2587.00,0.0016
2584.00,0.0016
2581.00,0.0019
2578.00,0.0018
2575.00,0.0017
2572.00,0.0017
2569.00,0.0018
2566.00,0.0015
2563.00,0.0014
2560.00,0.0014
2557.00,0.0014
2554.00,0.0015
2551.00,0.0018
2548.00,0.0018
2545.00,0.0013
2542.00,0.0014
2539.00,0.0016
2536.00,0.0016
2533.00,0.0013
2530.00,0.0014
2527.00,0.0015
2524.00,0.0015
2521.00,0.0015
2518.00,0.0015
2515.00,0.0017
2512.00,0.0012
2509.00,0.0015
2506.00,0.0011
2503.00,0.0011
2500.00,0.0014
2497.00,0.0014
2494.00,0.0014
2491.00,0.0014
2488.00,0.0013
2485.00,0.0015
2482.00,0.0015
2479.00,0.0015
2476.00,0.0015
2473.00,0.0016
2470.00,0.0015
2467.00,0.0013
2464.00,0.0012
2461.00,0.0011
2458.00,0.0014
2455.00,0.0016
2452.00,0.0014
2449.00,0.0015
2446.00,0.0013
2443.00,0.0012
2440.00,0.0012
2437.00,0.0012
2434.00,0.0013
2431.00,0.0014
2428.00,0.0013
2425.00,0.0012
2422.00,0.0013
2419.00,0.0016
2416.00,0.0012
2413.00,0.0011
2410.00,0.0013
2407.00,0.0011
2404.00,0.0010
2401.00,0.0011
2398.00,0.0011
2395.00,0.0011
2392.00,0.0010
2389.00,0.0010
2386.00,0.0011
2383.00,0.0010
2380.00,0.0007
2377.00,0.0008
2374.00,0.0010
2371.00,0.0011
2368.00,0.0008
2365.00,0.0006
2362.00,0.0009
2359.00,0.0012
2356.00,0.0012
2353.00,0.0007
2350.00,0.0007
2347.00,0.0011
2344.00,0.0012
2341.00,0.0013
2338.00,0.0013
2335.00,0.0012
2332.00,0.0009
2329.00,0.0010
2326.00,0.0018
2323.00,0.0019
2320.00,0.0017
2317.00,0.0014
2314.00,0.0014
2311.00,0.0015
2308.00,0.0016
2305.00,0.0012
2302.00,0.0012
2299.00,0.0017
2296.00,0.0017
2293.00,0.0016
2290.00,0.0017
2287.00,0.0019
2284.00,0.0018
2281.00,0.0018
2278.00,0.0021
2275.00,0.0017
2272.00,0.0016
2269.00,0.0017
2266.00,0.0014
2263.00,0.0007
2260.00,0.0009
2257.00,0.0009
2254.00,0.0010
2251.00,0.0009
2248.00,0.0009
2245.00,0.0011
2242.00,0.0012
2239.00,0.0010
2236.00,0.0006
2233.00,0.0010
2230.00,0.0014
2227.00,0.0012
2224.00,0.0008
2221.00,0.0006
2218.00,0.0008
2215.00,0.0009
2212.00,0.0011
2209.00,0.0012
2206.00,0.0012
2203.00,0.0012
2200.00,0.0014
2197.00,0.0010
2194.00,0.0012
2191.00,0.0010
2188.00,0.0012
2185.00,0.0011
2182.00,-0.0001
2179.00,0.0003
2176.00,0.0001
2173.00,0.0012
2170.00,0.0021
2167.00,0.0028
2164.00,0.0019
2161.00,0.0009
2158.00,-0.0016
2155.00,-0.0015
2152.00,-0.0005
2149.00,-0.0001
2146.00,0.0000
2143.00,0.0006
2140.00,0.0003
2137.00,-0.0002
2134.00,-0.0007
2131.00,-0.0002
2128.00,-0.0002
2125.00,-0.0001
2122.00,0.0003
2119.00,0.0007
2116.00,0.0006
2113.00,0.0010
2110.00,0.0013
2107.00,0.0012
2104.00,0.0008
2101.00,0.0010
2098.00,0.0012
2095.00,0.0005
2092.00,0.0009
2089.00,0.0008
2086.00,0.0008
2083.00,0.0008
2080.00,0.0008
2077.00,0.0009
2074.00,0.0010
2071.00,0.0010
2068.00,0.0008
2065.00,0.0011
2062.00,0.0012
2059.00,0.0008
2056.00,0.0004
2053.00,0.0012
2050.00,0.0019
2047.00,0.0012
2044.00,0.0013
2041.00,0.0006
2038.00,0.0011
2035.00,0.0002
2032.00,-0.0006
2029.00,0.0002
2026.00,0.0000
2023.00,0.0002
2020.00,-0.0007
2017.00,-0.0003
2014.00,-0.0002
2011.00,0.0003
2008.00,0.0015
2005.00,0.0001
2002.00,0.0001
1999.00,0.0007
1996.00,0.0014
1993.00,0.0016
1990.00,0.0023
1987.00,0.0014
1984.00,0.0015
1981.00,0.0019
1978.00,0.0004
1975.00,-0.0006
1972.00,0.0005
1969.00,0.0009
1966.00,0.0012
1963.00,0.0009
1960.00,0.0006
1957.00,0.0008
1954.00,0.0013
1951.00,0.0016
1948.00,0.0022
1945.00,0.0019
1942.00,0.0017
1939.00,0.0018
1936.00,0.0016
1933.00,0.0015
1930.00,0.0012
1927.00,0.0011
1924.00,0.0010
1921.00,0.0012
1918.00,0.0012
1915.00,0.0010
1912.00,0.0003
1909.00,0.0004
1906.00,0.0006
1903.00,0.0007
1900.00,0.0011
1897.00,0.0011
1894.00,0.0011
1891.00,0.0013
1888.00,0.0016
1885.00,0.0017
1882.00,0.0019
1879.00,0.0019
1876.00,0.0018
1873.00,0.0020
1870.00,0.0021
1867.00,0.0022
1864.00,0.0021
1861.00,0.0018
1858.00,0.0018
1855.00,0.0013
1852.00,0.0011
1849.00,0.0010
1846.00,0.0009
1843.00,0.0009
1840.00,0.0010
1837.00,0.0009
1834.00,0.0010
1831.00,0.0012
1828.00,0.0014
1825.00,0.0015
1822.00,0.0015
1819.00,0.0017
1816.00,0.0017
1813.00,0.0019
1810.00,0.0023
1807.00,0.0025
1804.00,0.0024
1801.00,0.0023
1798.00,0.0024
1795.00,0.0023
1792.00,0.0019
1789.00,0.0017
1786.00,0.0014
1783.00,0.0015
1780.00,0.0014
1777.00,0.0014
1774.00,0.0014
1771.00,0.0014
1768.00,0.0015
1765.00,0.0014
1762.00,0.0015
1759.00,0.0017
1756.00,0.0020
1753.00,0.0021
1750.00,0.0022
1747.00,0.0024
1744.00,0.0025
1741.00,0.0024
1738.00,0.0025
1735.00,0.0024
1732.00,0.0023
1729.00,0.0021
1726.00,0.0020
1723.00,0.0019
1720.00,0.0019
1717.00,0.0015
1714.00,0.0018
1711.00,0.0018
1708.00,0.0017
1705.00,0.0016
1702.00,0.0016
1699.00,0.0017
1696.00,0.0018
1693.00,0.0018
1690.00,0.0020
1687.00,0.0022
1684.00,0.0023
1681.00,0.0024
1678.00,0.0026
1675.00,0.0026
1672.00,0.0026
1669.00,0.0024
1666.00,0.0024
1663.00,0.0026
1660.00,0.0024
1657.00,0.0023
1654.00,0.0022
1651.00,0.0021
1648.00,0.0021
1645.00,0.0021
1642.00,0.0021
1639.00,0.0020
1636.00,0.0021
1633.00,0.0022
1630.00,0.0021
1627.00,0.0023
1624.00,0.0026
1621.00,0.0031
1618.00,0.0035
1615.00,0.0041
1612.00,0.0048
1609.00,0.0064
1606.00,0.0100
1603.00,0.0143
1600.00,0.0150
1597.00,0.0112
1594.00,0.0077
1591.00,0.0060
1588.00,0.0056
1585.00,0.0068
1582.00,0.0070
1579.00,0.0051
1576.00,0.0038
1573.00,0.0033
1570.00,0.0029
1567.00,0.0027
1564.00,0.0026
1561.00,0.0027
1558.00,0.0028
1555.00,0.0029
1552.00,0.0031
1549.00,0.0034
1546.00,0.0034
1543.00,0.0035
1540.00,0.0032
1537.00,0.0032
1534.00,0.0031
1531.00,0.0028
1528.00,0.0026
1525.00,0.0024
1522.00,0.0023
1519.00,0.0023
1516.00,0.0024
1513.00,0.0025
1510.00,0.0029
1507.00,0.0031
1504.00,0.0040
1501.00,0.0057
1498.00,0.0115
1495.00,0.0272
1492.00,0.0349
1489.00,0.0218
1486.00,0.0120
1483.00,0.0077
1480.00,0.0058
1477.00,0.0050
1474.00,0.0047
1471.00,0.0045
1468.00,0.0048
1465.00,0.0052
1462.00,0.0061
1459.00,0.0086
1456.00,0.0206
1453.00,0.0338
1450.00,0.0333
1447.00,0.0256
1444.00,0.0203
1441.00,0.0160
1438.00,0.0127
1435.00,0.0094
1432.00,0.0072
1429.00,0.0057
1426.00,0.0048
1423.00,0.0044
1420.00,0.0043
1417.00,0.0042
1414.00,0.0041
1411.00,0.0039
1408.00,0.0040
1405.00,0.0041
1402.00,0.0042
1399.00,0.0044
1396.00,0.0045
1393.00,0.0050
1390.00,0.0056
1387.00,0.0062
1384.00,0.0070
1381.00,0.0077
1378.00,0.0082
1375.00,0.0085
1372.00,0.0087
1369.00,0.0086
1366.00,0.0085
1363.00,0.0081
1360.00,0.0078
1357.00,0.0077
1354.00,0.0074
1351.00,0.0073
1348.00,0.0073
1345.00,0.0071
1342.00,0.0067
1339.00,0.0065
1336.00,0.0065
1333.00,0.0069
1330.00,0.0073
1327.00,0.0074
1324.00,0.0072
1321.00,0.0069
1318.00,0.0069
1315.00,0.0071
1312.00,0.0073
1309.00,0.0071
1306.00,0.0068
1303.00,0.0065
1300.00,0.0062
1297.00,0.0059
1294.00,0.0059
1291.00,0.0059
1288.00,0.0056
1285.00,0.0054
1282.00,0.0054
1279.00,0.0051
1276.00,0.0048
1273.00,0.0045
1270.00,0.0044
1267.00,0.0044
1264.00,0.0042
1261.00,0.0039
1258.00,0.0036
1255.00,0.0036
1252.00,0.0043
1249.00,0.0044
1246.00,0.0043
1243.00,0.0043
1240.00,0.0042
1237.00,0.0041
1234.00,0.0039
1231.00,0.0039
1228.00,0.0042
1225.00,0.0043
1222.00,0.0042
1219.00,0.0042
1216.00,0.0044
1213.00,0.0046
1210.00,0.0047
1207.00,0.0050
1204.00,0.0055
1201.00,0.0060
1198.00,0.0064
1195.00,0.0066
1192.00,0.0067
1189.00,0.0067
1186.00,0.0074
1183.00,0.0085
1180.00,0.0086
1177.00,0.0071
1174.00,0.0058
1171.00,0.0051
1168.00,0.0049
1165.00,0.0048
1162.00,0.0051
1159.00,0.0061
1156.00,0.0079
1153.00,0.0081
1150.00,0.0065
1147.00,0.0050
1144.00,0.0043
1141.00,0.0040
1138.00,0.0038
1135.00,0.0038
1132.00,0.0036
1129.00,0.0034
1126.00,0.0034
1123.00,0.0036
1120.00,0.0038
1117.00,0.0043
1114.00,0.0046
1111.00,0.0045
1108.00,0.0043
1105.00,0.0043
1102.00,0.0043
1099.00,0.0047
1096.00,0.0053
1093.00,0.0056
1090.00,0.0059
1087.00,0.0063
1084.00,0.0070
1081.00,0.0080
1078.00,0.0085
1075.00,0.0097
1072.00,0.0111
1069.00,0.0119
1066.00,0.0110
1063.00,0.0095
1060.00,0.0079
1057.00,0.0066
1054.00,0.0058
1051.00,0.0058
1048.00,0.0057
1045.00,0.0054
1042.00,0.0055
1039.00,0.0059
1036.00,0.0077
1033.00,0.0126
1030.00,0.0178
1027.00,0.0187
1024.00,0.0152
1021.00,0.0120
1018.00,0.0100
1015.00,0.0084
1012.00,0.0074
1009.00,0.0063
1006.00,0.0063
1003.00,0.0074
1000.00,0.0064
997.00,0.0053
994.00,0.0049
991.00,0.0051
988.00,0.0054
985.00,0.0060
982.00,0.0066
979.00,0.0070
976.00,0.0069
973.00,0.0068
970.00,0.0072
967.00,0.0081
964.00,0.0086
961.00,0.0081
958.00,0.0070
955.00,0.0061
952.00,0.0063
949.00,0.0065
946.00,0.0067
943.00,0.0071
940.00,0.0071
937.00,0.0061
934.00,0.0051
931.00,0.0052
928.00,0.0051
925.00,0.0051
922.00,0.0056
919.00,0.0063
916.00,0.0076
913.00,0.0098
910.00,0.0126
907.00,0.0144
904.00,0.0137
901.00,0.0109
898.00,0.0080
895.00,0.0062
892.00,0.0055
889.00,0.0050
886.00,0.0045
883.00,0.0042
880.00,0.0042
877.00,0.0040
874.00,0.0038
871.00,0.0038
868.00,0.0036
865.00,0.0038
862.00,0.0037
859.00,0.0035
856.00,0.0035
853.00,0.0042
850.00,0.0049
847.00,0.0058
844.00,0.0067
841.00,0.0073
838.00,0.0066
835.00,0.0052
832.00,0.0040
829.00,0.0034
826.00,0.0036
823.00,0.0034
820.00,0.0034
817.00,0.0038
814.00,0.0036
811.00,0.0035
808.00,0.0034
805.00,0.0036
802.00,0.0039
799.00,0.0045
796.00,0.0049
793.00,0.0057
790.00,0.0067
787.00,0.0079
784.00,0.0095
781.00,0.0117
778.00,0.0146
775.00,0.0189
772.00,0.0243
769.00,0.0306
766.00,0.0373
763.00,0.0439
760.00,0.0508
757.00,0.0563
754.00,0.0606
751.00,0.0571
748.00,0.0561
745.00,0.0518
742.00,0.0416
739.00,0.0306
736.00,0.0221
733.00,0.0151
730.00,0.0102
727.00,0.0081
724.00,0.0071
721.00,0.0071
718.00,0.0076
715.00,0.0090
712.00,0.0128
709.00,0.0232
706.00,0.0438
703.00,0.0759
700.00,0.1154
697.00,0.1538
694.00,0.1662
691.00,0.1272
688.00,0.0833
685.00,0.0587
682.00,0.0449
679.00,0.0360
676.00,0.0310
673.00,0.0276
670.00,0.0248
667.00,0.0219
664.00,0.0202
661.00,0.0176
658.00,0.0155
655.00,0.0136
652.00,0.0122
649.00,0.0110
646.00,0.0103
643.00,0.0100
640.00,0.0099
637.00,0.0103
634.00,0.0105
631.00,0.0115
628.00,0.0124
625.00,0.0126
622.00,0.0130
619.00,0.0125
616.00,0.0115
613.00,0.0107
610.00,0.0101
607.00,0.0101
604.00,0.0102
601.00,0.0104
598.00,0.0106
595.00,0.0108
592.00,0.0114
589.00,0.0120
586.00,0.0127
583.00,0.0134
580.00,0.0149
577.00,0.0167
574.00,0.0189
571.00,0.0215
568.00,0.0241
565.00,0.0268
562.00,0.0286
559.00,0.0305
556.00,0.0335
553.00,0.0367
550.00,0.0401
547.00,0.0448
544.00,0.0508
541.00,0.0570
538.00,0.0601
535.00,0.0572
532.00,0.0494
529.00,0.0411
526.00,0.0331
523.00,0.0276
520.00,0.0232
517.00,0.0209
514.00,0.0188
511.00,0.0177
508.00,0.0164
505.00,0.0169
502.00,0.0215
499.00,0.0133
496.00,0.0117
493.00,0.0111
490.00,0.0116
487.00,0.0114
484.00,0.0108
481.00,0.0101
478.00,0.0095
475.00,0.0087
472.00,0.0082
469.00,0.0094
466.00,0.0093
463.00,0.0090
460.00,0.0085
457.00,0.0080
454.00,0.0080
451.00,0.0070
448.00,0.0078
445.00,0.0076
442.00,0.0085
439.00,0.0077
436.00,0.0055
433.00,0.0056
430.00,0.0071
427.00,0.0061
424.00,0.0053
421.00,0.0045
418.00,0.0038
415.00,0.0053
412.00,0.0056
409.00,0.0092
406.00,0.0098
403.00,0.0035
400.00,-0.0000