File: FTIR/Mary/2025_06_27_Polystyrene_Std_MEL_Scan2.csv
Created as New Dataset,Sample 743 By YargerLab Date Friday, June 27 2025
cm-1,A
4000.00,0.0011
3997.00,0.0011
3994.00,0.0011
3991.00,0.0011
3988.00,0.0011
3985.00,0.0011
3982.00,0.0011
3979.00,0.0010
3976.00,0.0010
3973.00,0.0011
3970.00,0.0011
3967.00,0.0011
3964.00,0.0010
3961.00,0.0010
3958.00,0.0010
3955.00,0.0010
3952.00,0.0011
3949.00,0.0011
3946.00,0.0011
3943.00,0.0011
3940.00,0.0011
3937.00,0.0011
3934.00,0.0011
3931.00,0.0011
3928.00,0.0011
3925.00,0.0011
3922.00,0.0012
3919.00,0.0012
3916.00,0.0011
3913.00,0.0011
3910.00,0.0010
3907.00,0.0011
3904.00,0.0012
3901.00,0.0012
3898.00,0.0011
3895.00,0.0011
3892.00,0.0010
3889.00,0.0011
3886.00,0.0011
3883.00,0.0011
3880.00,0.0011
3877.00,0.0011
3874.00,0.0011
3871.00,0.0011
3868.00,0.0011
3865.00,0.0011
3862.00,0.0011
3859.00,0.0011
3856.00,0.0010
3853.00,0.0010
3850.00,0.0010
3847.00,0.0011
3844.00,0.0011
3841.00,0.0012
3838.00,0.0012
3835.00,0.0011
3832.00,0.0011
3829.00,0.0011
3826.00,0.0011
3823.00,0.0012
3820.00,0.0011
3817.00,0.0011
3814.00,0.0011
3811.00,0.0011
3808.00,0.0011
3805.00,0.0011
3802.00,0.0012
3799.00,0.0012
3796.00,0.0012
3793.00,0.0011
3790.00,0.0010
3787.00,0.0010
3784.00,0.0010
3781.00,0.0011
3778.00,0.0011
3775.00,0.0010
3772.00,0.0011
3769.00,0.0011
3766.00,0.0011
3763.00,0.0012
3760.00,0.0012
3757.00,0.0012
3754.00,0.0012
3751.00,0.0012
3748.00,0.0011
3745.00,0.0012
3742.00,0.0012
3739.00,0.0013
3736.00,0.0012
3733.00,0.0013
3730.00,0.0012
3727.00,0.0012
3724.00,0.0012
3721.00,0.0012
3718.00,0.0011
3715.00,0.0011
3712.00,0.0011
3709.00,0.0011
3706.00,0.0011
3703.00,0.0011
3700.00,0.0010
3697.00,0.0010
3694.00,0.0010
3691.00,0.0010
3688.00,0.0011
3685.00,0.0010
3682.00,0.0010
3679.00,0.0010
3676.00,0.0010
3673.00,0.0009
3670.00,0.0009
3667.00,0.0008
3664.00,0.0008
3661.00,0.0008
3658.00,0.0007
3655.00,0.0008
3652.00,0.0010
3649.00,0.0010
3646.00,0.0010
3643.00,0.0009
3640.00,0.0009
3637.00,0.0009
3634.00,0.0009
3631.00,0.0010
3628.00,0.0011
3625.00,0.0012
3622.00,0.0011
3619.00,0.0011
3616.00,0.0012
3613.00,0.0012
3610.00,0.0012
3607.00,0.0011
3604.00,0.0011
3601.00,0.0011
3598.00,0.0011
3595.00,0.0011
3592.00,0.0011
3589.00,0.0012
3586.00,0.0012
3583.00,0.0012
3580.00,0.0011
3577.00,0.0011
3574.00,0.0011
3571.00,0.0011
3568.00,0.0012
3565.00,0.0011
3562.00,0.0011
3559.00,0.0011
3556.00,0.0011
3553.00,0.0011
3550.00,0.0011
3547.00,0.0012
3544.00,0.0012
3541.00,0.0012
3538.00,0.0011
3535.00,0.0012
3532.00,0.0012
3529.00,0.0012
3526.00,0.0013
3523.00,0.0012
3520.00,0.0012
3517.00,0.0012
3514.00,0.0012
3511.00,0.0012
3508.00,0.0012
3505.00,0.0013
3502.00,0.0013
3499.00,0.0013
3496.00,0.0013
3493.00,0.0013
3490.00,0.0013
3487.00,0.0013
3484.00,0.0013
3481.00,0.0013
3478.00,0.0013
3475.00,0.0013
3472.00,0.0013
3469.00,0.0013
3466.00,0.0013
3463.00,0.0013
3460.00,0.0013
3457.00,0.0013
3454.00,0.0013
3451.00,0.0013
3448.00,0.0014
3445.00,0.0013
3442.00,0.0013
3439.00,0.0014
3436.00,0.0014
3433.00,0.0014
3430.00,0.0013
3427.00,0.0014
3424.00,0.0014
3421.00,0.0014
3418.00,0.0014
3415.00,0.0014
3412.00,0.0015
3409.00,0.0014
3406.00,0.0014
3403.00,0.0014
3400.00,0.0015
3397.00,0.0014
3394.00,0.0014
3391.00,0.0014
3388.00,0.0014
3385.00,0.0014
3382.00,0.0014
3379.00,0.0014
3376.00,0.0014
3373.00,0.0014
3370.00,0.0014
3367.00,0.0014
3364.00,0.0014
3361.00,0.0014
3358.00,0.0014
3355.00,0.0014
3352.00,0.0014
3349.00,0.0014
3346.00,0.0014
3343.00,0.0014
3340.00,0.0014
3337.00,0.0015
3334.00,0.0015
3331.00,0.0014
3328.00,0.0014
3325.00,0.0014
3322.00,0.0014
3319.00,0.0014
3316.00,0.0014
3313.00,0.0014
3310.00,0.0014
3307.00,0.0015
3304.00,0.0015
3301.00,0.0014
3298.00,0.0014
3295.00,0.0015
3292.00,0.0014
3289.00,0.0014
3286.00,0.0014
3283.00,0.0014
3280.00,0.0014
3277.00,0.0014
3274.00,0.0014
3271.00,0.0014
3268.00,0.0014
3265.00,0.0013
3262.00,0.0013
3259.00,0.0014
3256.00,0.0014
3253.00,0.0013
3250.00,0.0013
3247.00,0.0013
3244.00,0.0013
3241.00,0.0013
3238.00,0.0013
3235.00,0.0013
3232.00,0.0014
3229.00,0.0014
3226.00,0.0014
3223.00,0.0013
3220.00,0.0014
3217.00,0.0013
3214.00,0.0013
3211.00,0.0013
3208.00,0.0013
3205.00,0.0013
3202.00,0.0013
3199.00,0.0013
3196.00,0.0013
3193.00,0.0013
3190.00,0.0012
3187.00,0.0013
3184.00,0.0013
3181.00,0.0013
3178.00,0.0013
3175.00,0.0012
3172.00,0.0013
3169.00,0.0013
3166.00,0.0014
3163.00,0.0014
3160.00,0.0014
3157.00,0.0014
3154.00,0.0013
3151.00,0.0013
3148.00,0.0013
3145.00,0.0013
3142.00,0.0013
3139.00,0.0013
3136.00,0.0013
3133.00,0.0013
3130.00,0.0013
3127.00,0.0013
3124.00,0.0014
3121.00,0.0015
3118.00,0.0016
3115.00,0.0017
3112.00,0.0019
3109.00,0.0022
3106.00,0.0026
3103.00,0.0028
3100.00,0.0027
3097.00,0.0026
3094.00,0.0027
3091.00,0.0033
3088.00,0.0043
3085.00,0.0056
3082.00,0.0062
3079.00,0.0057
3076.00,0.0049
3073.00,0.0046
3070.00,0.0050
3067.00,0.0059
3064.00,0.0072
3061.00,0.0083
3058.00,0.0083
3055.00,0.0072
3052.00,0.0058
3049.00,0.0049
3046.00,0.0045
3043.00,0.0046
3040.00,0.0051
3037.00,0.0062
3034.00,0.0082
3031.00,0.0111
3028.00,0.0145
3025.00,0.0161
3022.00,0.0141
3019.00,0.0101
3016.00,0.0068
3013.00,0.0049
3010.00,0.0039
3007.00,0.0037
3004.00,0.0038
3001.00,0.0038
2998.00,0.0032
2995.00,0.0022
2992.00,0.0015
2989.00,0.0011
2986.00,0.0008
2983.00,0.0002
2980.00,0.0001
2977.00,0.0005
2974.00,0.0008
2971.00,0.0008
2968.00,0.0013
2965.00,0.0018
2962.00,0.0023
2959.00,0.0028
2956.00,0.0033
2953.00,0.0040
2950.00,0.0048
2947.00,0.0059
2944.00,0.0072
2941.00,0.0086
2938.00,0.0104
2935.00,0.0124
2932.00,0.0146
2929.00,0.0165
2926.00,0.0180
2923.00,0.0188
2920.00,0.0187
2917.00,0.0180
2914.00,0.0169
2911.00,0.0156
2908.00,0.0140
2905.00,0.0125
2902.00,0.0110
2899.00,0.0096
2896.00,0.0083
2893.00,0.0073
2890.00,0.0066
2887.00,0.0060
2884.00,0.0056
2881.00,0.0053
2878.00,0.0050
2875.00,0.0047
2872.00,0.0045
2869.00,0.0045
2866.00,0.0047
2863.00,0.0052
2860.00,0.0059
2857.00,0.0068
2854.00,0.0077
2851.00,0.0083
2848.00,0.0084
2845.00,0.0077
2842.00,0.0065
2839.00,0.0050
2836.00,0.0038
2833.00,0.0030
2830.00,0.0026
2827.00,0.0023
2824.00,0.0022
2821.00,0.0021
2818.00,0.0020
2815.00,0.0020
2812.00,0.0020
2809.00,0.0019
2806.00,0.0019
2803.00,0.0018
2800.00,0.0018
2797.00,0.0018
2794.00,0.0017
2791.00,0.0017
2788.00,0.0017
2785.00,0.0016
2782.00,0.0016
2779.00,0.0016
2776.00,0.0016
2773.00,0.0016
2770.00,0.0016
2767.00,0.0016
2764.00,0.0015
2761.00,0.0015
2758.00,0.0015
2755.00,0.0015
2752.00,0.0015
2749.00,0.0015
2746.00,0.0015
2743.00,0.0015
2740.00,0.0015
2737.00,0.0015
2734.00,0.0015
2731.00,0.0015
2728.00,0.0016
2725.00,0.0016
2722.00,0.0016
2719.00,0.0015
2716.00,0.0015
2713.00,0.0015
2710.00,0.0015
2707.00,0.0015
2704.00,0.0015
2701.00,0.0015
2698.00,0.0015
2695.00,0.0015
2692.00,0.0015
2689.00,0.0015
2686.00,0.0015
2683.00,0.0015
2680.00,0.0015
2677.00,0.0015
2674.00,0.0015
2671.00,0.0015
2668.00,0.0015
2665.00,0.0016
2662.00,0.0016
2659.00,0.0017
2656.00,0.0017
2653.00,0.0017
2650.00,0.0017
2647.00,0.0017
2644.00,0.0017
2641.00,0.0017
2638.00,0.0018
2635.00,0.0018
2632.00,0.0018
2629.00,0.0017
2626.00,0.0017
2623.00,0.0016
2620.00,0.0016
2617.00,0.0016
2614.00,0.0016
2611.00,0.0016
2608.00,0.0016
2605.00,0.0016
2602.00,0.0016
2599.00,0.0015
2596.00,0.0015
2593.00,0.0015
2590.00,0.0014
2587.00,0.0014
2584.00,0.0014
2581.00,0.0015
2578.00,0.0015
2575.00,0.0014
2572.00,0.0014
2569.00,0.0014
2566.00,0.0014
2563.00,0.0013
2560.00,0.0013
2557.00,0.0013
2554.00,0.0013
2551.00,0.0013
2548.00,0.0014
2545.00,0.0013
2542.00,0.0013
2539.00,0.0013
2536.00,0.0013
2533.00,0.0013
2530.00,0.0012
2527.00,0.0012
2524.00,0.0012
2521.00,0.0012
2518.00,0.0013
2515.00,0.0013
2512.00,0.0013
2509.00,0.0013
2506.00,0.0012
2503.00,0.0013
2500.00,0.0013
2497.00,0.0012
2494.00,0.0012
2491.00,0.0012
2488.00,0.0013
2485.00,0.0013
2482.00,0.0012
2479.00,0.0012
2476.00,0.0011
2473.00,0.0011
2470.00,0.0012
2467.00,0.0011
2464.00,0.0012
2461.00,0.0012
2458.00,0.0012
2455.00,0.0013
2452.00,0.0012
2449.00,0.0012
2446.00,0.0012
2443.00,0.0011
2440.00,0.0012
2437.00,0.0011
2434.00,0.0011
2431.00,0.0011
2428.00,0.0011
2425.00,0.0011
2422.00,0.0011
2419.00,0.0010
2416.00,0.0010
2413.00,0.0010
2410.00,0.0011
2407.00,0.0010
2404.00,0.0010
2401.00,0.0010
2398.00,0.0010
2395.00,0.0010
2392.00,0.0010
2389.00,0.0010
2386.00,0.0009
2383.00,0.0010
2380.00,0.0010
2377.00,0.0010
2374.00,0.0009
2371.00,0.0009
2368.00,0.0010
2365.00,0.0012
2362.00,0.0012
2359.00,0.0011
2356.00,0.0011
2353.00,0.0012
2350.00,0.0013
2347.00,0.0013
2344.00,0.0014
2341.00,0.0014
2338.00,0.0015
2335.00,0.0014
2332.00,0.0014
2329.00,0.0015
2326.00,0.0019
2323.00,0.0019
2320.00,0.0017
2317.00,0.0015
2314.00,0.0016
2311.00,0.0017
2308.00,0.0016
2305.00,0.0015
2302.00,0.0015
2299.00,0.0015
2296.00,0.0016
2293.00,0.0017
2290.00,0.0018
2287.00,0.0018
2284.00,0.0017
2281.00,0.0015
2278.00,0.0015
2275.00,0.0016
2272.00,0.0014
2269.00,0.0014
2266.00,0.0013
2263.00,0.0013
2260.00,0.0015
2257.00,0.0013
2254.00,0.0013
2251.00,0.0013
2248.00,0.0013
2245.00,0.0014
2242.00,0.0012
2239.00,0.0012
2236.00,0.0013
2233.00,0.0014
2230.00,0.0012
2227.00,0.0012
2224.00,0.0012
2221.00,0.0013
2218.00,0.0011
2215.00,0.0011
2212.00,0.0013
2209.00,0.0009
2206.00,0.0011
2203.00,0.0013
2200.00,0.0011
2197.00,0.0011
2194.00,0.0011
2191.00,0.0012
2188.00,0.0015
2185.00,0.0013
2182.00,0.0008
2179.00,0.0009
2176.00,0.0009
2173.00,0.0011
2170.00,0.0014
2167.00,0.0014
2164.00,0.0017
2161.00,0.0015
2158.00,-0.0007
2155.00,-0.0004
2152.00,0.0001
2149.00,-0.0001
2146.00,-0.0002
2143.00,0.0002
2140.00,0.0001
2137.00,0.0000
2134.00,-0.0001
2131.00,0.0001
2128.00,0.0005
2125.00,0.0005
2122.00,0.0006
2119.00,0.0007
2116.00,0.0009
2113.00,0.0009
2110.00,0.0010
2107.00,0.0009
2104.00,0.0009
2101.00,0.0009
2098.00,0.0009
2095.00,0.0007
2092.00,0.0008
2089.00,0.0009
2086.00,0.0010
2083.00,0.0011
2080.00,0.0012
2077.00,0.0012
2074.00,0.0010
2071.00,0.0010
2068.00,0.0008
2065.00,0.0008
2062.00,0.0008
2059.00,0.0009
2056.00,0.0006
2053.00,0.0011
2050.00,0.0014
2047.00,0.0009
2044.00,0.0010
2041.00,0.0011
2038.00,0.0010
2035.00,0.0009
2032.00,0.0007
2029.00,0.0007
2026.00,0.0007
2023.00,0.0004
2020.00,0.0003
2017.00,0.0007
2014.00,0.0008
2011.00,0.0006
2008.00,0.0005
2005.00,0.0002
2002.00,0.0003
1999.00,0.0007
1996.00,0.0011
1993.00,0.0012
1990.00,0.0013
1987.00,0.0016
1984.00,0.0014
1981.00,0.0016
1978.00,0.0010
1975.00,0.0006
1972.00,0.0006
1969.00,0.0009
1966.00,0.0011
1963.00,0.0011
1960.00,0.0014
1957.00,0.0016
1954.00,0.0020
1951.00,0.0023
1948.00,0.0024
1945.00,0.0026
1942.00,0.0028
1939.00,0.0025
1936.00,0.0022
1933.00,0.0017
1930.00,0.0014
1927.00,0.0012
1924.00,0.0011
1921.00,0.0010
1918.00,0.0010
1915.00,0.0010
1912.00,0.0010
1909.00,0.0009
1906.00,0.0010
1903.00,0.0010
1900.00,0.0011
1897.00,0.0014
1894.00,0.0016
1891.00,0.0018
1888.00,0.0019
1885.00,0.0021
1882.00,0.0022
1879.00,0.0024
1876.00,0.0024
1873.00,0.0026
1870.00,0.0027
1867.00,0.0026
1864.00,0.0024
1861.00,0.0021
1858.00,0.0017
1855.00,0.0015
1852.00,0.0012
1849.00,0.0011
1846.00,0.0011
1843.00,0.0011
1840.00,0.0011
1837.00,0.0012
1834.00,0.0012
1831.00,0.0013
1828.00,0.0014
1825.00,0.0015
1822.00,0.0018
1819.00,0.0019
1816.00,0.0020
1813.00,0.0024
1810.00,0.0026
1807.00,0.0028
1804.00,0.0030
1801.00,0.0030
1798.00,0.0029
1795.00,0.0026
1792.00,0.0023
1789.00,0.0019
1786.00,0.0017
1783.00,0.0016
1780.00,0.0017
1777.00,0.0017
1774.00,0.0017
1771.00,0.0018
1768.00,0.0018
1765.00,0.0018
1762.00,0.0019
1759.00,0.0022
1756.00,0.0025
1753.00,0.0028
1750.00,0.0031
1747.00,0.0033
1744.00,0.0035
1741.00,0.0034
1738.00,0.0034
1735.00,0.0034
1732.00,0.0032
1729.00,0.0030
1726.00,0.0028
1723.00,0.0027
1720.00,0.0026
1717.00,0.0025
1714.00,0.0025
1711.00,0.0024
1708.00,0.0024
1705.00,0.0023
1702.00,0.0024
1699.00,0.0023
1696.00,0.0023
1693.00,0.0023
1690.00,0.0023
1687.00,0.0023
1684.00,0.0025
1681.00,0.0025
1678.00,0.0026
1675.00,0.0026
1672.00,0.0027
1669.00,0.0028
1666.00,0.0027
1663.00,0.0027
1660.00,0.0026
1657.00,0.0025
1654.00,0.0024
1651.00,0.0023
1648.00,0.0023
1645.00,0.0023
1642.00,0.0022
1639.00,0.0022
1636.00,0.0022
1633.00,0.0022
1630.00,0.0022
1627.00,0.0023
1624.00,0.0024
1621.00,0.0025
1618.00,0.0026
1615.00,0.0030
1612.00,0.0037
1609.00,0.0057
1606.00,0.0099
1603.00,0.0156
1600.00,0.0169
1597.00,0.0122
1594.00,0.0079
1591.00,0.0058
1588.00,0.0053
1585.00,0.0067
1582.00,0.0070
1579.00,0.0048
1576.00,0.0032
1573.00,0.0026
1570.00,0.0023
1567.00,0.0022
1564.00,0.0021
1561.00,0.0021
1558.00,0.0022
1555.00,0.0024
1552.00,0.0026
1549.00,0.0028
1546.00,0.0031
1543.00,0.0031
1540.00,0.0029
1537.00,0.0029
1534.00,0.0028
1531.00,0.0025
1528.00,0.0025
1525.00,0.0024
1522.00,0.0023
1519.00,0.0024
1516.00,0.0025
1513.00,0.0026
1510.00,0.0029
1507.00,0.0033
1504.00,0.0042
1501.00,0.0061
1498.00,0.0128
1495.00,0.0326
1492.00,0.0432
1489.00,0.0263
1486.00,0.0136
1483.00,0.0084
1480.00,0.0058
1477.00,0.0048
1474.00,0.0044
1471.00,0.0044
1468.00,0.0046
1465.00,0.0051
1462.00,0.0062
1459.00,0.0091
1456.00,0.0242
1453.00,0.0414
1450.00,0.0413
1447.00,0.0311
1444.00,0.0242
1441.00,0.0187
1438.00,0.0146
1435.00,0.0103
1432.00,0.0078
1429.00,0.0059
1426.00,0.0050
1423.00,0.0044
1420.00,0.0041
1417.00,0.0039
1414.00,0.0036
1411.00,0.0035
1408.00,0.0034
1405.00,0.0033
1402.00,0.0032
1399.00,0.0032
1396.00,0.0033
1393.00,0.0037
1390.00,0.0044
1387.00,0.0053
1384.00,0.0062
1381.00,0.0070
1378.00,0.0079
1375.00,0.0087
1372.00,0.0091
1369.00,0.0091
1366.00,0.0090
1363.00,0.0089
1360.00,0.0085
1357.00,0.0082
1354.00,0.0081
1351.00,0.0081
1348.00,0.0080
1345.00,0.0077
1342.00,0.0072
1339.00,0.0070
1336.00,0.0070
1333.00,0.0075
1330.00,0.0081
1327.00,0.0082
1324.00,0.0078
1321.00,0.0076
1318.00,0.0076
1315.00,0.0079
1312.00,0.0081
1309.00,0.0079
1306.00,0.0076
1303.00,0.0071
1300.00,0.0067
1297.00,0.0065
1294.00,0.0064
1291.00,0.0062
1288.00,0.0061
1285.00,0.0059
1282.00,0.0058
1279.00,0.0057
1276.00,0.0054
1273.00,0.0050
1270.00,0.0046
1267.00,0.0043
1264.00,0.0041
1261.00,0.0040
1258.00,0.0040
1255.00,0.0040
1252.00,0.0041
1249.00,0.0042
1246.00,0.0043
1243.00,0.0044
1240.00,0.0043
1237.00,0.0043
1234.00,0.0044
1231.00,0.0044
1228.00,0.0046
1225.00,0.0046
1222.00,0.0046
1219.00,0.0046
1216.00,0.0047
1213.00,0.0049
1210.00,0.0053
1207.00,0.0056
1204.00,0.0062
1201.00,0.0067
1198.00,0.0071
1195.00,0.0073
1192.00,0.0074
1189.00,0.0075
1186.00,0.0082
1183.00,0.0094
1180.00,0.0095
1177.00,0.0077
1174.00,0.0061
1171.00,0.0055
1168.00,0.0053
1165.00,0.0054
1162.00,0.0057
1159.00,0.0071
1156.00,0.0091
1153.00,0.0091
1150.00,0.0069
1147.00,0.0052
1144.00,0.0045
1141.00,0.0040
1138.00,0.0037
1135.00,0.0036
1132.00,0.0035
1129.00,0.0036
1126.00,0.0038
1123.00,0.0040
1120.00,0.0044
1117.00,0.0050
1114.00,0.0055
1111.00,0.0057
1108.00,0.0057
1105.00,0.0056
1102.00,0.0056
1099.00,0.0057
1096.00,0.0059
1093.00,0.0062
1090.00,0.0065
1087.00,0.0070
1084.00,0.0078
1081.00,0.0088
1078.00,0.0097
1075.00,0.0111
1072.00,0.0129
1069.00,0.0139
1066.00,0.0134
1063.00,0.0118
1060.00,0.0103
1057.00,0.0094
1054.00,0.0085
1051.00,0.0080
1048.00,0.0077
1045.00,0.0075
1042.00,0.0076
1039.00,0.0083
1036.00,0.0109
1033.00,0.0168
1030.00,0.0231
1027.00,0.0244
1024.00,0.0200
1021.00,0.0158
1018.00,0.0133
1015.00,0.0116
1012.00,0.0105
1009.00,0.0099
1006.00,0.0103
1003.00,0.0108
1000.00,0.0096
997.00,0.0082
994.00,0.0078
991.00,0.0079
988.00,0.0082
985.00,0.0089
982.00,0.0095
979.00,0.0096
976.00,0.0089
973.00,0.0084
970.00,0.0087
967.00,0.0096
964.00,0.0101
961.00,0.0094
958.00,0.0079
955.00,0.0071
952.00,0.0069
949.00,0.0072
946.00,0.0077
943.00,0.0080
940.00,0.0077
937.00,0.0071
934.00,0.0064
931.00,0.0059
928.00,0.0058
925.00,0.0059
922.00,0.0064
919.00,0.0073
916.00,0.0088
913.00,0.0115
910.00,0.0150
907.00,0.0173
904.00,0.0163
901.00,0.0128
898.00,0.0093
895.00,0.0072
892.00,0.0063
889.00,0.0057
886.00,0.0052
883.00,0.0049
880.00,0.0047
877.00,0.0045
874.00,0.0044
871.00,0.0044
868.00,0.0043
865.00,0.0042
862.00,0.0041
859.00,0.0042
856.00,0.0044
853.00,0.0048
850.00,0.0058
847.00,0.0072
844.00,0.0085
841.00,0.0088
838.00,0.0080
835.00,0.0063
832.00,0.0049
829.00,0.0042
826.00,0.0039
823.00,0.0038
820.00,0.0038
817.00,0.0040
814.00,0.0040
811.00,0.0042
808.00,0.0043
805.00,0.0044
802.00,0.0045
799.00,0.0051
796.00,0.0058
793.00,0.0068
790.00,0.0083
787.00,0.0100
784.00,0.0119
781.00,0.0145
778.00,0.0182
775.00,0.0236
772.00,0.0306
769.00,0.0392
766.00,0.0481
763.00,0.0567
760.00,0.0657
757.00,0.0728
754.00,0.0748
751.00,0.0741
748.00,0.0731
745.00,0.0668
742.00,0.0527
739.00,0.0386
736.00,0.0277
733.00,0.0186
730.00,0.0125
727.00,0.0099
724.00,0.0090
721.00,0.0088
718.00,0.0093
715.00,0.0111
712.00,0.0164
709.00,0.0296
706.00,0.0571
703.00,0.1013
700.00,0.1578
697.00,0.2145
694.00,0.2306
691.00,0.1702
688.00,0.1076
685.00,0.0741
682.00,0.0562
679.00,0.0451
676.00,0.0379
673.00,0.0335
670.00,0.0304
667.00,0.0267
664.00,0.0240
661.00,0.0209
658.00,0.0182
655.00,0.0159
652.00,0.0141
649.00,0.0128
646.00,0.0118
643.00,0.0112
640.00,0.0112
637.00,0.0119
634.00,0.0128
631.00,0.0137
628.00,0.0144
625.00,0.0150
622.00,0.0158
619.00,0.0157
616.00,0.0143
613.00,0.0133
610.00,0.0123
607.00,0.0122
604.00,0.0122
601.00,0.0124
598.00,0.0129
595.00,0.0133
592.00,0.0140
589.00,0.0148
586.00,0.0154
583.00,0.0167
580.00,0.0187
577.00,0.0211
574.00,0.0241
571.00,0.0272
568.00,0.0304
565.00,0.0332
562.00,0.0362
559.00,0.0391
556.00,0.0424
553.00,0.0461
550.00,0.0505
547.00,0.0565
544.00,0.0639
541.00,0.0719
538.00,0.0762
535.00,0.0724
532.00,0.0619
529.00,0.0502
526.00,0.0405
523.00,0.0331
520.00,0.0281
517.00,0.0256
514.00,0.0232
511.00,0.0207
508.00,0.0188
505.00,0.0172
502.00,0.0161
499.00,0.0147
496.00,0.0138
493.00,0.0133
490.00,0.0129
487.00,0.0119
484.00,0.0109
481.00,0.0107
478.00,0.0104
475.00,0.0106
472.00,0.0102
469.00,0.0099
466.00,0.0103
463.00,0.0097
460.00,0.0091
457.00,0.0086
454.00,0.0083
451.00,0.0083
448.00,0.0092
445.00,0.0094
442.00,0.0091
439.00,0.0079
436.00,0.0077
433.00,0.0079
430.00,0.0074
427.00,0.0066
424.00,0.0066
421.00,0.0064
418.00,0.0066
415.00,0.0064
412.00,0.0073
409.00,0.0078
406.00,0.0083
403.00,0.0085
400.00,0.0054