File: FTIR/Mary/2025_07_07_Polystyrene_Std_scan1.csv
Created as New Dataset,Sample 767 By YargerLab Date Monday, July 07 2025
cm-1,A
4000.00,0.0019
3997.00,0.0018
3994.00,0.0018
3991.00,0.0018
3988.00,0.0018
3985.00,0.0018
3982.00,0.0018
3979.00,0.0018
3976.00,0.0018
3973.00,0.0017
3970.00,0.0018
3967.00,0.0018
3964.00,0.0018
3961.00,0.0017
3958.00,0.0017
3955.00,0.0018
3952.00,0.0018
3949.00,0.0017
3946.00,0.0017
3943.00,0.0017
3940.00,0.0017
3937.00,0.0018
3934.00,0.0017
3931.00,0.0017
3928.00,0.0017
3925.00,0.0017
3922.00,0.0017
3919.00,0.0017
3916.00,0.0017
3913.00,0.0017
3910.00,0.0017
3907.00,0.0017
3904.00,0.0017
3901.00,0.0016
3898.00,0.0016
3895.00,0.0017
3892.00,0.0017
3889.00,0.0016
3886.00,0.0016
3883.00,0.0016
3880.00,0.0016
3877.00,0.0016
3874.00,0.0016
3871.00,0.0016
3868.00,0.0016
3865.00,0.0016
3862.00,0.0016
3859.00,0.0016
3856.00,0.0016
3853.00,0.0015
3850.00,0.0015
3847.00,0.0017
3844.00,0.0017
3841.00,0.0017
3838.00,0.0016
3835.00,0.0015
3832.00,0.0016
3829.00,0.0017
3826.00,0.0017
3823.00,0.0016
3820.00,0.0017
3817.00,0.0015
3814.00,0.0017
3811.00,0.0017
3808.00,0.0017
3805.00,0.0017
3802.00,0.0016
3799.00,0.0017
3796.00,0.0017
3793.00,0.0018
3790.00,0.0018
3787.00,0.0018
3784.00,0.0018
3781.00,0.0018
3778.00,0.0018
3775.00,0.0018
3772.00,0.0018
3769.00,0.0018
3766.00,0.0017
3763.00,0.0017
3760.00,0.0018
3757.00,0.0017
3754.00,0.0016
3751.00,0.0015
3748.00,0.0014
3745.00,0.0014
3742.00,0.0015
3739.00,0.0016
3736.00,0.0016
3733.00,0.0014
3730.00,0.0015
3727.00,0.0016
3724.00,0.0017
3721.00,0.0017
3718.00,0.0017
3715.00,0.0017
3712.00,0.0015
3709.00,0.0014
3706.00,0.0016
3703.00,0.0016
3700.00,0.0017
3697.00,0.0017
3694.00,0.0017
3691.00,0.0016
3688.00,0.0015
3685.00,0.0016
3682.00,0.0017
3679.00,0.0016
3676.00,0.0015
3673.00,0.0015
3670.00,0.0015
3667.00,0.0016
3664.00,0.0017
3661.00,0.0018
3658.00,0.0017
3655.00,0.0017
3652.00,0.0017
3649.00,0.0016
3646.00,0.0016
3643.00,0.0017
3640.00,0.0018
3637.00,0.0018
3634.00,0.0018
3631.00,0.0016
3628.00,0.0015
3625.00,0.0016
3622.00,0.0017
3619.00,0.0016
3616.00,0.0016
3613.00,0.0016
3610.00,0.0016
3607.00,0.0017
3604.00,0.0017
3601.00,0.0017
3598.00,0.0017
3595.00,0.0017
3592.00,0.0017
3589.00,0.0018
3586.00,0.0018
3583.00,0.0018
3580.00,0.0018
3577.00,0.0019
3574.00,0.0019
3571.00,0.0018
3568.00,0.0017
3565.00,0.0017
3562.00,0.0018
3559.00,0.0019
3556.00,0.0020
3553.00,0.0019
3550.00,0.0020
3547.00,0.0020
3544.00,0.0020
3541.00,0.0020
3538.00,0.0021
3535.00,0.0021
3532.00,0.0021
3529.00,0.0021
3526.00,0.0021
3523.00,0.0021
3520.00,0.0021
3517.00,0.0022
3514.00,0.0022
3511.00,0.0022
3508.00,0.0022
3505.00,0.0022
3502.00,0.0022
3499.00,0.0023
3496.00,0.0023
3493.00,0.0024
3490.00,0.0024
3487.00,0.0023
3484.00,0.0023
3481.00,0.0024
3478.00,0.0025
3475.00,0.0025
3472.00,0.0025
3469.00,0.0025
3466.00,0.0025
3463.00,0.0025
3460.00,0.0024
3457.00,0.0025
3454.00,0.0025
3451.00,0.0024
3448.00,0.0025
3445.00,0.0025
3442.00,0.0025
3439.00,0.0025
3436.00,0.0025
3433.00,0.0025
3430.00,0.0025
3427.00,0.0025
3424.00,0.0025
3421.00,0.0025
3418.00,0.0024
3415.00,0.0024
3412.00,0.0025
3409.00,0.0025
3406.00,0.0025
3403.00,0.0025
3400.00,0.0025
3397.00,0.0025
3394.00,0.0025
3391.00,0.0025
3388.00,0.0025
3385.00,0.0024
3382.00,0.0025
3379.00,0.0025
3376.00,0.0025
3373.00,0.0025
3370.00,0.0025
3367.00,0.0025
3364.00,0.0024
3361.00,0.0025
3358.00,0.0025
3355.00,0.0025
3352.00,0.0025
3349.00,0.0025
3346.00,0.0024
3343.00,0.0025
3340.00,0.0025
3337.00,0.0025
3334.00,0.0025
3331.00,0.0025
3328.00,0.0025
3325.00,0.0025
3322.00,0.0025
3319.00,0.0025
3316.00,0.0025
3313.00,0.0024
3310.00,0.0024
3307.00,0.0024
3304.00,0.0024
3301.00,0.0024
3298.00,0.0024
3295.00,0.0025
3292.00,0.0025
3289.00,0.0025
3286.00,0.0024
3283.00,0.0024
3280.00,0.0024
3277.00,0.0024
3274.00,0.0024
3271.00,0.0024
3268.00,0.0024
3265.00,0.0024
3262.00,0.0024
3259.00,0.0024
3256.00,0.0024
3253.00,0.0024
3250.00,0.0024
3247.00,0.0024
3244.00,0.0024
3241.00,0.0023
3238.00,0.0023
3235.00,0.0023
3232.00,0.0023
3229.00,0.0023
3226.00,0.0023
3223.00,0.0023
3220.00,0.0023
3217.00,0.0023
3214.00,0.0024
3211.00,0.0024
3208.00,0.0024
3205.00,0.0024
3202.00,0.0025
3199.00,0.0025
3196.00,0.0024
3193.00,0.0023
3190.00,0.0023
3187.00,0.0023
3184.00,0.0023
3181.00,0.0023
3178.00,0.0022
3175.00,0.0023
3172.00,0.0023
3169.00,0.0024
3166.00,0.0025
3163.00,0.0025
3160.00,0.0025
3157.00,0.0024
3154.00,0.0024
3151.00,0.0024
3148.00,0.0023
3145.00,0.0023
3142.00,0.0023
3139.00,0.0023
3136.00,0.0023
3133.00,0.0023
3130.00,0.0023
3127.00,0.0023
3124.00,0.0024
3121.00,0.0025
3118.00,0.0027
3115.00,0.0030
3112.00,0.0034
3109.00,0.0040
3106.00,0.0048
3103.00,0.0051
3100.00,0.0050
3097.00,0.0048
3094.00,0.0050
3091.00,0.0061
3088.00,0.0082
3085.00,0.0106
3082.00,0.0116
3079.00,0.0106
3076.00,0.0091
3073.00,0.0086
3070.00,0.0092
3067.00,0.0110
3064.00,0.0136
3061.00,0.0156
3058.00,0.0154
3055.00,0.0131
3052.00,0.0107
3049.00,0.0091
3046.00,0.0083
3043.00,0.0085
3040.00,0.0097
3037.00,0.0119
3034.00,0.0158
3031.00,0.0215
3028.00,0.0278
3025.00,0.0302
3022.00,0.0258
3019.00,0.0184
3016.00,0.0125
3013.00,0.0092
3010.00,0.0079
3007.00,0.0079
3004.00,0.0086
3001.00,0.0089
2998.00,0.0079
2995.00,0.0063
2992.00,0.0053
2989.00,0.0049
2986.00,0.0047
2983.00,0.0047
2980.00,0.0047
2977.00,0.0049
2974.00,0.0051
2971.00,0.0053
2968.00,0.0057
2965.00,0.0062
2962.00,0.0068
2959.00,0.0076
2956.00,0.0085
2953.00,0.0096
2950.00,0.0111
2947.00,0.0130
2944.00,0.0152
2941.00,0.0179
2938.00,0.0212
2935.00,0.0249
2932.00,0.0288
2929.00,0.0324
2926.00,0.0350
2923.00,0.0363
2920.00,0.0361
2917.00,0.0348
2914.00,0.0326
2911.00,0.0300
2908.00,0.0273
2905.00,0.0246
2902.00,0.0218
2899.00,0.0191
2896.00,0.0168
2893.00,0.0152
2890.00,0.0138
2887.00,0.0128
2884.00,0.0120
2881.00,0.0111
2878.00,0.0104
2875.00,0.0098
2872.00,0.0093
2869.00,0.0092
2866.00,0.0096
2863.00,0.0104
2860.00,0.0117
2857.00,0.0133
2854.00,0.0149
2851.00,0.0159
2848.00,0.0159
2845.00,0.0145
2842.00,0.0121
2839.00,0.0093
2836.00,0.0072
2833.00,0.0057
2830.00,0.0050
2827.00,0.0046
2824.00,0.0043
2821.00,0.0041
2818.00,0.0040
2815.00,0.0039
2812.00,0.0039
2809.00,0.0038
2806.00,0.0037
2803.00,0.0035
2800.00,0.0035
2797.00,0.0034
2794.00,0.0033
2791.00,0.0033
2788.00,0.0033
2785.00,0.0032
2782.00,0.0032
2779.00,0.0032
2776.00,0.0032
2773.00,0.0031
2770.00,0.0030
2767.00,0.0030
2764.00,0.0029
2761.00,0.0029
2758.00,0.0029
2755.00,0.0029
2752.00,0.0028
2749.00,0.0028
2746.00,0.0028
2743.00,0.0029
2740.00,0.0028
2737.00,0.0029
2734.00,0.0029
2731.00,0.0029
2728.00,0.0029
2725.00,0.0029
2722.00,0.0029
2719.00,0.0029
2716.00,0.0029
2713.00,0.0028
2710.00,0.0029
2707.00,0.0029
2704.00,0.0029
2701.00,0.0029
2698.00,0.0028
2695.00,0.0028
2692.00,0.0029
2689.00,0.0028
2686.00,0.0028
2683.00,0.0029
2680.00,0.0028
2677.00,0.0028
2674.00,0.0028
2671.00,0.0028
2668.00,0.0029
2665.00,0.0030
2662.00,0.0032
2659.00,0.0033
2656.00,0.0033
2653.00,0.0033
2650.00,0.0033
2647.00,0.0034
2644.00,0.0034
2641.00,0.0034
2638.00,0.0034
2635.00,0.0034
2632.00,0.0034
2629.00,0.0034
2626.00,0.0033
2623.00,0.0032
2620.00,0.0031
2617.00,0.0030
2614.00,0.0030
2611.00,0.0031
2608.00,0.0031
2605.00,0.0031
2602.00,0.0031
2599.00,0.0030
2596.00,0.0029
2593.00,0.0028
2590.00,0.0028
2587.00,0.0028
2584.00,0.0028
2581.00,0.0028
2578.00,0.0028
2575.00,0.0027
2572.00,0.0026
2569.00,0.0026
2566.00,0.0026
2563.00,0.0026
2560.00,0.0025
2557.00,0.0025
2554.00,0.0025
2551.00,0.0025
2548.00,0.0025
2545.00,0.0025
2542.00,0.0025
2539.00,0.0024
2536.00,0.0024
2533.00,0.0023
2530.00,0.0024
2527.00,0.0024
2524.00,0.0024
2521.00,0.0024
2518.00,0.0024
2515.00,0.0024
2512.00,0.0024
2509.00,0.0024
2506.00,0.0023
2503.00,0.0023
2500.00,0.0022
2497.00,0.0023
2494.00,0.0022
2491.00,0.0023
2488.00,0.0022
2485.00,0.0022
2482.00,0.0022
2479.00,0.0022
2476.00,0.0021
2473.00,0.0021
2470.00,0.0022
2467.00,0.0021
2464.00,0.0022
2461.00,0.0022
2458.00,0.0022
2455.00,0.0022
2452.00,0.0023
2449.00,0.0022
2446.00,0.0022
2443.00,0.0021
2440.00,0.0021
2437.00,0.0020
2434.00,0.0019
2431.00,0.0020
2428.00,0.0020
2425.00,0.0019
2422.00,0.0018
2419.00,0.0018
2416.00,0.0019
2413.00,0.0019
2410.00,0.0019
2407.00,0.0017
2404.00,0.0017
2401.00,0.0017
2398.00,0.0017
2395.00,0.0017
2392.00,0.0017
2389.00,0.0017
2386.00,0.0017
2383.00,0.0017
2380.00,0.0018
2377.00,0.0018
2374.00,0.0018
2371.00,0.0016
2368.00,0.0017
2365.00,0.0019
2362.00,0.0020
2359.00,0.0021
2356.00,0.0021
2353.00,0.0021
2350.00,0.0023
2347.00,0.0025
2344.00,0.0025
2341.00,0.0027
2338.00,0.0028
2335.00,0.0027
2332.00,0.0026
2329.00,0.0026
2326.00,0.0037
2323.00,0.0036
2320.00,0.0031
2317.00,0.0030
2314.00,0.0030
2311.00,0.0030
2308.00,0.0029
2305.00,0.0027
2302.00,0.0027
2299.00,0.0027
2296.00,0.0028
2293.00,0.0030
2290.00,0.0031
2287.00,0.0032
2284.00,0.0031
2281.00,0.0029
2278.00,0.0027
2275.00,0.0026
2272.00,0.0026
2269.00,0.0025
2266.00,0.0023
2263.00,0.0023
2260.00,0.0024
2257.00,0.0023
2254.00,0.0022
2251.00,0.0023
2248.00,0.0022
2245.00,0.0021
2242.00,0.0022
2239.00,0.0022
2236.00,0.0021
2233.00,0.0019
2230.00,0.0020
2227.00,0.0020
2224.00,0.0019
2221.00,0.0019
2218.00,0.0020
2215.00,0.0021
2212.00,0.0019
2209.00,0.0022
2206.00,0.0022
2203.00,0.0021
2200.00,0.0022
2197.00,0.0019
2194.00,0.0021
2191.00,0.0024
2188.00,0.0023
2185.00,0.0021
2182.00,0.0016
2179.00,0.0016
2176.00,0.0011
2173.00,0.0014
2170.00,0.0024
2167.00,0.0026
2164.00,0.0028
2161.00,0.0016
2158.00,-0.0017
2155.00,-0.0013
2152.00,-0.0004
2149.00,-0.0001
2146.00,-0.0004
2143.00,-0.0003
2140.00,-0.0001
2137.00,-0.0005
2134.00,-0.0009
2131.00,-0.0003
2128.00,0.0001
2125.00,0.0006
2122.00,0.0010
2119.00,0.0013
2116.00,0.0015
2113.00,0.0016
2110.00,0.0014
2107.00,0.0015
2104.00,0.0014
2101.00,0.0015
2098.00,0.0015
2095.00,0.0010
2092.00,0.0012
2089.00,0.0016
2086.00,0.0017
2083.00,0.0016
2080.00,0.0017
2077.00,0.0017
2074.00,0.0016
2071.00,0.0015
2068.00,0.0013
2065.00,0.0014
2062.00,0.0014
2059.00,0.0011
2056.00,0.0009
2053.00,0.0019
2050.00,0.0022
2047.00,0.0014
2044.00,0.0016
2041.00,0.0017
2038.00,0.0018
2035.00,0.0013
2032.00,0.0007
2029.00,0.0006
2026.00,0.0004
2023.00,0.0005
2020.00,0.0007
2017.00,0.0006
2014.00,0.0007
2011.00,0.0012
2008.00,0.0006
2005.00,0.0004
2002.00,0.0006
1999.00,0.0008
1996.00,0.0013
1993.00,0.0017
1990.00,0.0018
1987.00,0.0020
1984.00,0.0026
1981.00,0.0032
1978.00,0.0016
1975.00,0.0009
1972.00,0.0010
1969.00,0.0014
1966.00,0.0019
1963.00,0.0024
1960.00,0.0024
1957.00,0.0025
1954.00,0.0032
1951.00,0.0038
1948.00,0.0042
1945.00,0.0046
1942.00,0.0045
1939.00,0.0041
1936.00,0.0038
1933.00,0.0030
1930.00,0.0025
1927.00,0.0020
1924.00,0.0018
1921.00,0.0017
1918.00,0.0015
1915.00,0.0017
1912.00,0.0017
1909.00,0.0016
1906.00,0.0017
1903.00,0.0019
1900.00,0.0020
1897.00,0.0021
1894.00,0.0025
1891.00,0.0030
1888.00,0.0033
1885.00,0.0036
1882.00,0.0039
1879.00,0.0041
1876.00,0.0043
1873.00,0.0045
1870.00,0.0046
1867.00,0.0044
1864.00,0.0040
1861.00,0.0034
1858.00,0.0029
1855.00,0.0025
1852.00,0.0023
1849.00,0.0020
1846.00,0.0019
1843.00,0.0018
1840.00,0.0018
1837.00,0.0018
1834.00,0.0020
1831.00,0.0022
1828.00,0.0025
1825.00,0.0028
1822.00,0.0031
1819.00,0.0032
1816.00,0.0035
1813.00,0.0042
1810.00,0.0047
1807.00,0.0051
1804.00,0.0054
1801.00,0.0054
1798.00,0.0052
1795.00,0.0047
1792.00,0.0040
1789.00,0.0036
1786.00,0.0034
1783.00,0.0033
1780.00,0.0033
1777.00,0.0035
1774.00,0.0035
1771.00,0.0036
1768.00,0.0037
1765.00,0.0039
1762.00,0.0043
1759.00,0.0046
1756.00,0.0052
1753.00,0.0058
1750.00,0.0063
1747.00,0.0068
1744.00,0.0071
1741.00,0.0072
1738.00,0.0072
1735.00,0.0071
1732.00,0.0065
1729.00,0.0062
1726.00,0.0060
1723.00,0.0057
1720.00,0.0055
1717.00,0.0052
1714.00,0.0050
1711.00,0.0049
1708.00,0.0048
1705.00,0.0047
1702.00,0.0047
1699.00,0.0045
1696.00,0.0043
1693.00,0.0043
1690.00,0.0044
1687.00,0.0045
1684.00,0.0047
1681.00,0.0048
1678.00,0.0049
1675.00,0.0050
1672.00,0.0050
1669.00,0.0051
1666.00,0.0051
1663.00,0.0051
1660.00,0.0049
1657.00,0.0047
1654.00,0.0046
1651.00,0.0043
1648.00,0.0041
1645.00,0.0041
1642.00,0.0040
1639.00,0.0040
1636.00,0.0040
1633.00,0.0040
1630.00,0.0041
1627.00,0.0042
1624.00,0.0043
1621.00,0.0046
1618.00,0.0049
1615.00,0.0056
1612.00,0.0069
1609.00,0.0105
1606.00,0.0183
1603.00,0.0282
1600.00,0.0299
1597.00,0.0215
1594.00,0.0140
1591.00,0.0105
1588.00,0.0097
1585.00,0.0122
1582.00,0.0127
1579.00,0.0089
1576.00,0.0061
1573.00,0.0050
1570.00,0.0045
1567.00,0.0041
1564.00,0.0040
1561.00,0.0040
1558.00,0.0040
1555.00,0.0043
1552.00,0.0047
1549.00,0.0051
1546.00,0.0054
1543.00,0.0055
1540.00,0.0053
1537.00,0.0052
1534.00,0.0048
1531.00,0.0044
1528.00,0.0042
1525.00,0.0039
1522.00,0.0039
1519.00,0.0039
1516.00,0.0041
1513.00,0.0044
1510.00,0.0048
1507.00,0.0053
1504.00,0.0072
1501.00,0.0108
1498.00,0.0235
1495.00,0.0599
1492.00,0.0759
1489.00,0.0448
1486.00,0.0234
1483.00,0.0147
1480.00,0.0104
1477.00,0.0088
1474.00,0.0081
1471.00,0.0080
1468.00,0.0085
1465.00,0.0093
1462.00,0.0113
1459.00,0.0165
1456.00,0.0453
1453.00,0.0744
1450.00,0.0721
1447.00,0.0541
1444.00,0.0423
1441.00,0.0328
1438.00,0.0257
1435.00,0.0182
1432.00,0.0138
1429.00,0.0106
1426.00,0.0090
1423.00,0.0081
1420.00,0.0077
1417.00,0.0072
1414.00,0.0071
1411.00,0.0070
1408.00,0.0069
1405.00,0.0069
1402.00,0.0069
1399.00,0.0071
1396.00,0.0075
1393.00,0.0084
1390.00,0.0097
1387.00,0.0113
1384.00,0.0129
1381.00,0.0143
1378.00,0.0157
1375.00,0.0168
1372.00,0.0173
1369.00,0.0172
1366.00,0.0169
1363.00,0.0164
1360.00,0.0157
1357.00,0.0151
1354.00,0.0147
1351.00,0.0146
1348.00,0.0144
1345.00,0.0139
1342.00,0.0131
1339.00,0.0126
1336.00,0.0129
1333.00,0.0138
1330.00,0.0147
1327.00,0.0148
1324.00,0.0142
1321.00,0.0138
1318.00,0.0138
1315.00,0.0143
1312.00,0.0145
1309.00,0.0142
1306.00,0.0136
1303.00,0.0128
1300.00,0.0121
1297.00,0.0117
1294.00,0.0116
1291.00,0.0113
1288.00,0.0110
1285.00,0.0108
1282.00,0.0108
1279.00,0.0105
1276.00,0.0100
1273.00,0.0094
1270.00,0.0089
1267.00,0.0086
1264.00,0.0084
1261.00,0.0082
1258.00,0.0082
1255.00,0.0083
1252.00,0.0084
1249.00,0.0086
1246.00,0.0087
1243.00,0.0087
1240.00,0.0086
1237.00,0.0085
1234.00,0.0084
1231.00,0.0084
1228.00,0.0085
1225.00,0.0086
1222.00,0.0086
1219.00,0.0086
1216.00,0.0088
1213.00,0.0091
1210.00,0.0096
1207.00,0.0102
1204.00,0.0111
1201.00,0.0120
1198.00,0.0127
1195.00,0.0130
1192.00,0.0131
1189.00,0.0135
1186.00,0.0148
1183.00,0.0170
1180.00,0.0172
1177.00,0.0143
1174.00,0.0119
1171.00,0.0110
1168.00,0.0108
1165.00,0.0108
1162.00,0.0116
1159.00,0.0139
1156.00,0.0172
1153.00,0.0170
1150.00,0.0133
1147.00,0.0105
1144.00,0.0092
1141.00,0.0084
1138.00,0.0078
1135.00,0.0076
1132.00,0.0076
1129.00,0.0076
1126.00,0.0077
1123.00,0.0080
1120.00,0.0087
1117.00,0.0095
1114.00,0.0102
1111.00,0.0103
1108.00,0.0103
1105.00,0.0101
1102.00,0.0102
1099.00,0.0105
1096.00,0.0110
1093.00,0.0115
1090.00,0.0120
1087.00,0.0127
1084.00,0.0140
1081.00,0.0155
1078.00,0.0171
1075.00,0.0194
1072.00,0.0222
1069.00,0.0235
1066.00,0.0225
1063.00,0.0199
1060.00,0.0176
1057.00,0.0159
1054.00,0.0146
1051.00,0.0136
1048.00,0.0128
1045.00,0.0124
1042.00,0.0124
1039.00,0.0136
1036.00,0.0178
1033.00,0.0275
1030.00,0.0377
1027.00,0.0395
1024.00,0.0322
1021.00,0.0255
1018.00,0.0214
1015.00,0.0187
1012.00,0.0170
1009.00,0.0162
1006.00,0.0169
1003.00,0.0177
1000.00,0.0155
997.00,0.0132
994.00,0.0127
991.00,0.0129
988.00,0.0135
985.00,0.0147
982.00,0.0158
979.00,0.0159
976.00,0.0151
973.00,0.0145
970.00,0.0153
967.00,0.0169
964.00,0.0175
961.00,0.0163
958.00,0.0142
955.00,0.0130
952.00,0.0126
949.00,0.0130
946.00,0.0137
943.00,0.0140
940.00,0.0135
937.00,0.0124
934.00,0.0111
931.00,0.0102
928.00,0.0099
925.00,0.0103
922.00,0.0109
919.00,0.0121
916.00,0.0145
913.00,0.0190
910.00,0.0243
907.00,0.0276
904.00,0.0260
901.00,0.0206
898.00,0.0150
895.00,0.0117
892.00,0.0103
889.00,0.0094
886.00,0.0087
883.00,0.0081
880.00,0.0079
877.00,0.0076
874.00,0.0074
871.00,0.0072
868.00,0.0072
865.00,0.0071
862.00,0.0069
859.00,0.0070
856.00,0.0075
853.00,0.0082
850.00,0.0096
847.00,0.0119
844.00,0.0139
841.00,0.0144
838.00,0.0130
835.00,0.0104
832.00,0.0083
829.00,0.0072
826.00,0.0068
823.00,0.0067
820.00,0.0068
817.00,0.0067
814.00,0.0068
811.00,0.0071
808.00,0.0074
805.00,0.0074
802.00,0.0077
799.00,0.0085
796.00,0.0097
793.00,0.0111
790.00,0.0132
787.00,0.0159
784.00,0.0190
781.00,0.0230
778.00,0.0291
775.00,0.0383
772.00,0.0498
769.00,0.0637
766.00,0.0781
763.00,0.0922
760.00,0.1067
757.00,0.1177
754.00,0.1203
751.00,0.1193
748.00,0.1181
745.00,0.1071
742.00,0.0840
739.00,0.0616
736.00,0.0438
733.00,0.0289
730.00,0.0195
727.00,0.0157
724.00,0.0141
721.00,0.0136
718.00,0.0144
715.00,0.0175
712.00,0.0259
709.00,0.0475
706.00,0.0919
703.00,0.1634
700.00,0.2600
697.00,0.3660
694.00,0.3893
691.00,0.2695
688.00,0.1644
685.00,0.1122
682.00,0.0850
679.00,0.0687
676.00,0.0586
673.00,0.0517
670.00,0.0470
667.00,0.0419
664.00,0.0371
661.00,0.0324
658.00,0.0283
655.00,0.0251
652.00,0.0225
649.00,0.0206
646.00,0.0193
643.00,0.0184
640.00,0.0183
637.00,0.0193
634.00,0.0209
631.00,0.0222
628.00,0.0232
625.00,0.0239
622.00,0.0253
619.00,0.0250
616.00,0.0227
613.00,0.0213
610.00,0.0202
607.00,0.0198
604.00,0.0198
601.00,0.0201
598.00,0.0209
595.00,0.0217
592.00,0.0224
589.00,0.0234
586.00,0.0247
583.00,0.0263
580.00,0.0290
577.00,0.0327
574.00,0.0375
571.00,0.0426
568.00,0.0473
565.00,0.0517
562.00,0.0565
559.00,0.0611
556.00,0.0661
553.00,0.0718
550.00,0.0783
547.00,0.0874
544.00,0.0992
541.00,0.1108
538.00,0.1157
535.00,0.1090
532.00,0.0928
529.00,0.0752
526.00,0.0605
523.00,0.0503
520.00,0.0437
517.00,0.0386
514.00,0.0349
511.00,0.0321
508.00,0.0292
505.00,0.0264
502.00,0.0240
499.00,0.0224
496.00,0.0214
493.00,0.0199
490.00,0.0187
487.00,0.0186
484.00,0.0181
481.00,0.0169
478.00,0.0163
475.00,0.0160
472.00,0.0156
469.00,0.0152
466.00,0.0149
463.00,0.0148
460.00,0.0143
457.00,0.0139
454.00,0.0133
451.00,0.0140
448.00,0.0137
445.00,0.0129
442.00,0.0141
439.00,0.0127
436.00,0.0126
433.00,0.0122
430.00,0.0117
427.00,0.0111
424.00,0.0104
421.00,0.0108
418.00,0.0117
415.00,0.0114
412.00,0.0112
409.00,0.0127
406.00,0.0145
403.00,0.0122
400.00,0.0089