File: FTIR/Mary/2025_10_03_Polystyrene_Calibration_3.csv
Created as New Dataset,Sample 172 By YargerLab Date Friday, October 03 2025
cm-1,A
4000.00,0.0015
3997.00,0.0015
3994.00,0.0014
3991.00,0.0014
3988.00,0.0014
3985.00,0.0014
3982.00,0.0013
3979.00,0.0014
3976.00,0.0014
3973.00,0.0014
3970.00,0.0015
3967.00,0.0014
3964.00,0.0015
3961.00,0.0015
3958.00,0.0015
3955.00,0.0015
3952.00,0.0014
3949.00,0.0015
3946.00,0.0015
3943.00,0.0015
3940.00,0.0015
3937.00,0.0015
3934.00,0.0015
3931.00,0.0015
3928.00,0.0016
3925.00,0.0015
3922.00,0.0015
3919.00,0.0015
3916.00,0.0015
3913.00,0.0015
3910.00,0.0015
3907.00,0.0016
3904.00,0.0016
3901.00,0.0017
3898.00,0.0017
3895.00,0.0017
3892.00,0.0016
3889.00,0.0018
3886.00,0.0017
3883.00,0.0017
3880.00,0.0017
3877.00,0.0018
3874.00,0.0018
3871.00,0.0018
3868.00,0.0020
3865.00,0.0020
3862.00,0.0017
3859.00,0.0017
3856.00,0.0021
3853.00,0.0021
3850.00,0.0020
3847.00,0.0017
3844.00,0.0017
3841.00,0.0019
3838.00,0.0020
3835.00,0.0020
3832.00,0.0018
3829.00,0.0017
3826.00,0.0016
3823.00,0.0018
3820.00,0.0019
3817.00,0.0018
3814.00,0.0017
3811.00,0.0016
3808.00,0.0017
3805.00,0.0019
3802.00,0.0020
3799.00,0.0019
3796.00,0.0018
3793.00,0.0016
3790.00,0.0014
3787.00,0.0015
3784.00,0.0016
3781.00,0.0016
3778.00,0.0016
3775.00,0.0016
3772.00,0.0016
3769.00,0.0016
3766.00,0.0017
3763.00,0.0018
3760.00,0.0018
3757.00,0.0018
3754.00,0.0020
3751.00,0.0022
3748.00,0.0024
3745.00,0.0022
3742.00,0.0020
3739.00,0.0020
3736.00,0.0019
3733.00,0.0019
3730.00,0.0018
3727.00,0.0017
3724.00,0.0017
3721.00,0.0017
3718.00,0.0016
3715.00,0.0016
3712.00,0.0017
3709.00,0.0017
3706.00,0.0016
3703.00,0.0016
3700.00,0.0015
3697.00,0.0015
3694.00,0.0016
3691.00,0.0018
3688.00,0.0018
3685.00,0.0016
3682.00,0.0015
3679.00,0.0017
3676.00,0.0019
3673.00,0.0020
3670.00,0.0019
3667.00,0.0018
3664.00,0.0015
3661.00,0.0015
3658.00,0.0016
3655.00,0.0018
3652.00,0.0020
3649.00,0.0021
3646.00,0.0020
3643.00,0.0017
3640.00,0.0014
3637.00,0.0014
3634.00,0.0016
3631.00,0.0017
3628.00,0.0019
3625.00,0.0018
3622.00,0.0018
3619.00,0.0018
3616.00,0.0018
3613.00,0.0017
3610.00,0.0017
3607.00,0.0017
3604.00,0.0017
3601.00,0.0015
3598.00,0.0015
3595.00,0.0016
3592.00,0.0017
3589.00,0.0018
3586.00,0.0017
3583.00,0.0016
3580.00,0.0016
3577.00,0.0015
3574.00,0.0014
3571.00,0.0015
3568.00,0.0017
3565.00,0.0018
3562.00,0.0017
3559.00,0.0016
3556.00,0.0016
3553.00,0.0016
3550.00,0.0017
3547.00,0.0018
3544.00,0.0019
3541.00,0.0018
3538.00,0.0018
3535.00,0.0018
3532.00,0.0018
3529.00,0.0018
3526.00,0.0019
3523.00,0.0020
3520.00,0.0020
3517.00,0.0020
3514.00,0.0019
3511.00,0.0020
3508.00,0.0019
3505.00,0.0019
3502.00,0.0020
3499.00,0.0019
3496.00,0.0020
3493.00,0.0021
3490.00,0.0021
3487.00,0.0021
3484.00,0.0022
3481.00,0.0022
3478.00,0.0022
3475.00,0.0021
3472.00,0.0022
3469.00,0.0023
3466.00,0.0022
3463.00,0.0023
3460.00,0.0023
3457.00,0.0022
3454.00,0.0023
3451.00,0.0023
3448.00,0.0024
3445.00,0.0023
3442.00,0.0023
3439.00,0.0023
3436.00,0.0023
3433.00,0.0023
3430.00,0.0023
3427.00,0.0023
3424.00,0.0023
3421.00,0.0024
3418.00,0.0024
3415.00,0.0024
3412.00,0.0024
3409.00,0.0025
3406.00,0.0024
3403.00,0.0024
3400.00,0.0024
3397.00,0.0025
3394.00,0.0024
3391.00,0.0023
3388.00,0.0023
3385.00,0.0024
3382.00,0.0024
3379.00,0.0024
3376.00,0.0025
3373.00,0.0025
3370.00,0.0025
3367.00,0.0025
3364.00,0.0025
3361.00,0.0025
3358.00,0.0026
3355.00,0.0026
3352.00,0.0026
3349.00,0.0026
3346.00,0.0026
3343.00,0.0026
3340.00,0.0025
3337.00,0.0026
3334.00,0.0027
3331.00,0.0026
3328.00,0.0026
3325.00,0.0026
3322.00,0.0025
3319.00,0.0025
3316.00,0.0025
3313.00,0.0025
3310.00,0.0026
3307.00,0.0027
3304.00,0.0026
3301.00,0.0026
3298.00,0.0026
3295.00,0.0027
3292.00,0.0026
3289.00,0.0026
3286.00,0.0026
3283.00,0.0026
3280.00,0.0027
3277.00,0.0026
3274.00,0.0026
3271.00,0.0026
3268.00,0.0026
3265.00,0.0026
3262.00,0.0026
3259.00,0.0025
3256.00,0.0025
3253.00,0.0025
3250.00,0.0024
3247.00,0.0024
3244.00,0.0024
3241.00,0.0023
3238.00,0.0023
3235.00,0.0023
3232.00,0.0023
3229.00,0.0024
3226.00,0.0023
3223.00,0.0023
3220.00,0.0023
3217.00,0.0023
3214.00,0.0023
3211.00,0.0023
3208.00,0.0024
3205.00,0.0023
3202.00,0.0023
3199.00,0.0023
3196.00,0.0022
3193.00,0.0023
3190.00,0.0023
3187.00,0.0022
3184.00,0.0021
3181.00,0.0021
3178.00,0.0022
3175.00,0.0021
3172.00,0.0021
3169.00,0.0022
3166.00,0.0022
3163.00,0.0022
3160.00,0.0021
3157.00,0.0020
3154.00,0.0021
3151.00,0.0021
3148.00,0.0020
3145.00,0.0019
3142.00,0.0019
3139.00,0.0020
3136.00,0.0020
3133.00,0.0020
3130.00,0.0021
3127.00,0.0021
3124.00,0.0020
3121.00,0.0022
3118.00,0.0022
3115.00,0.0024
3112.00,0.0027
3109.00,0.0031
3106.00,0.0035
3103.00,0.0037
3100.00,0.0036
3097.00,0.0035
3094.00,0.0037
3091.00,0.0046
3088.00,0.0058
3085.00,0.0072
3082.00,0.0077
3079.00,0.0070
3076.00,0.0062
3073.00,0.0059
3070.00,0.0064
3067.00,0.0075
3064.00,0.0090
3061.00,0.0101
3058.00,0.0098
3055.00,0.0085
3052.00,0.0072
3049.00,0.0062
3046.00,0.0058
3043.00,0.0059
3040.00,0.0066
3037.00,0.0081
3034.00,0.0105
3031.00,0.0139
3028.00,0.0174
3025.00,0.0186
3022.00,0.0161
3019.00,0.0118
3016.00,0.0084
3013.00,0.0067
3010.00,0.0060
3007.00,0.0059
3004.00,0.0064
3001.00,0.0065
2998.00,0.0058
2995.00,0.0049
2992.00,0.0044
2989.00,0.0043
2986.00,0.0044
2983.00,0.0044
2980.00,0.0045
2977.00,0.0048
2974.00,0.0051
2971.00,0.0055
2968.00,0.0059
2965.00,0.0065
2962.00,0.0072
2959.00,0.0079
2956.00,0.0086
2953.00,0.0093
2950.00,0.0102
2947.00,0.0114
2944.00,0.0130
2941.00,0.0151
2938.00,0.0176
2935.00,0.0204
2932.00,0.0232
2929.00,0.0259
2926.00,0.0278
2923.00,0.0286
2920.00,0.0284
2917.00,0.0272
2914.00,0.0252
2911.00,0.0230
2908.00,0.0209
2905.00,0.0189
2902.00,0.0170
2899.00,0.0152
2896.00,0.0136
2893.00,0.0123
2890.00,0.0113
2887.00,0.0105
2884.00,0.0097
2881.00,0.0092
2878.00,0.0088
2875.00,0.0085
2872.00,0.0084
2869.00,0.0084
2866.00,0.0087
2863.00,0.0097
2860.00,0.0110
2857.00,0.0125
2854.00,0.0140
2851.00,0.0146
2848.00,0.0138
2845.00,0.0120
2842.00,0.0098
2839.00,0.0078
2836.00,0.0061
2833.00,0.0050
2830.00,0.0043
2827.00,0.0040
2824.00,0.0038
2821.00,0.0036
2818.00,0.0034
2815.00,0.0033
2812.00,0.0032
2809.00,0.0031
2806.00,0.0031
2803.00,0.0030
2800.00,0.0029
2797.00,0.0029
2794.00,0.0028
2791.00,0.0028
2788.00,0.0028
2785.00,0.0027
2782.00,0.0027
2779.00,0.0027
2776.00,0.0026
2773.00,0.0025
2770.00,0.0025
2767.00,0.0025
2764.00,0.0025
2761.00,0.0025
2758.00,0.0024
2755.00,0.0023
2752.00,0.0024
2749.00,0.0024
2746.00,0.0024
2743.00,0.0024
2740.00,0.0024
2737.00,0.0024
2734.00,0.0024
2731.00,0.0023
2728.00,0.0024
2725.00,0.0023
2722.00,0.0023
2719.00,0.0024
2716.00,0.0023
2713.00,0.0023
2710.00,0.0023
2707.00,0.0023
2704.00,0.0023
2701.00,0.0023
2698.00,0.0023
2695.00,0.0023
2692.00,0.0023
2689.00,0.0022
2686.00,0.0022
2683.00,0.0023
2680.00,0.0023
2677.00,0.0023
2674.00,0.0023
2671.00,0.0023
2668.00,0.0023
2665.00,0.0025
2662.00,0.0026
2659.00,0.0027
2656.00,0.0027
2653.00,0.0027
2650.00,0.0027
2647.00,0.0028
2644.00,0.0028
2641.00,0.0028
2638.00,0.0027
2635.00,0.0027
2632.00,0.0028
2629.00,0.0028
2626.00,0.0027
2623.00,0.0026
2620.00,0.0026
2617.00,0.0025
2614.00,0.0025
2611.00,0.0025
2608.00,0.0026
2605.00,0.0027
2602.00,0.0025
2599.00,0.0024
2596.00,0.0023
2593.00,0.0023
2590.00,0.0022
2587.00,0.0022
2584.00,0.0023
2581.00,0.0023
2578.00,0.0023
2575.00,0.0023
2572.00,0.0022
2569.00,0.0020
2566.00,0.0020
2563.00,0.0021
2560.00,0.0022
2557.00,0.0019
2554.00,0.0020
2551.00,0.0021
2548.00,0.0020
2545.00,0.0019
2542.00,0.0020
2539.00,0.0020
2536.00,0.0019
2533.00,0.0019
2530.00,0.0019
2527.00,0.0018
2524.00,0.0017
2521.00,0.0020
2518.00,0.0020
2515.00,0.0019
2512.00,0.0018
2509.00,0.0018
2506.00,0.0018
2503.00,0.0018
2500.00,0.0018
2497.00,0.0019
2494.00,0.0018
2491.00,0.0016
2488.00,0.0017
2485.00,0.0017
2482.00,0.0017
2479.00,0.0017
2476.00,0.0018
2473.00,0.0016
2470.00,0.0017
2467.00,0.0017
2464.00,0.0017
2461.00,0.0017
2458.00,0.0017
2455.00,0.0018
2452.00,0.0016
2449.00,0.0016
2446.00,0.0015
2443.00,0.0015
2440.00,0.0015
2437.00,0.0015
2434.00,0.0015
2431.00,0.0015
2428.00,0.0016
2425.00,0.0014
2422.00,0.0013
2419.00,0.0013
2416.00,0.0014
2413.00,0.0015
2410.00,0.0014
2407.00,0.0012
2404.00,0.0012
2401.00,0.0014
2398.00,0.0014
2395.00,0.0012
2392.00,0.0012
2389.00,0.0012
2386.00,0.0012
2383.00,0.0011
2380.00,0.0012
2377.00,0.0012
2374.00,0.0012
2371.00,0.0010
2368.00,0.0009
2365.00,0.0010
2362.00,0.0011
2359.00,0.0014
2356.00,0.0014
2353.00,0.0013
2350.00,0.0014
2347.00,0.0016
2344.00,0.0018
2341.00,0.0018
2338.00,0.0018
2335.00,0.0019
2332.00,0.0017
2329.00,0.0018
2326.00,0.0028
2323.00,0.0025
2320.00,0.0021
2317.00,0.0021
2314.00,0.0022
2311.00,0.0021
2308.00,0.0019
2305.00,0.0019
2302.00,0.0020
2299.00,0.0020
2296.00,0.0021
2293.00,0.0023
2290.00,0.0028
2287.00,0.0027
2284.00,0.0023
2281.00,0.0022
2278.00,0.0022
2275.00,0.0021
2272.00,0.0021
2269.00,0.0021
2266.00,0.0019
2263.00,0.0017
2260.00,0.0018
2257.00,0.0018
2254.00,0.0015
2251.00,0.0017
2248.00,0.0016
2245.00,0.0016
2242.00,0.0015
2239.00,0.0015
2236.00,0.0017
2233.00,0.0018
2230.00,0.0018
2227.00,0.0016
2224.00,0.0017
2221.00,0.0015
2218.00,0.0014
2215.00,0.0013
2212.00,0.0014
2209.00,0.0015
2206.00,0.0017
2203.00,0.0014
2200.00,0.0015
2197.00,0.0016
2194.00,0.0020
2191.00,0.0021
2188.00,0.0020
2185.00,0.0019
2182.00,0.0012
2179.00,0.0012
2176.00,0.0008
2173.00,0.0011
2170.00,0.0019
2167.00,0.0020
2164.00,0.0020
2161.00,0.0013
2158.00,-0.0012
2155.00,-0.0011
2152.00,-0.0009
2149.00,-0.0007
2146.00,-0.0002
2143.00,-0.0003
2140.00,-0.0003
2137.00,-0.0002
2134.00,-0.0003
2131.00,-0.0005
2128.00,-0.0001
2125.00,0.0005
2122.00,0.0007
2119.00,0.0010
2116.00,0.0013
2113.00,0.0012
2110.00,0.0010
2107.00,0.0012
2104.00,0.0014
2101.00,0.0014
2098.00,0.0011
2095.00,0.0009
2092.00,0.0011
2089.00,0.0013
2086.00,0.0010
2083.00,0.0013
2080.00,0.0016
2077.00,0.0014
2074.00,0.0014
2071.00,0.0013
2068.00,0.0011
2065.00,0.0007
2062.00,0.0010
2059.00,0.0013
2056.00,0.0011
2053.00,0.0017
2050.00,0.0018
2047.00,0.0009
2044.00,0.0010
2041.00,0.0010
2038.00,0.0015
2035.00,0.0008
2032.00,0.0006
2029.00,0.0010
2026.00,0.0001
2023.00,0.0001
2020.00,0.0003
2017.00,0.0003
2014.00,0.0015
2011.00,0.0034
2008.00,0.0005
2005.00,-0.0003
2002.00,0.0007
1999.00,0.0012
1996.00,0.0011
1993.00,0.0015
1990.00,0.0016
1987.00,0.0016
1984.00,0.0023
1981.00,0.0028
1978.00,0.0016
1975.00,0.0009
1972.00,0.0002
1969.00,0.0005
1966.00,0.0011
1963.00,0.0013
1960.00,0.0012
1957.00,0.0014
1954.00,0.0016
1951.00,0.0019
1948.00,0.0024
1945.00,0.0028
1942.00,0.0029
1939.00,0.0026
1936.00,0.0023
1933.00,0.0019
1930.00,0.0016
1927.00,0.0014
1924.00,0.0013
1921.00,0.0013
1918.00,0.0013
1915.00,0.0012
1912.00,0.0013
1909.00,0.0013
1906.00,0.0013
1903.00,0.0013
1900.00,0.0013
1897.00,0.0015
1894.00,0.0017
1891.00,0.0020
1888.00,0.0021
1885.00,0.0021
1882.00,0.0023
1879.00,0.0025
1876.00,0.0028
1873.00,0.0029
1870.00,0.0030
1867.00,0.0031
1864.00,0.0027
1861.00,0.0024
1858.00,0.0019
1855.00,0.0017
1852.00,0.0016
1849.00,0.0014
1846.00,0.0014
1843.00,0.0015
1840.00,0.0016
1837.00,0.0016
1834.00,0.0015
1831.00,0.0015
1828.00,0.0018
1825.00,0.0020
1822.00,0.0022
1819.00,0.0022
1816.00,0.0024
1813.00,0.0028
1810.00,0.0031
1807.00,0.0034
1804.00,0.0036
1801.00,0.0036
1798.00,0.0034
1795.00,0.0031
1792.00,0.0027
1789.00,0.0025
1786.00,0.0023
1783.00,0.0023
1780.00,0.0023
1777.00,0.0023
1774.00,0.0024
1771.00,0.0024
1768.00,0.0026
1765.00,0.0028
1762.00,0.0032
1759.00,0.0038
1756.00,0.0045
1753.00,0.0054
1750.00,0.0064
1747.00,0.0073
1744.00,0.0079
1741.00,0.0082
1738.00,0.0083
1735.00,0.0083
1732.00,0.0080
1729.00,0.0073
1726.00,0.0065
1723.00,0.0058
1720.00,0.0053
1717.00,0.0048
1714.00,0.0045
1711.00,0.0043
1708.00,0.0042
1705.00,0.0041
1702.00,0.0040
1699.00,0.0040
1696.00,0.0039
1693.00,0.0040
1690.00,0.0042
1687.00,0.0045
1684.00,0.0047
1681.00,0.0048
1678.00,0.0050
1675.00,0.0052
1672.00,0.0053
1669.00,0.0054
1666.00,0.0055
1663.00,0.0055
1660.00,0.0055
1657.00,0.0055
1654.00,0.0055
1651.00,0.0053
1648.00,0.0052
1645.00,0.0048
1642.00,0.0046
1639.00,0.0046
1636.00,0.0045
1633.00,0.0042
1630.00,0.0042
1627.00,0.0043
1624.00,0.0042
1621.00,0.0043
1618.00,0.0044
1615.00,0.0047
1612.00,0.0054
1609.00,0.0077
1606.00,0.0124
1603.00,0.0180
1600.00,0.0188
1597.00,0.0138
1594.00,0.0096
1591.00,0.0076
1588.00,0.0073
1585.00,0.0089
1582.00,0.0091
1579.00,0.0069
1576.00,0.0053
1573.00,0.0045
1570.00,0.0042
1567.00,0.0040
1564.00,0.0039
1561.00,0.0039
1558.00,0.0039
1555.00,0.0041
1552.00,0.0045
1549.00,0.0049
1546.00,0.0052
1543.00,0.0054
1540.00,0.0052
1537.00,0.0050
1534.00,0.0045
1531.00,0.0041
1528.00,0.0040
1525.00,0.0038
1522.00,0.0038
1519.00,0.0038
1516.00,0.0038
1513.00,0.0037
1510.00,0.0041
1507.00,0.0046
1504.00,0.0055
1501.00,0.0077
1498.00,0.0153
1495.00,0.0359
1492.00,0.0440
1489.00,0.0273
1486.00,0.0152
1483.00,0.0100
1480.00,0.0076
1477.00,0.0067
1474.00,0.0065
1471.00,0.0071
1468.00,0.0079
1465.00,0.0085
1462.00,0.0095
1459.00,0.0127
1456.00,0.0292
1453.00,0.0447
1450.00,0.0437
1447.00,0.0343
1444.00,0.0275
1441.00,0.0219
1438.00,0.0179
1435.00,0.0135
1432.00,0.0108
1429.00,0.0089
1426.00,0.0077
1423.00,0.0070
1420.00,0.0067
1417.00,0.0065
1414.00,0.0062
1411.00,0.0060
1408.00,0.0059
1405.00,0.0059
1402.00,0.0059
1399.00,0.0060
1396.00,0.0061
1393.00,0.0068
1390.00,0.0076
1387.00,0.0087
1384.00,0.0096
1381.00,0.0106
1378.00,0.0116
1375.00,0.0123
1372.00,0.0125
1369.00,0.0123
1366.00,0.0119
1363.00,0.0117
1360.00,0.0112
1357.00,0.0107
1354.00,0.0104
1351.00,0.0104
1348.00,0.0103
1345.00,0.0102
1342.00,0.0099
1339.00,0.0095
1336.00,0.0096
1333.00,0.0100
1330.00,0.0104
1327.00,0.0104
1324.00,0.0102
1321.00,0.0100
1318.00,0.0101
1315.00,0.0102
1312.00,0.0104
1309.00,0.0103
1306.00,0.0099
1303.00,0.0095
1300.00,0.0092
1297.00,0.0090
1294.00,0.0090
1291.00,0.0088
1288.00,0.0086
1285.00,0.0085
1282.00,0.0084
1279.00,0.0084
1276.00,0.0081
1273.00,0.0078
1270.00,0.0076
1267.00,0.0075
1264.00,0.0074
1261.00,0.0072
1258.00,0.0072
1255.00,0.0073
1252.00,0.0074
1249.00,0.0075
1246.00,0.0076
1243.00,0.0076
1240.00,0.0075
1237.00,0.0074
1234.00,0.0074
1231.00,0.0073
1228.00,0.0073
1225.00,0.0073
1222.00,0.0074
1219.00,0.0073
1216.00,0.0073
1213.00,0.0074
1210.00,0.0076
1207.00,0.0079
1204.00,0.0085
1201.00,0.0091
1198.00,0.0096
1195.00,0.0098
1192.00,0.0100
1189.00,0.0103
1186.00,0.0113
1183.00,0.0128
1180.00,0.0131
1177.00,0.0116
1174.00,0.0101
1171.00,0.0097
1168.00,0.0095
1165.00,0.0096
1162.00,0.0101
1159.00,0.0113
1156.00,0.0128
1153.00,0.0125
1150.00,0.0102
1147.00,0.0084
1144.00,0.0076
1141.00,0.0070
1138.00,0.0065
1135.00,0.0063
1132.00,0.0063
1129.00,0.0063
1126.00,0.0066
1123.00,0.0068
1120.00,0.0072
1117.00,0.0079
1114.00,0.0083
1111.00,0.0082
1108.00,0.0078
1105.00,0.0077
1102.00,0.0076
1099.00,0.0077
1096.00,0.0079
1093.00,0.0082
1090.00,0.0086
1087.00,0.0091
1084.00,0.0098
1081.00,0.0108
1078.00,0.0117
1075.00,0.0131
1072.00,0.0147
1069.00,0.0154
1066.00,0.0149
1063.00,0.0136
1060.00,0.0123
1057.00,0.0114
1054.00,0.0106
1051.00,0.0100
1048.00,0.0096
1045.00,0.0092
1042.00,0.0093
1039.00,0.0099
1036.00,0.0126
1033.00,0.0182
1030.00,0.0238
1027.00,0.0247
1024.00,0.0205
1021.00,0.0169
1018.00,0.0145
1015.00,0.0129
1012.00,0.0119
1009.00,0.0114
1006.00,0.0119
1003.00,0.0123
1000.00,0.0108
997.00,0.0096
994.00,0.0092
991.00,0.0092
988.00,0.0096
985.00,0.0103
982.00,0.0109
979.00,0.0110
976.00,0.0106
973.00,0.0103
970.00,0.0107
967.00,0.0117
964.00,0.0120
961.00,0.0113
958.00,0.0100
955.00,0.0090
952.00,0.0087
949.00,0.0089
946.00,0.0092
943.00,0.0094
940.00,0.0091
937.00,0.0085
934.00,0.0077
931.00,0.0072
928.00,0.0070
925.00,0.0071
922.00,0.0076
919.00,0.0083
916.00,0.0098
913.00,0.0123
910.00,0.0153
907.00,0.0171
904.00,0.0163
901.00,0.0133
898.00,0.0102
895.00,0.0084
892.00,0.0075
889.00,0.0069
886.00,0.0066
883.00,0.0062
880.00,0.0060
877.00,0.0058
874.00,0.0057
871.00,0.0055
868.00,0.0054
865.00,0.0055
862.00,0.0055
859.00,0.0055
856.00,0.0054
853.00,0.0060
850.00,0.0070
847.00,0.0083
844.00,0.0095
841.00,0.0097
838.00,0.0088
835.00,0.0073
832.00,0.0062
829.00,0.0055
826.00,0.0051
823.00,0.0051
820.00,0.0051
817.00,0.0051
814.00,0.0052
811.00,0.0053
808.00,0.0054
805.00,0.0054
802.00,0.0056
799.00,0.0063
796.00,0.0069
793.00,0.0078
790.00,0.0091
787.00,0.0103
784.00,0.0121
781.00,0.0148
778.00,0.0186
775.00,0.0236
772.00,0.0301
769.00,0.0379
766.00,0.0458
763.00,0.0534
760.00,0.0612
757.00,0.0672
754.00,0.0690
751.00,0.0685
748.00,0.0677
745.00,0.0623
742.00,0.0503
739.00,0.0380
736.00,0.0284
733.00,0.0199
730.00,0.0140
727.00,0.0114
724.00,0.0105
721.00,0.0103
718.00,0.0105
715.00,0.0122
712.00,0.0173
709.00,0.0300
706.00,0.0548
703.00,0.0924
700.00,0.1383
697.00,0.1827
694.00,0.1923
691.00,0.1436
688.00,0.0940
685.00,0.0669
682.00,0.0522
679.00,0.0429
676.00,0.0374
673.00,0.0340
670.00,0.0311
667.00,0.0282
664.00,0.0256
661.00,0.0226
658.00,0.0203
655.00,0.0184
652.00,0.0168
649.00,0.0157
646.00,0.0147
643.00,0.0140
640.00,0.0139
637.00,0.0144
634.00,0.0151
631.00,0.0161
628.00,0.0171
625.00,0.0175
622.00,0.0182
619.00,0.0179
616.00,0.0163
613.00,0.0156
610.00,0.0155
607.00,0.0152
604.00,0.0151
601.00,0.0151
598.00,0.0156
595.00,0.0159
592.00,0.0166
589.00,0.0173
586.00,0.0176
583.00,0.0184
580.00,0.0202
577.00,0.0223
574.00,0.0248
571.00,0.0276
568.00,0.0306
565.00,0.0329
562.00,0.0357
559.00,0.0382
556.00,0.0411
553.00,0.0445
550.00,0.0485
547.00,0.0535
544.00,0.0595
541.00,0.0665
538.00,0.0691
535.00,0.0659
532.00,0.0574
529.00,0.0474
526.00,0.0396
523.00,0.0332
520.00,0.0292
517.00,0.0263
514.00,0.0245
511.00,0.0223
508.00,0.0203
505.00,0.0196
502.00,0.0186
499.00,0.0174
496.00,0.0165
493.00,0.0157
490.00,0.0154
487.00,0.0151
484.00,0.0146
481.00,0.0138
478.00,0.0130
475.00,0.0131
472.00,0.0134
469.00,0.0139
466.00,0.0129
463.00,0.0128
460.00,0.0129
457.00,0.0123
454.00,0.0121
451.00,0.0122
448.00,0.0116
445.00,0.0108
442.00,0.0108
439.00,0.0114
436.00,0.0114
433.00,0.0099
430.00,0.0101
427.00,0.0108
424.00,0.0098
421.00,0.0105
418.00,0.0099
415.00,0.0110
412.00,0.0119
409.00,0.0130
406.00,0.0134
403.00,0.0110
400.00,0.0096