File: FTIR/Mary/2025_12_04_Polystyrene_Standard_Scan2.csv
Created as New Dataset,Sample 392 By YargerLab Date Thursday, December 04 2025
cm-1,A
4000.00,0.0003
3997.00,0.0004
3994.00,0.0004
3991.00,0.0003
3988.00,0.0003
3985.00,0.0002
3982.00,0.0002
3979.00,0.0003
3976.00,0.0003
3973.00,0.0003
3970.00,0.0002
3967.00,0.0002
3964.00,0.0003
3961.00,0.0003
3958.00,0.0002
3955.00,0.0002
3952.00,0.0003
3949.00,0.0003
3946.00,0.0003
3943.00,0.0003
3940.00,0.0003
3937.00,0.0003
3934.00,0.0002
3931.00,0.0002
3928.00,0.0002
3925.00,0.0003
3922.00,0.0003
3919.00,0.0003
3916.00,0.0003
3913.00,0.0002
3910.00,0.0003
3907.00,0.0003
3904.00,0.0003
3901.00,0.0003
3898.00,0.0003
3895.00,0.0002
3892.00,0.0002
3889.00,0.0003
3886.00,0.0003
3883.00,0.0003
3880.00,0.0003
3877.00,0.0003
3874.00,0.0003
3871.00,0.0003
3868.00,0.0003
3865.00,0.0003
3862.00,0.0003
3859.00,0.0003
3856.00,0.0004
3853.00,0.0005
3850.00,0.0004
3847.00,0.0003
3844.00,0.0002
3841.00,0.0003
3838.00,0.0004
3835.00,0.0003
3832.00,0.0003
3829.00,0.0002
3826.00,0.0003
3823.00,0.0004
3820.00,0.0004
3817.00,0.0004
3814.00,0.0005
3811.00,0.0004
3808.00,0.0004
3805.00,0.0004
3802.00,0.0004
3799.00,0.0004
3796.00,0.0003
3793.00,0.0003
3790.00,0.0003
3787.00,0.0003
3784.00,0.0003
3781.00,0.0003
3778.00,0.0003
3775.00,0.0003
3772.00,0.0003
3769.00,0.0003
3766.00,0.0002
3763.00,0.0003
3760.00,0.0002
3757.00,0.0003
3754.00,0.0004
3751.00,0.0005
3748.00,0.0004
3745.00,0.0004
3742.00,0.0004
3739.00,0.0003
3736.00,0.0003
3733.00,0.0002
3730.00,0.0002
3727.00,0.0002
3724.00,0.0002
3721.00,0.0002
3718.00,0.0002
3715.00,0.0003
3712.00,0.0002
3709.00,0.0003
3706.00,0.0003
3703.00,0.0003
3700.00,0.0003
3697.00,0.0002
3694.00,0.0002
3691.00,0.0003
3688.00,0.0003
3685.00,0.0003
3682.00,0.0002
3679.00,0.0003
3676.00,0.0003
3673.00,0.0004
3670.00,0.0003
3667.00,0.0003
3664.00,0.0003
3661.00,0.0002
3658.00,0.0003
3655.00,0.0004
3652.00,0.0004
3649.00,0.0004
3646.00,0.0004
3643.00,0.0003
3640.00,0.0003
3637.00,0.0002
3634.00,0.0003
3631.00,0.0004
3628.00,0.0003
3625.00,0.0003
3622.00,0.0003
3619.00,0.0003
3616.00,0.0003
3613.00,0.0003
3610.00,0.0004
3607.00,0.0004
3604.00,0.0004
3601.00,0.0005
3598.00,0.0005
3595.00,0.0004
3592.00,0.0004
3589.00,0.0005
3586.00,0.0004
3583.00,0.0005
3580.00,0.0005
3577.00,0.0005
3574.00,0.0006
3571.00,0.0005
3568.00,0.0005
3565.00,0.0006
3562.00,0.0006
3559.00,0.0007
3556.00,0.0007
3553.00,0.0007
3550.00,0.0008
3547.00,0.0008
3544.00,0.0008
3541.00,0.0008
3538.00,0.0008
3535.00,0.0008
3532.00,0.0009
3529.00,0.0009
3526.00,0.0009
3523.00,0.0009
3520.00,0.0009
3517.00,0.0010
3514.00,0.0010
3511.00,0.0010
3508.00,0.0011
3505.00,0.0011
3502.00,0.0011
3499.00,0.0011
3496.00,0.0012
3493.00,0.0012
3490.00,0.0013
3487.00,0.0012
3484.00,0.0012
3481.00,0.0012
3478.00,0.0012
3475.00,0.0012
3472.00,0.0013
3469.00,0.0014
3466.00,0.0013
3463.00,0.0013
3460.00,0.0014
3457.00,0.0014
3454.00,0.0014
3451.00,0.0015
3448.00,0.0015
3445.00,0.0014
3442.00,0.0015
3439.00,0.0015
3436.00,0.0014
3433.00,0.0015
3430.00,0.0015
3427.00,0.0015
3424.00,0.0015
3421.00,0.0015
3418.00,0.0015
3415.00,0.0015
3412.00,0.0015
3409.00,0.0015
3406.00,0.0015
3403.00,0.0015
3400.00,0.0016
3397.00,0.0016
3394.00,0.0016
3391.00,0.0016
3388.00,0.0016
3385.00,0.0016
3382.00,0.0016
3379.00,0.0016
3376.00,0.0016
3373.00,0.0017
3370.00,0.0017
3367.00,0.0017
3364.00,0.0017
3361.00,0.0017
3358.00,0.0017
3355.00,0.0017
3352.00,0.0017
3349.00,0.0018
3346.00,0.0018
3343.00,0.0018
3340.00,0.0018
3337.00,0.0018
3334.00,0.0018
3331.00,0.0018
3328.00,0.0018
3325.00,0.0018
3322.00,0.0018
3319.00,0.0018
3316.00,0.0018
3313.00,0.0018
3310.00,0.0019
3307.00,0.0018
3304.00,0.0019
3301.00,0.0019
3298.00,0.0018
3295.00,0.0019
3292.00,0.0019
3289.00,0.0019
3286.00,0.0018
3283.00,0.0019
3280.00,0.0018
3277.00,0.0018
3274.00,0.0018
3271.00,0.0018
3268.00,0.0018
3265.00,0.0018
3262.00,0.0017
3259.00,0.0017
3256.00,0.0017
3253.00,0.0016
3250.00,0.0017
3247.00,0.0017
3244.00,0.0016
3241.00,0.0016
3238.00,0.0016
3235.00,0.0016
3232.00,0.0016
3229.00,0.0016
3226.00,0.0016
3223.00,0.0016
3220.00,0.0015
3217.00,0.0015
3214.00,0.0016
3211.00,0.0016
3208.00,0.0015
3205.00,0.0015
3202.00,0.0016
3199.00,0.0016
3196.00,0.0015
3193.00,0.0014
3190.00,0.0014
3187.00,0.0014
3184.00,0.0014
3181.00,0.0014
3178.00,0.0014
3175.00,0.0014
3172.00,0.0014
3169.00,0.0014
3166.00,0.0014
3163.00,0.0014
3160.00,0.0014
3157.00,0.0014
3154.00,0.0014
3151.00,0.0014
3148.00,0.0013
3145.00,0.0013
3142.00,0.0013
3139.00,0.0013
3136.00,0.0013
3133.00,0.0013
3130.00,0.0013
3127.00,0.0013
3124.00,0.0013
3121.00,0.0013
3118.00,0.0014
3115.00,0.0015
3112.00,0.0016
3109.00,0.0019
3106.00,0.0022
3103.00,0.0024
3100.00,0.0023
3097.00,0.0023
3094.00,0.0024
3091.00,0.0028
3088.00,0.0036
3085.00,0.0046
3082.00,0.0051
3079.00,0.0047
3076.00,0.0041
3073.00,0.0039
3070.00,0.0041
3067.00,0.0048
3064.00,0.0058
3061.00,0.0067
3058.00,0.0067
3055.00,0.0058
3052.00,0.0048
3049.00,0.0041
3046.00,0.0037
3043.00,0.0037
3040.00,0.0042
3037.00,0.0051
3034.00,0.0065
3031.00,0.0088
3028.00,0.0113
3025.00,0.0125
3022.00,0.0112
3019.00,0.0081
3016.00,0.0056
3013.00,0.0042
3010.00,0.0035
3007.00,0.0034
3004.00,0.0037
3001.00,0.0039
2998.00,0.0036
2995.00,0.0029
2992.00,0.0025
2989.00,0.0023
2986.00,0.0023
2983.00,0.0024
2980.00,0.0026
2977.00,0.0027
2974.00,0.0029
2971.00,0.0031
2968.00,0.0034
2965.00,0.0038
2962.00,0.0041
2959.00,0.0046
2956.00,0.0051
2953.00,0.0055
2950.00,0.0062
2947.00,0.0069
2944.00,0.0079
2941.00,0.0092
2938.00,0.0107
2935.00,0.0124
2932.00,0.0142
2929.00,0.0159
2926.00,0.0172
2923.00,0.0179
2920.00,0.0179
2917.00,0.0172
2914.00,0.0160
2911.00,0.0145
2908.00,0.0130
2905.00,0.0117
2902.00,0.0104
2899.00,0.0092
2896.00,0.0081
2893.00,0.0073
2890.00,0.0066
2887.00,0.0062
2884.00,0.0058
2881.00,0.0054
2878.00,0.0051
2875.00,0.0049
2872.00,0.0048
2869.00,0.0047
2866.00,0.0049
2863.00,0.0054
2860.00,0.0061
2857.00,0.0070
2854.00,0.0079
2851.00,0.0084
2848.00,0.0081
2845.00,0.0071
2842.00,0.0057
2839.00,0.0043
2836.00,0.0032
2833.00,0.0025
2830.00,0.0021
2827.00,0.0019
2824.00,0.0017
2821.00,0.0017
2818.00,0.0016
2815.00,0.0016
2812.00,0.0015
2809.00,0.0014
2806.00,0.0014
2803.00,0.0014
2800.00,0.0013
2797.00,0.0013
2794.00,0.0013
2791.00,0.0012
2788.00,0.0012
2785.00,0.0011
2782.00,0.0012
2779.00,0.0012
2776.00,0.0011
2773.00,0.0011
2770.00,0.0010
2767.00,0.0010
2764.00,0.0011
2761.00,0.0010
2758.00,0.0010
2755.00,0.0010
2752.00,0.0010
2749.00,0.0010
2746.00,0.0010
2743.00,0.0009
2740.00,0.0009
2737.00,0.0009
2734.00,0.0010
2731.00,0.0010
2728.00,0.0010
2725.00,0.0009
2722.00,0.0010
2719.00,0.0010
2716.00,0.0010
2713.00,0.0010
2710.00,0.0010
2707.00,0.0010
2704.00,0.0010
2701.00,0.0010
2698.00,0.0010
2695.00,0.0010
2692.00,0.0010
2689.00,0.0009
2686.00,0.0009
2683.00,0.0009
2680.00,0.0009
2677.00,0.0010
2674.00,0.0009
2671.00,0.0009
2668.00,0.0010
2665.00,0.0010
2662.00,0.0011
2659.00,0.0012
2656.00,0.0013
2653.00,0.0013
2650.00,0.0013
2647.00,0.0013
2644.00,0.0013
2641.00,0.0013
2638.00,0.0013
2635.00,0.0012
2632.00,0.0013
2629.00,0.0013
2626.00,0.0012
2623.00,0.0012
2620.00,0.0012
2617.00,0.0011
2614.00,0.0011
2611.00,0.0010
2608.00,0.0011
2605.00,0.0011
2602.00,0.0011
2599.00,0.0011
2596.00,0.0010
2593.00,0.0010
2590.00,0.0010
2587.00,0.0010
2584.00,0.0010
2581.00,0.0010
2578.00,0.0009
2575.00,0.0009
2572.00,0.0009
2569.00,0.0008
2566.00,0.0008
2563.00,0.0007
2560.00,0.0007
2557.00,0.0007
2554.00,0.0007
2551.00,0.0007
2548.00,0.0007
2545.00,0.0008
2542.00,0.0007
2539.00,0.0007
2536.00,0.0006
2533.00,0.0007
2530.00,0.0007
2527.00,0.0007
2524.00,0.0007
2521.00,0.0006
2518.00,0.0006
2515.00,0.0007
2512.00,0.0006
2509.00,0.0006
2506.00,0.0006
2503.00,0.0006
2500.00,0.0006
2497.00,0.0006
2494.00,0.0006
2491.00,0.0005
2488.00,0.0006
2485.00,0.0006
2482.00,0.0005
2479.00,0.0005
2476.00,0.0006
2473.00,0.0006
2470.00,0.0005
2467.00,0.0005
2464.00,0.0005
2461.00,0.0006
2458.00,0.0006
2455.00,0.0005
2452.00,0.0005
2449.00,0.0005
2446.00,0.0004
2443.00,0.0005
2440.00,0.0005
2437.00,0.0004
2434.00,0.0003
2431.00,0.0003
2428.00,0.0004
2425.00,0.0003
2422.00,0.0003
2419.00,0.0003
2416.00,0.0003
2413.00,0.0003
2410.00,0.0003
2407.00,0.0002
2404.00,0.0002
2401.00,0.0002
2398.00,0.0001
2395.00,0.0001
2392.00,0.0000
2389.00,0.0001
2386.00,0.0002
2383.00,0.0001
2380.00,0.0000
2377.00,0.0001
2374.00,0.0001
2371.00,0.0001
2368.00,0.0001
2365.00,0.0001
2362.00,0.0003
2359.00,0.0002
2356.00,0.0002
2353.00,0.0003
2350.00,0.0002
2347.00,0.0004
2344.00,0.0006
2341.00,0.0006
2338.00,0.0006
2335.00,0.0006
2332.00,0.0006
2329.00,0.0007
2326.00,0.0013
2323.00,0.0013
2320.00,0.0010
2317.00,0.0009
2314.00,0.0009
2311.00,0.0007
2308.00,0.0006
2305.00,0.0006
2302.00,0.0007
2299.00,0.0007
2296.00,0.0008
2293.00,0.0010
2290.00,0.0011
2287.00,0.0012
2284.00,0.0011
2281.00,0.0008
2278.00,0.0007
2275.00,0.0008
2272.00,0.0008
2269.00,0.0007
2266.00,0.0004
2263.00,0.0006
2260.00,0.0006
2257.00,0.0004
2254.00,0.0003
2251.00,0.0003
2248.00,0.0002
2245.00,0.0005
2242.00,0.0006
2239.00,0.0005
2236.00,0.0005
2233.00,0.0005
2230.00,0.0005
2227.00,0.0004
2224.00,0.0003
2221.00,0.0004
2218.00,0.0004
2215.00,0.0004
2212.00,0.0003
2209.00,0.0003
2206.00,0.0003
2203.00,0.0004
2200.00,0.0006
2197.00,0.0004
2194.00,0.0005
2191.00,0.0007
2188.00,0.0006
2185.00,0.0006
2182.00,0.0003
2179.00,0.0004
2176.00,-0.0000
2173.00,0.0001
2170.00,0.0006
2167.00,0.0010
2164.00,0.0010
2161.00,-0.0000
2158.00,-0.0020
2155.00,-0.0015
2152.00,-0.0010
2149.00,-0.0009
2146.00,-0.0010
2143.00,-0.0009
2140.00,-0.0008
2137.00,-0.0009
2134.00,-0.0014
2131.00,-0.0011
2128.00,-0.0008
2125.00,-0.0005
2122.00,-0.0003
2119.00,-0.0001
2116.00,0.0002
2113.00,0.0001
2110.00,0.0001
2107.00,0.0001
2104.00,0.0001
2101.00,0.0002
2098.00,-0.0000
2095.00,-0.0003
2092.00,-0.0002
2089.00,-0.0000
2086.00,0.0001
2083.00,0.0001
2080.00,0.0003
2077.00,0.0004
2074.00,0.0003
2071.00,0.0003
2068.00,0.0001
2065.00,-0.0001
2062.00,-0.0001
2059.00,-0.0000
2056.00,0.0002
2053.00,0.0005
2050.00,0.0008
2047.00,0.0004
2044.00,0.0005
2041.00,0.0003
2038.00,0.0006
2035.00,0.0001
2032.00,-0.0005
2029.00,-0.0005
2026.00,-0.0005
2023.00,-0.0000
2020.00,0.0002
2017.00,-0.0001
2014.00,0.0001
2011.00,0.0000
2008.00,-0.0002
2005.00,-0.0006
2002.00,-0.0005
1999.00,-0.0003
1996.00,-0.0000
1993.00,0.0001
1990.00,0.0002
1987.00,0.0007
1984.00,0.0009
1981.00,0.0013
1978.00,0.0005
1975.00,-0.0004
1972.00,-0.0003
1969.00,0.0000
1966.00,-0.0002
1963.00,0.0001
1960.00,-0.0001
1957.00,0.0001
1954.00,0.0004
1951.00,0.0008
1948.00,0.0011
1945.00,0.0013
1942.00,0.0012
1939.00,0.0011
1936.00,0.0008
1933.00,0.0004
1930.00,0.0002
1927.00,0.0001
1924.00,-0.0000
1921.00,0.0001
1918.00,0.0000
1915.00,0.0000
1912.00,0.0001
1909.00,0.0001
1906.00,0.0001
1903.00,0.0001
1900.00,0.0002
1897.00,0.0002
1894.00,0.0005
1891.00,0.0006
1888.00,0.0007
1885.00,0.0009
1882.00,0.0011
1879.00,0.0011
1876.00,0.0012
1873.00,0.0013
1870.00,0.0012
1867.00,0.0012
1864.00,0.0011
1861.00,0.0009
1858.00,0.0007
1855.00,0.0005
1852.00,0.0004
1849.00,0.0001
1846.00,0.0000
1843.00,0.0001
1840.00,0.0001
1837.00,0.0001
1834.00,0.0003
1831.00,0.0003
1828.00,0.0005
1825.00,0.0006
1822.00,0.0007
1819.00,0.0007
1816.00,0.0008
1813.00,0.0011
1810.00,0.0014
1807.00,0.0016
1804.00,0.0017
1801.00,0.0018
1798.00,0.0017
1795.00,0.0016
1792.00,0.0014
1789.00,0.0012
1786.00,0.0012
1783.00,0.0012
1780.00,0.0013
1777.00,0.0014
1774.00,0.0015
1771.00,0.0017
1768.00,0.0017
1765.00,0.0020
1762.00,0.0022
1759.00,0.0025
1756.00,0.0031
1753.00,0.0039
1750.00,0.0045
1747.00,0.0051
1744.00,0.0057
1741.00,0.0059
1738.00,0.0058
1735.00,0.0056
1732.00,0.0051
1729.00,0.0048
1726.00,0.0046
1723.00,0.0043
1720.00,0.0041
1717.00,0.0038
1714.00,0.0036
1711.00,0.0036
1708.00,0.0036
1705.00,0.0036
1702.00,0.0037
1699.00,0.0037
1696.00,0.0036
1693.00,0.0038
1690.00,0.0040
1687.00,0.0043
1684.00,0.0045
1681.00,0.0047
1678.00,0.0049
1675.00,0.0051
1672.00,0.0052
1669.00,0.0053
1666.00,0.0054
1663.00,0.0054
1660.00,0.0054
1657.00,0.0054
1654.00,0.0053
1651.00,0.0051
1648.00,0.0048
1645.00,0.0046
1642.00,0.0044
1639.00,0.0043
1636.00,0.0041
1633.00,0.0039
1630.00,0.0037
1627.00,0.0036
1624.00,0.0035
1621.00,0.0036
1618.00,0.0036
1615.00,0.0038
1612.00,0.0042
1609.00,0.0054
1606.00,0.0083
1603.00,0.0122
1600.00,0.0133
1597.00,0.0101
1594.00,0.0070
1591.00,0.0055
1588.00,0.0050
1585.00,0.0060
1582.00,0.0064
1579.00,0.0049
1576.00,0.0037
1573.00,0.0033
1570.00,0.0031
1567.00,0.0031
1564.00,0.0030
1561.00,0.0031
1558.00,0.0032
1555.00,0.0033
1552.00,0.0035
1549.00,0.0036
1546.00,0.0038
1543.00,0.0039
1540.00,0.0038
1537.00,0.0036
1534.00,0.0034
1531.00,0.0032
1528.00,0.0030
1525.00,0.0029
1522.00,0.0028
1519.00,0.0028
1516.00,0.0027
1513.00,0.0027
1510.00,0.0027
1507.00,0.0029
1504.00,0.0037
1501.00,0.0050
1498.00,0.0097
1495.00,0.0227
1492.00,0.0302
1489.00,0.0192
1486.00,0.0103
1483.00,0.0066
1480.00,0.0048
1477.00,0.0042
1474.00,0.0041
1471.00,0.0044
1468.00,0.0049
1465.00,0.0053
1462.00,0.0060
1459.00,0.0080
1456.00,0.0172
1453.00,0.0291
1450.00,0.0297
1447.00,0.0229
1444.00,0.0184
1441.00,0.0145
1438.00,0.0117
1435.00,0.0087
1432.00,0.0069
1429.00,0.0057
1426.00,0.0051
1423.00,0.0049
1420.00,0.0047
1417.00,0.0046
1414.00,0.0046
1411.00,0.0045
1408.00,0.0045
1405.00,0.0045
1402.00,0.0045
1399.00,0.0045
1396.00,0.0047
1393.00,0.0050
1390.00,0.0055
1387.00,0.0061
1384.00,0.0068
1381.00,0.0074
1378.00,0.0079
1375.00,0.0083
1372.00,0.0084
1369.00,0.0084
1366.00,0.0083
1363.00,0.0081
1360.00,0.0078
1357.00,0.0075
1354.00,0.0074
1351.00,0.0073
1348.00,0.0072
1345.00,0.0069
1342.00,0.0066
1339.00,0.0063
1336.00,0.0064
1333.00,0.0068
1330.00,0.0072
1327.00,0.0073
1324.00,0.0071
1321.00,0.0069
1318.00,0.0069
1315.00,0.0071
1312.00,0.0072
1309.00,0.0070
1306.00,0.0068
1303.00,0.0065
1300.00,0.0063
1297.00,0.0063
1294.00,0.0063
1291.00,0.0062
1288.00,0.0061
1285.00,0.0061
1282.00,0.0060
1279.00,0.0059
1276.00,0.0057
1273.00,0.0055
1270.00,0.0054
1267.00,0.0053
1264.00,0.0053
1261.00,0.0052
1258.00,0.0052
1255.00,0.0052
1252.00,0.0052
1249.00,0.0053
1246.00,0.0054
1243.00,0.0054
1240.00,0.0054
1237.00,0.0053
1234.00,0.0053
1231.00,0.0053
1228.00,0.0054
1225.00,0.0054
1222.00,0.0054
1219.00,0.0054
1216.00,0.0054
1213.00,0.0055
1210.00,0.0057
1207.00,0.0060
1204.00,0.0064
1201.00,0.0068
1198.00,0.0071
1195.00,0.0073
1192.00,0.0074
1189.00,0.0075
1186.00,0.0082
1183.00,0.0092
1180.00,0.0094
1177.00,0.0084
1174.00,0.0074
1171.00,0.0070
1168.00,0.0069
1165.00,0.0068
1162.00,0.0071
1159.00,0.0080
1156.00,0.0093
1153.00,0.0093
1150.00,0.0078
1147.00,0.0066
1144.00,0.0059
1141.00,0.0055
1138.00,0.0052
1135.00,0.0051
1132.00,0.0050
1129.00,0.0050
1126.00,0.0051
1123.00,0.0052
1120.00,0.0055
1117.00,0.0060
1114.00,0.0064
1111.00,0.0064
1108.00,0.0063
1105.00,0.0063
1102.00,0.0064
1099.00,0.0065
1096.00,0.0067
1093.00,0.0069
1090.00,0.0070
1087.00,0.0073
1084.00,0.0078
1081.00,0.0083
1078.00,0.0090
1075.00,0.0100
1072.00,0.0110
1069.00,0.0116
1066.00,0.0112
1063.00,0.0101
1060.00,0.0091
1057.00,0.0084
1054.00,0.0077
1051.00,0.0073
1048.00,0.0070
1045.00,0.0068
1042.00,0.0068
1039.00,0.0071
1036.00,0.0087
1033.00,0.0127
1030.00,0.0168
1027.00,0.0178
1024.00,0.0149
1021.00,0.0120
1018.00,0.0103
1015.00,0.0091
1012.00,0.0083
1009.00,0.0079
1006.00,0.0081
1003.00,0.0084
1000.00,0.0075
997.00,0.0066
994.00,0.0062
991.00,0.0063
988.00,0.0065
985.00,0.0070
982.00,0.0074
979.00,0.0074
976.00,0.0071
973.00,0.0069
970.00,0.0072
967.00,0.0078
964.00,0.0081
961.00,0.0076
958.00,0.0067
955.00,0.0061
952.00,0.0059
949.00,0.0060
946.00,0.0063
943.00,0.0065
940.00,0.0063
937.00,0.0058
934.00,0.0052
931.00,0.0048
928.00,0.0047
925.00,0.0047
922.00,0.0050
919.00,0.0055
916.00,0.0065
913.00,0.0083
910.00,0.0105
907.00,0.0119
904.00,0.0113
901.00,0.0090
898.00,0.0067
895.00,0.0054
892.00,0.0047
889.00,0.0043
886.00,0.0040
883.00,0.0038
880.00,0.0037
877.00,0.0035
874.00,0.0034
871.00,0.0034
868.00,0.0033
865.00,0.0032
862.00,0.0033
859.00,0.0033
856.00,0.0033
853.00,0.0037
850.00,0.0043
847.00,0.0052
844.00,0.0061
841.00,0.0062
838.00,0.0056
835.00,0.0047
832.00,0.0038
829.00,0.0034
826.00,0.0032
823.00,0.0031
820.00,0.0031
817.00,0.0031
814.00,0.0032
811.00,0.0033
808.00,0.0034
805.00,0.0034
802.00,0.0036
799.00,0.0040
796.00,0.0043
793.00,0.0049
790.00,0.0058
787.00,0.0067
784.00,0.0080
781.00,0.0097
778.00,0.0123
775.00,0.0157
772.00,0.0203
769.00,0.0258
766.00,0.0313
763.00,0.0363
760.00,0.0416
757.00,0.0458
754.00,0.0469
751.00,0.0465
748.00,0.0460
745.00,0.0425
742.00,0.0340
739.00,0.0252
736.00,0.0182
733.00,0.0125
730.00,0.0086
727.00,0.0070
724.00,0.0065
721.00,0.0063
718.00,0.0065
715.00,0.0075
712.00,0.0109
709.00,0.0194
706.00,0.0362
703.00,0.0615
700.00,0.0917
697.00,0.1206
694.00,0.1291
691.00,0.0993
688.00,0.0653
685.00,0.0459
682.00,0.0353
679.00,0.0288
676.00,0.0245
673.00,0.0216
670.00,0.0200
667.00,0.0178
664.00,0.0159
661.00,0.0141
658.00,0.0124
655.00,0.0111
652.00,0.0101
649.00,0.0091
646.00,0.0084
643.00,0.0081
640.00,0.0080
637.00,0.0082
634.00,0.0090
631.00,0.0097
628.00,0.0101
625.00,0.0103
622.00,0.0108
619.00,0.0110
616.00,0.0099
613.00,0.0093
610.00,0.0089
607.00,0.0086
604.00,0.0087
601.00,0.0090
598.00,0.0091
595.00,0.0095
592.00,0.0098
589.00,0.0103
586.00,0.0108
583.00,0.0114
580.00,0.0124
577.00,0.0139
574.00,0.0157
571.00,0.0179
568.00,0.0198
565.00,0.0216
562.00,0.0237
559.00,0.0252
556.00,0.0273
553.00,0.0297
550.00,0.0324
547.00,0.0359
544.00,0.0407
541.00,0.0452
538.00,0.0473
535.00,0.0451
532.00,0.0390
529.00,0.0323
526.00,0.0267
523.00,0.0222
520.00,0.0188
517.00,0.0170
514.00,0.0158
511.00,0.0146
508.00,0.0133
505.00,0.0120
502.00,0.0114
499.00,0.0108
496.00,0.0099
493.00,0.0099
490.00,0.0096
487.00,0.0093
484.00,0.0093
481.00,0.0089
478.00,0.0082
475.00,0.0075
472.00,0.0078
469.00,0.0088
466.00,0.0085
463.00,0.0077
460.00,0.0080
457.00,0.0081
454.00,0.0078
451.00,0.0075
448.00,0.0076
445.00,0.0069
442.00,0.0064
439.00,0.0066
436.00,0.0066
433.00,0.0065
430.00,0.0062
427.00,0.0062
424.00,0.0063
421.00,0.0066
418.00,0.0066
415.00,0.0070
412.00,0.0058
409.00,0.0069
406.00,0.0043
403.00,0.0044
400.00,0.0058