File: FTIR/Mary/2025_06_11_Standard_Polystyrene_postscan2.csv
Created as New Dataset,Sample 669 By YargerLab Date Wednesday, June 11 2025
cm-1,A
4000.00,0.0011
3997.00,0.0011
3994.00,0.0010
3991.00,0.0011
3988.00,0.0013
3985.00,0.0011
3982.00,0.0011
3979.00,0.0012
3976.00,0.0011
3973.00,0.0010
3970.00,0.0011
3967.00,0.0011
3964.00,0.0011
3961.00,0.0010
3958.00,0.0010
3955.00,0.0010
3952.00,0.0010
3949.00,0.0011
3946.00,0.0010
3943.00,0.0008
3940.00,0.0010
3937.00,0.0010
3934.00,0.0010
3931.00,0.0012
3928.00,0.0011
3925.00,0.0010
3922.00,0.0011
3919.00,0.0010
3916.00,0.0011
3913.00,0.0011
3910.00,0.0012
3907.00,0.0012
3904.00,0.0009
3901.00,0.0007
3898.00,0.0009
3895.00,0.0009
3892.00,0.0009
3889.00,0.0009
3886.00,0.0008
3883.00,0.0009
3880.00,0.0010
3877.00,0.0011
3874.00,0.0010
3871.00,0.0011
3868.00,0.0010
3865.00,0.0009
3862.00,0.0011
3859.00,0.0011
3856.00,0.0010
3853.00,0.0008
3850.00,0.0009
3847.00,0.0010
3844.00,0.0010
3841.00,0.0010
3838.00,0.0010
3835.00,0.0010
3832.00,0.0013
3829.00,0.0011
3826.00,0.0011
3823.00,0.0011
3820.00,0.0008
3817.00,0.0008
3814.00,0.0009
3811.00,0.0011
3808.00,0.0010
3805.00,0.0010
3802.00,0.0011
3799.00,0.0013
3796.00,0.0010
3793.00,0.0009
3790.00,0.0011
3787.00,0.0012
3784.00,0.0010
3781.00,0.0010
3778.00,0.0012
3775.00,0.0012
3772.00,0.0011
3769.00,0.0013
3766.00,0.0011
3763.00,0.0010
3760.00,0.0009
3757.00,0.0010
3754.00,0.0011
3751.00,0.0011
3748.00,0.0008
3745.00,0.0007
3742.00,0.0010
3739.00,0.0011
3736.00,0.0011
3733.00,0.0006
3730.00,0.0008
3727.00,0.0012
3724.00,0.0009
3721.00,0.0007
3718.00,0.0008
3715.00,0.0009
3712.00,0.0010
3709.00,0.0010
3706.00,0.0010
3703.00,0.0009
3700.00,0.0010
3697.00,0.0011
3694.00,0.0009
3691.00,0.0009
3688.00,0.0008
3685.00,0.0007
3682.00,0.0006
3679.00,0.0010
3676.00,0.0011
3673.00,0.0007
3670.00,0.0006
3667.00,0.0010
3664.00,0.0009
3661.00,0.0010
3658.00,0.0010
3655.00,0.0011
3652.00,0.0008
3649.00,0.0006
3646.00,0.0011
3643.00,0.0009
3640.00,0.0007
3637.00,0.0008
3634.00,0.0009
3631.00,0.0011
3628.00,0.0010
3625.00,0.0009
3622.00,0.0011
3619.00,0.0009
3616.00,0.0007
3613.00,0.0006
3610.00,0.0004
3607.00,0.0006
3604.00,0.0007
3601.00,0.0009
3598.00,0.0007
3595.00,0.0005
3592.00,0.0005
3589.00,0.0006
3586.00,0.0006
3583.00,0.0006
3580.00,0.0008
3577.00,0.0008
3574.00,0.0009
3571.00,0.0007
3568.00,0.0006
3565.00,0.0005
3562.00,0.0008
3559.00,0.0008
3556.00,0.0009
3553.00,0.0009
3550.00,0.0007
3547.00,0.0008
3544.00,0.0006
3541.00,0.0008
3538.00,0.0010
3535.00,0.0010
3532.00,0.0009
3529.00,0.0008
3526.00,0.0007
3523.00,0.0008
3520.00,0.0011
3517.00,0.0009
3514.00,0.0008
3511.00,0.0007
3508.00,0.0006
3505.00,0.0006
3502.00,0.0006
3499.00,0.0005
3496.00,0.0005
3493.00,0.0006
3490.00,0.0006
3487.00,0.0007
3484.00,0.0007
3481.00,0.0007
3478.00,0.0008
3475.00,0.0006
3472.00,0.0007
3469.00,0.0006
3466.00,0.0006
3463.00,0.0006
3460.00,0.0006
3457.00,0.0007
3454.00,0.0007
3451.00,0.0008
3448.00,0.0008
3445.00,0.0008
3442.00,0.0008
3439.00,0.0006
3436.00,0.0004
3433.00,0.0005
3430.00,0.0005
3427.00,0.0007
3424.00,0.0008
3421.00,0.0005
3418.00,0.0005
3415.00,0.0005
3412.00,0.0005
3409.00,0.0006
3406.00,0.0006
3403.00,0.0006
3400.00,0.0006
3397.00,0.0007
3394.00,0.0007
3391.00,0.0007
3388.00,0.0005
3385.00,0.0004
3382.00,0.0003
3379.00,0.0004
3376.00,0.0006
3373.00,0.0005
3370.00,0.0002
3367.00,0.0003
3364.00,0.0004
3361.00,0.0003
3358.00,0.0003
3355.00,0.0001
3352.00,0.0003
3349.00,0.0004
3346.00,-0.0002
3343.00,-0.0002
3340.00,-0.0003
3337.00,-0.0002
3334.00,-0.0001
3331.00,-0.0001
3328.00,-0.0002
3325.00,-0.0002
3322.00,-0.0003
3319.00,-0.0003
3316.00,-0.0000
3313.00,-0.0001
3310.00,-0.0002
3307.00,-0.0005
3304.00,-0.0005
3301.00,-0.0004
3298.00,-0.0005
3295.00,-0.0006
3292.00,-0.0005
3289.00,-0.0006
3286.00,-0.0005
3283.00,-0.0005
3280.00,-0.0007
3277.00,-0.0004
3274.00,-0.0003
3271.00,-0.0002
3268.00,0.0003
3265.00,0.0001
3262.00,-0.0003
3259.00,-0.0003
3256.00,-0.0001
3253.00,-0.0001
3250.00,0.0002
3247.00,0.0001
3244.00,0.0000
3241.00,0.0001
3238.00,0.0002
3235.00,0.0003
3232.00,0.0003
3229.00,0.0002
3226.00,0.0002
3223.00,0.0002
3220.00,0.0004
3217.00,0.0005
3214.00,0.0003
3211.00,0.0005
3208.00,0.0005
3205.00,0.0006
3202.00,0.0005
3199.00,0.0005
3196.00,0.0007
3193.00,0.0006
3190.00,0.0007
3187.00,0.0007
3184.00,0.0004
3181.00,0.0006
3178.00,0.0007
3175.00,0.0008
3172.00,0.0011
3169.00,0.0009
3166.00,0.0009
3163.00,0.0009
3160.00,0.0008
3157.00,0.0009
3154.00,0.0009
3151.00,0.0010
3148.00,0.0009
3145.00,0.0009
3142.00,0.0008
3139.00,0.0009
3136.00,0.0009
3133.00,0.0007
3130.00,0.0008
3127.00,0.0009
3124.00,0.0009
3121.00,0.0008
3118.00,0.0008
3115.00,0.0011
3112.00,0.0014
3109.00,0.0014
3106.00,0.0018
3103.00,0.0019
3100.00,0.0019
3097.00,0.0020
3094.00,0.0019
3091.00,0.0023
3088.00,0.0030
3085.00,0.0036
3082.00,0.0042
3079.00,0.0038
3076.00,0.0031
3073.00,0.0030
3070.00,0.0031
3067.00,0.0037
3064.00,0.0045
3061.00,0.0051
3058.00,0.0052
3055.00,0.0047
3052.00,0.0039
3049.00,0.0033
3046.00,0.0030
3043.00,0.0031
3040.00,0.0037
3037.00,0.0041
3034.00,0.0053
3031.00,0.0072
3028.00,0.0092
3025.00,0.0103
3022.00,0.0092
3019.00,0.0062
3016.00,0.0036
3013.00,0.0034
3010.00,0.0030
3007.00,0.0030
3004.00,0.0034
3001.00,0.0033
2998.00,0.0029
2995.00,0.0023
2992.00,0.0020
2989.00,0.0018
2986.00,0.0018
2983.00,0.0018
2980.00,0.0018
2977.00,0.0017
2974.00,0.0018
2971.00,0.0018
2968.00,0.0019
2965.00,0.0021
2962.00,0.0022
2959.00,0.0024
2956.00,0.0027
2953.00,0.0031
2950.00,0.0034
2947.00,0.0040
2944.00,0.0047
2941.00,0.0057
2938.00,0.0067
2935.00,0.0077
2932.00,0.0086
2929.00,0.0098
2926.00,0.0104
2923.00,0.0107
2920.00,0.0107
2917.00,0.0101
2914.00,0.0097
2911.00,0.0091
2908.00,0.0083
2905.00,0.0078
2902.00,0.0071
2899.00,0.0061
2896.00,0.0054
2893.00,0.0048
2890.00,0.0045
2887.00,0.0042
2884.00,0.0040
2881.00,0.0037
2878.00,0.0034
2875.00,0.0031
2872.00,0.0029
2869.00,0.0029
2866.00,0.0029
2863.00,0.0033
2860.00,0.0037
2857.00,0.0040
2854.00,0.0043
2851.00,0.0045
2848.00,0.0047
2845.00,0.0047
2842.00,0.0041
2839.00,0.0034
2836.00,0.0027
2833.00,0.0023
2830.00,0.0020
2827.00,0.0018
2824.00,0.0016
2821.00,0.0015
2818.00,0.0014
2815.00,0.0014
2812.00,0.0015
2809.00,0.0015
2806.00,0.0013
2803.00,0.0013
2800.00,0.0013
2797.00,0.0013
2794.00,0.0014
2791.00,0.0013
2788.00,0.0012
2785.00,0.0013
2782.00,0.0013
2779.00,0.0012
2776.00,0.0011
2773.00,0.0011
2770.00,0.0012
2767.00,0.0011
2764.00,0.0012
2761.00,0.0012
2758.00,0.0010
2755.00,0.0010
2752.00,0.0010
2749.00,0.0011
2746.00,0.0010
2743.00,0.0009
2740.00,0.0010
2737.00,0.0011
2734.00,0.0011
2731.00,0.0011
2728.00,0.0011
2725.00,0.0011
2722.00,0.0010
2719.00,0.0012
2716.00,0.0011
2713.00,0.0011
2710.00,0.0011
2707.00,0.0010
2704.00,0.0012
2701.00,0.0013
2698.00,0.0010
2695.00,0.0011
2692.00,0.0011
2689.00,0.0011
2686.00,0.0011
2683.00,0.0010
2680.00,0.0011
2677.00,0.0011
2674.00,0.0011
2671.00,0.0011
2668.00,0.0011
2665.00,0.0012
2662.00,0.0014
2659.00,0.0014
2656.00,0.0014
2653.00,0.0014
2650.00,0.0014
2647.00,0.0015
2644.00,0.0014
2641.00,0.0012
2638.00,0.0012
2635.00,0.0013
2632.00,0.0016
2629.00,0.0015
2626.00,0.0014
2623.00,0.0013
2620.00,0.0014
2617.00,0.0013
2614.00,0.0012
2611.00,0.0014
2608.00,0.0012
2605.00,0.0012
2602.00,0.0010
2599.00,0.0011
2596.00,0.0011
2593.00,0.0013
2590.00,0.0012
2587.00,0.0010
2584.00,0.0011
2581.00,0.0013
2578.00,0.0011
2575.00,0.0010
2572.00,0.0011
2569.00,0.0011
2566.00,0.0010
2563.00,0.0010
2560.00,0.0009
2557.00,0.0009
2554.00,0.0010
2551.00,0.0011
2548.00,0.0010
2545.00,0.0008
2542.00,0.0009
2539.00,0.0010
2536.00,0.0008
2533.00,0.0007
2530.00,0.0008
2527.00,0.0009
2524.00,0.0009
2521.00,0.0009
2518.00,0.0010
2515.00,0.0012
2512.00,0.0003
2509.00,0.0007
2506.00,0.0004
2503.00,0.0006
2500.00,0.0008
2497.00,0.0009
2494.00,0.0010
2491.00,0.0007
2488.00,0.0007
2485.00,0.0009
2482.00,0.0009
2479.00,0.0009
2476.00,0.0009
2473.00,0.0009
2470.00,0.0009
2467.00,0.0007
2464.00,0.0006
2461.00,0.0006
2458.00,0.0008
2455.00,0.0011
2452.00,0.0009
2449.00,0.0009
2446.00,0.0007
2443.00,0.0007
2440.00,0.0007
2437.00,0.0006
2434.00,0.0008
2431.00,0.0009
2428.00,0.0008
2425.00,0.0008
2422.00,0.0007
2419.00,0.0010
2416.00,0.0006
2413.00,0.0005
2410.00,0.0006
2407.00,0.0004
2404.00,0.0005
2401.00,0.0006
2398.00,0.0006
2395.00,0.0006
2392.00,0.0005
2389.00,0.0004
2386.00,0.0005
2383.00,0.0006
2380.00,0.0003
2377.00,0.0003
2374.00,0.0005
2371.00,0.0006
2368.00,0.0004
2365.00,0.0002
2362.00,0.0004
2359.00,0.0007
2356.00,0.0007
2353.00,0.0002
2350.00,0.0002
2347.00,0.0004
2344.00,0.0006
2341.00,0.0007
2338.00,0.0007
2335.00,0.0007
2332.00,0.0004
2329.00,0.0005
2326.00,0.0012
2323.00,0.0014
2320.00,0.0012
2317.00,0.0008
2314.00,0.0009
2311.00,0.0009
2308.00,0.0010
2305.00,0.0007
2302.00,0.0006
2299.00,0.0010
2296.00,0.0011
2293.00,0.0010
2290.00,0.0011
2287.00,0.0015
2284.00,0.0013
2281.00,0.0013
2278.00,0.0014
2275.00,0.0013
2272.00,0.0012
2269.00,0.0012
2266.00,0.0007
2263.00,-0.0001
2260.00,0.0004
2257.00,0.0005
2254.00,0.0006
2251.00,0.0007
2248.00,0.0004
2245.00,0.0006
2242.00,0.0008
2239.00,0.0005
2236.00,-0.0000
2233.00,0.0005
2230.00,0.0007
2227.00,0.0006
2224.00,0.0006
2221.00,0.0002
2218.00,0.0006
2215.00,0.0007
2212.00,0.0009
2209.00,0.0007
2206.00,0.0008
2203.00,0.0009
2200.00,0.0010
2197.00,0.0004
2194.00,0.0007
2191.00,0.0009
2188.00,0.0009
2185.00,0.0003
2182.00,-0.0008
2179.00,-0.0001
2176.00,-0.0002
2173.00,0.0010
2170.00,0.0016
2167.00,0.0023
2164.00,0.0013
2161.00,-0.0001
2158.00,-0.0021
2155.00,-0.0018
2152.00,-0.0009
2149.00,-0.0002
2146.00,0.0000
2143.00,0.0006
2140.00,-0.0000
2137.00,-0.0005
2134.00,-0.0009
2131.00,-0.0004
2128.00,-0.0004
2125.00,-0.0004
2122.00,0.0001
2119.00,0.0003
2116.00,0.0001
2113.00,0.0004
2110.00,0.0007
2107.00,0.0006
2104.00,0.0003
2101.00,0.0005
2098.00,0.0007
2095.00,0.0000
2092.00,0.0004
2089.00,0.0002
2086.00,0.0004
2083.00,0.0004
2080.00,0.0003
2077.00,0.0005
2074.00,0.0007
2071.00,0.0005
2068.00,0.0003
2065.00,0.0005
2062.00,0.0007
2059.00,0.0004
2056.00,-0.0000
2053.00,0.0007
2050.00,0.0016
2047.00,0.0010
2044.00,0.0010
2041.00,0.0001
2038.00,0.0006
2035.00,-0.0001
2032.00,-0.0005
2029.00,0.0000
2026.00,-0.0005
2023.00,-0.0001
2020.00,-0.0012
2017.00,-0.0008
2014.00,-0.0006
2011.00,-0.0003
2008.00,0.0012
2005.00,-0.0002
2002.00,-0.0004
1999.00,0.0004
1996.00,0.0012
1993.00,0.0011
1990.00,0.0017
1987.00,0.0007
1984.00,0.0009
1981.00,0.0013
1978.00,-0.0001
1975.00,-0.0010
1972.00,0.0001
1969.00,0.0006
1966.00,0.0009
1963.00,0.0007
1960.00,0.0004
1957.00,0.0003
1954.00,0.0007
1951.00,0.0007
1948.00,0.0013
1945.00,0.0010
1942.00,0.0008
1939.00,0.0009
1936.00,0.0009
1933.00,0.0008
1930.00,0.0004
1927.00,0.0005
1924.00,0.0005
1921.00,0.0007
1918.00,0.0007
1915.00,0.0005
1912.00,-0.0001
1909.00,0.0001
1906.00,0.0001
1903.00,0.0002
1900.00,0.0006
1897.00,0.0006
1894.00,0.0007
1891.00,0.0007
1888.00,0.0009
1885.00,0.0009
1882.00,0.0011
1879.00,0.0012
1876.00,0.0010
1873.00,0.0012
1870.00,0.0014
1867.00,0.0014
1864.00,0.0012
1861.00,0.0010
1858.00,0.0012
1855.00,0.0008
1852.00,0.0006
1849.00,0.0006
1846.00,0.0004
1843.00,0.0004
1840.00,0.0005
1837.00,0.0005
1834.00,0.0006
1831.00,0.0007
1828.00,0.0009
1825.00,0.0008
1822.00,0.0009
1819.00,0.0010
1816.00,0.0009
1813.00,0.0011
1810.00,0.0015
1807.00,0.0017
1804.00,0.0016
1801.00,0.0016
1798.00,0.0016
1795.00,0.0015
1792.00,0.0013
1789.00,0.0011
1786.00,0.0008
1783.00,0.0009
1780.00,0.0009
1777.00,0.0009
1774.00,0.0008
1771.00,0.0009
1768.00,0.0008
1765.00,0.0008
1762.00,0.0009
1759.00,0.0011
1756.00,0.0013
1753.00,0.0013
1750.00,0.0013
1747.00,0.0015
1744.00,0.0016
1741.00,0.0015
1738.00,0.0016
1735.00,0.0016
1732.00,0.0014
1729.00,0.0013
1726.00,0.0012
1723.00,0.0011
1720.00,0.0011
1717.00,0.0008
1714.00,0.0010
1711.00,0.0010
1708.00,0.0008
1705.00,0.0006
1702.00,0.0005
1699.00,0.0005
1696.00,0.0005
1693.00,0.0005
1690.00,0.0006
1687.00,0.0007
1684.00,0.0007
1681.00,0.0006
1678.00,0.0007
1675.00,0.0007
1672.00,0.0006
1669.00,0.0003
1666.00,0.0003
1663.00,0.0003
1660.00,0.0001
1657.00,-0.0000
1654.00,-0.0002
1651.00,-0.0003
1648.00,-0.0003
1645.00,-0.0004
1642.00,-0.0003
1639.00,-0.0004
1636.00,-0.0004
1633.00,-0.0002
1630.00,-0.0002
1627.00,-0.0002
1624.00,0.0001
1621.00,0.0007
1618.00,0.0011
1615.00,0.0017
1612.00,0.0024
1609.00,0.0035
1606.00,0.0061
1603.00,0.0092
1600.00,0.0100
1597.00,0.0074
1594.00,0.0049
1591.00,0.0037
1588.00,0.0034
1585.00,0.0043
1582.00,0.0044
1579.00,0.0030
1576.00,0.0020
1573.00,0.0017
1570.00,0.0013
1567.00,0.0011
1564.00,0.0010
1561.00,0.0010
1558.00,0.0010
1555.00,0.0010
1552.00,0.0010
1549.00,0.0012
1546.00,0.0011
1543.00,0.0012
1540.00,0.0010
1537.00,0.0009
1534.00,0.0007
1531.00,0.0004
1528.00,0.0003
1525.00,0.0001
1522.00,-0.0001
1519.00,-0.0001
1516.00,-0.0000
1513.00,0.0001
1510.00,0.0004
1507.00,0.0007
1504.00,0.0012
1501.00,0.0026
1498.00,0.0068
1495.00,0.0176
1492.00,0.0239
1489.00,0.0150
1486.00,0.0078
1483.00,0.0047
1480.00,0.0033
1477.00,0.0028
1474.00,0.0026
1471.00,0.0024
1468.00,0.0026
1465.00,0.0030
1462.00,0.0036
1459.00,0.0053
1456.00,0.0133
1453.00,0.0229
1450.00,0.0230
1447.00,0.0174
1444.00,0.0137
1441.00,0.0105
1438.00,0.0082
1435.00,0.0058
1432.00,0.0042
1429.00,0.0032
1426.00,0.0026
1423.00,0.0023
1420.00,0.0023
1417.00,0.0022
1414.00,0.0020
1411.00,0.0018
1408.00,0.0019
1405.00,0.0021
1402.00,0.0022
1399.00,0.0023
1396.00,0.0025
1393.00,0.0028
1390.00,0.0033
1387.00,0.0037
1384.00,0.0043
1381.00,0.0048
1378.00,0.0051
1375.00,0.0053
1372.00,0.0054
1369.00,0.0054
1366.00,0.0053
1363.00,0.0051
1360.00,0.0050
1357.00,0.0049
1354.00,0.0047
1351.00,0.0047
1348.00,0.0047
1345.00,0.0045
1342.00,0.0041
1339.00,0.0040
1336.00,0.0041
1333.00,0.0044
1330.00,0.0046
1327.00,0.0047
1324.00,0.0046
1321.00,0.0043
1318.00,0.0043
1315.00,0.0045
1312.00,0.0047
1309.00,0.0046
1306.00,0.0044
1303.00,0.0041
1300.00,0.0039
1297.00,0.0037
1294.00,0.0037
1291.00,0.0037
1288.00,0.0035
1285.00,0.0033
1282.00,0.0034
1279.00,0.0032
1276.00,0.0029
1273.00,0.0026
1270.00,0.0025
1267.00,0.0025
1264.00,0.0023
1261.00,0.0021
1258.00,0.0018
1255.00,0.0019
1252.00,0.0024
1249.00,0.0024
1246.00,0.0024
1243.00,0.0024
1240.00,0.0022
1237.00,0.0022
1234.00,0.0021
1231.00,0.0020
1228.00,0.0022
1225.00,0.0024
1222.00,0.0024
1219.00,0.0024
1216.00,0.0026
1213.00,0.0028
1210.00,0.0028
1207.00,0.0031
1204.00,0.0035
1201.00,0.0041
1198.00,0.0043
1195.00,0.0044
1192.00,0.0045
1189.00,0.0045
1186.00,0.0050
1183.00,0.0058
1180.00,0.0060
1177.00,0.0051
1174.00,0.0040
1171.00,0.0033
1168.00,0.0030
1165.00,0.0029
1162.00,0.0032
1159.00,0.0040
1156.00,0.0054
1153.00,0.0056
1150.00,0.0043
1147.00,0.0032
1144.00,0.0027
1141.00,0.0027
1138.00,0.0024
1135.00,0.0024
1132.00,0.0024
1129.00,0.0023
1126.00,0.0023
1123.00,0.0023
1120.00,0.0023
1117.00,0.0025
1114.00,0.0029
1111.00,0.0028
1108.00,0.0028
1105.00,0.0027
1102.00,0.0027
1099.00,0.0031
1096.00,0.0034
1093.00,0.0038
1090.00,0.0040
1087.00,0.0043
1084.00,0.0047
1081.00,0.0056
1078.00,0.0058
1075.00,0.0065
1072.00,0.0075
1069.00,0.0082
1066.00,0.0076
1063.00,0.0063
1060.00,0.0050
1057.00,0.0040
1054.00,0.0035
1051.00,0.0035
1048.00,0.0034
1045.00,0.0032
1042.00,0.0035
1039.00,0.0037
1036.00,0.0050
1033.00,0.0085
1030.00,0.0122
1027.00,0.0129
1024.00,0.0105
1021.00,0.0081
1018.00,0.0068
1015.00,0.0056
1012.00,0.0049
1009.00,0.0041
1006.00,0.0049
1003.00,0.0053
1000.00,0.0042
997.00,0.0034
994.00,0.0034
991.00,0.0034
988.00,0.0035
985.00,0.0040
982.00,0.0045
979.00,0.0048
976.00,0.0048
973.00,0.0048
970.00,0.0052
967.00,0.0058
964.00,0.0062
961.00,0.0059
958.00,0.0050
955.00,0.0045
952.00,0.0047
949.00,0.0049
946.00,0.0049
943.00,0.0053
940.00,0.0051
937.00,0.0043
934.00,0.0036
931.00,0.0036
928.00,0.0036
925.00,0.0038
922.00,0.0040
919.00,0.0045
916.00,0.0058
913.00,0.0073
910.00,0.0092
907.00,0.0105
904.00,0.0101
901.00,0.0082
898.00,0.0059
895.00,0.0045
892.00,0.0040
889.00,0.0035
886.00,0.0031
883.00,0.0029
880.00,0.0030
877.00,0.0028
874.00,0.0028
871.00,0.0028
868.00,0.0026
865.00,0.0027
862.00,0.0026
859.00,0.0025
856.00,0.0026
853.00,0.0030
850.00,0.0034
847.00,0.0040
844.00,0.0049
841.00,0.0052
838.00,0.0045
835.00,0.0036
832.00,0.0028
829.00,0.0024
826.00,0.0023
823.00,0.0021
820.00,0.0022
817.00,0.0025
814.00,0.0024
811.00,0.0024
808.00,0.0024
805.00,0.0025
802.00,0.0028
799.00,0.0031
796.00,0.0037
793.00,0.0043
790.00,0.0048
787.00,0.0056
784.00,0.0068
781.00,0.0084
778.00,0.0107
775.00,0.0138
772.00,0.0179
769.00,0.0225
766.00,0.0275
763.00,0.0322
760.00,0.0375
757.00,0.0421
754.00,0.0460
751.00,0.0423
748.00,0.0414
745.00,0.0383
742.00,0.0308
739.00,0.0225
736.00,0.0162
733.00,0.0109
730.00,0.0071
727.00,0.0054
724.00,0.0049
721.00,0.0048
718.00,0.0050
715.00,0.0062
712.00,0.0089
709.00,0.0166
706.00,0.0318
703.00,0.0555
700.00,0.0846
697.00,0.1122
694.00,0.1224
691.00,0.0958
688.00,0.0634
685.00,0.0445
682.00,0.0340
679.00,0.0272
676.00,0.0227
673.00,0.0202
670.00,0.0183
667.00,0.0162
664.00,0.0143
661.00,0.0123
658.00,0.0107
655.00,0.0095
652.00,0.0083
649.00,0.0075
646.00,0.0070
643.00,0.0064
640.00,0.0063
637.00,0.0069
634.00,0.0072
631.00,0.0078
628.00,0.0084
625.00,0.0083
622.00,0.0088
619.00,0.0084
616.00,0.0075
613.00,0.0072
610.00,0.0067
607.00,0.0065
604.00,0.0067
601.00,0.0070
598.00,0.0072
595.00,0.0073
592.00,0.0078
589.00,0.0085
586.00,0.0085
583.00,0.0092
580.00,0.0102
577.00,0.0120
574.00,0.0132
571.00,0.0151
568.00,0.0174
565.00,0.0193
562.00,0.0208
559.00,0.0222
556.00,0.0248
553.00,0.0273
550.00,0.0297
547.00,0.0332
544.00,0.0376
541.00,0.0426
538.00,0.0451
535.00,0.0427
532.00,0.0371
529.00,0.0309
526.00,0.0248
523.00,0.0206
520.00,0.0173
517.00,0.0154
514.00,0.0137
511.00,0.0123
508.00,0.0120
505.00,0.0154
502.00,0.0237
499.00,0.0096
496.00,0.0081
493.00,0.0082
490.00,0.0083
487.00,0.0080
484.00,0.0074
481.00,0.0079
478.00,0.0081
475.00,0.0068
472.00,0.0067
469.00,0.0075
466.00,0.0063
463.00,0.0065
460.00,0.0048
457.00,0.0045
454.00,0.0054
451.00,0.0068
448.00,0.0057
445.00,0.0053
442.00,0.0057
439.00,0.0055
436.00,0.0044
433.00,0.0051
430.00,0.0058
427.00,0.0048
424.00,0.0037
421.00,0.0025
418.00,0.0013
415.00,0.0019
412.00,0.0028
409.00,0.0052
406.00,0.0047
403.00,0.0010
400.00,-0.0017