File: FTIR/Mary/2025_11_14_Polystyrene_Post_Scan1.csv
Created as New Dataset,Sample 367 By YargerLab Date Friday, November 14 2025
cm-1,A
4000.00,-0.0005
3997.00,-0.0005
3994.00,-0.0004
3991.00,-0.0005
3988.00,-0.0005
3985.00,-0.0006
3982.00,-0.0005
3979.00,-0.0006
3976.00,-0.0006
3973.00,-0.0006
3970.00,-0.0006
3967.00,-0.0006
3964.00,-0.0006
3961.00,-0.0006
3958.00,-0.0007
3955.00,-0.0006
3952.00,-0.0006
3949.00,-0.0007
3946.00,-0.0006
3943.00,-0.0006
3940.00,-0.0005
3937.00,-0.0006
3934.00,-0.0006
3931.00,-0.0007
3928.00,-0.0007
3925.00,-0.0007
3922.00,-0.0007
3919.00,-0.0007
3916.00,-0.0007
3913.00,-0.0006
3910.00,-0.0006
3907.00,-0.0006
3904.00,-0.0007
3901.00,-0.0007
3898.00,-0.0006
3895.00,-0.0006
3892.00,-0.0006
3889.00,-0.0006
3886.00,-0.0008
3883.00,-0.0008
3880.00,-0.0008
3877.00,-0.0007
3874.00,-0.0007
3871.00,-0.0007
3868.00,-0.0008
3865.00,-0.0009
3862.00,-0.0008
3859.00,-0.0007
3856.00,-0.0006
3853.00,-0.0007
3850.00,-0.0009
3847.00,-0.0008
3844.00,-0.0008
3841.00,-0.0008
3838.00,-0.0008
3835.00,-0.0008
3832.00,-0.0008
3829.00,-0.0007
3826.00,-0.0008
3823.00,-0.0009
3820.00,-0.0009
3817.00,-0.0008
3814.00,-0.0007
3811.00,-0.0007
3808.00,-0.0007
3805.00,-0.0006
3802.00,-0.0008
3799.00,-0.0009
3796.00,-0.0009
3793.00,-0.0008
3790.00,-0.0008
3787.00,-0.0009
3784.00,-0.0008
3781.00,-0.0008
3778.00,-0.0008
3775.00,-0.0008
3772.00,-0.0008
3769.00,-0.0008
3766.00,-0.0007
3763.00,-0.0007
3760.00,-0.0008
3757.00,-0.0009
3754.00,-0.0008
3751.00,-0.0007
3748.00,-0.0008
3745.00,-0.0009
3742.00,-0.0009
3739.00,-0.0008
3736.00,-0.0008
3733.00,-0.0008
3730.00,-0.0008
3727.00,-0.0007
3724.00,-0.0007
3721.00,-0.0007
3718.00,-0.0007
3715.00,-0.0007
3712.00,-0.0007
3709.00,-0.0008
3706.00,-0.0007
3703.00,-0.0008
3700.00,-0.0008
3697.00,-0.0008
3694.00,-0.0006
3691.00,-0.0008
3688.00,-0.0008
3685.00,-0.0009
3682.00,-0.0008
3679.00,-0.0007
3676.00,-0.0006
3673.00,-0.0007
3670.00,-0.0008
3667.00,-0.0008
3664.00,-0.0007
3661.00,-0.0005
3658.00,-0.0005
3655.00,-0.0004
3652.00,-0.0003
3649.00,-0.0004
3646.00,-0.0004
3643.00,-0.0004
3640.00,-0.0003
3637.00,-0.0002
3634.00,-0.0002
3631.00,-0.0002
3628.00,-0.0002
3625.00,-0.0002
3622.00,-0.0001
3619.00,-0.0000
3616.00,0.0002
3613.00,0.0002
3610.00,0.0001
3607.00,0.0003
3604.00,0.0004
3601.00,0.0006
3598.00,0.0006
3595.00,0.0006
3592.00,0.0006
3589.00,0.0007
3586.00,0.0007
3583.00,0.0007
3580.00,0.0009
3577.00,0.0010
3574.00,0.0011
3571.00,0.0011
3568.00,0.0012
3565.00,0.0014
3562.00,0.0015
3559.00,0.0017
3556.00,0.0017
3553.00,0.0019
3550.00,0.0020
3547.00,0.0021
3544.00,0.0022
3541.00,0.0022
3538.00,0.0023
3535.00,0.0025
3532.00,0.0026
3529.00,0.0027
3526.00,0.0028
3523.00,0.0030
3520.00,0.0031
3517.00,0.0031
3514.00,0.0032
3511.00,0.0033
3508.00,0.0035
3505.00,0.0036
3502.00,0.0037
3499.00,0.0038
3496.00,0.0038
3493.00,0.0039
3490.00,0.0040
3487.00,0.0042
3484.00,0.0042
3481.00,0.0043
3478.00,0.0045
3475.00,0.0047
3472.00,0.0047
3469.00,0.0046
3466.00,0.0047
3463.00,0.0050
3460.00,0.0050
3457.00,0.0051
3454.00,0.0052
3451.00,0.0052
3448.00,0.0051
3445.00,0.0052
3442.00,0.0053
3439.00,0.0055
3436.00,0.0055
3433.00,0.0055
3430.00,0.0058
3427.00,0.0059
3424.00,0.0060
3421.00,0.0059
3418.00,0.0060
3415.00,0.0061
3412.00,0.0063
3409.00,0.0063
3406.00,0.0064
3403.00,0.0063
3400.00,0.0064
3397.00,0.0066
3394.00,0.0067
3391.00,0.0067
3388.00,0.0067
3385.00,0.0069
3382.00,0.0069
3379.00,0.0069
3376.00,0.0070
3373.00,0.0072
3370.00,0.0072
3367.00,0.0073
3364.00,0.0073
3361.00,0.0074
3358.00,0.0075
3355.00,0.0076
3352.00,0.0077
3349.00,0.0078
3346.00,0.0079
3343.00,0.0079
3340.00,0.0080
3337.00,0.0081
3334.00,0.0082
3331.00,0.0083
3328.00,0.0084
3325.00,0.0084
3322.00,0.0084
3319.00,0.0085
3316.00,0.0086
3313.00,0.0087
3310.00,0.0087
3307.00,0.0087
3304.00,0.0088
3301.00,0.0088
3298.00,0.0088
3295.00,0.0088
3292.00,0.0089
3289.00,0.0090
3286.00,0.0089
3283.00,0.0089
3280.00,0.0089
3277.00,0.0088
3274.00,0.0087
3271.00,0.0085
3268.00,0.0085
3265.00,0.0084
3262.00,0.0084
3259.00,0.0082
3256.00,0.0080
3253.00,0.0079
3250.00,0.0078
3247.00,0.0077
3244.00,0.0076
3241.00,0.0075
3238.00,0.0074
3235.00,0.0072
3232.00,0.0072
3229.00,0.0071
3226.00,0.0070
3223.00,0.0069
3220.00,0.0068
3217.00,0.0067
3214.00,0.0067
3211.00,0.0067
3208.00,0.0068
3205.00,0.0068
3202.00,0.0066
3199.00,0.0065
3196.00,0.0065
3193.00,0.0063
3190.00,0.0062
3187.00,0.0062
3184.00,0.0061
3181.00,0.0060
3178.00,0.0060
3175.00,0.0058
3172.00,0.0058
3169.00,0.0058
3166.00,0.0057
3163.00,0.0056
3160.00,0.0055
3157.00,0.0054
3154.00,0.0053
3151.00,0.0053
3148.00,0.0052
3145.00,0.0051
3142.00,0.0050
3139.00,0.0049
3136.00,0.0049
3133.00,0.0048
3130.00,0.0047
3127.00,0.0048
3124.00,0.0048
3121.00,0.0048
3118.00,0.0049
3115.00,0.0051
3112.00,0.0054
3109.00,0.0059
3106.00,0.0065
3103.00,0.0069
3100.00,0.0068
3097.00,0.0067
3094.00,0.0069
3091.00,0.0077
3088.00,0.0094
3085.00,0.0115
3082.00,0.0126
3079.00,0.0117
3076.00,0.0103
3073.00,0.0099
3070.00,0.0105
3067.00,0.0119
3064.00,0.0143
3061.00,0.0162
3058.00,0.0160
3055.00,0.0139
3052.00,0.0118
3049.00,0.0104
3046.00,0.0095
3043.00,0.0096
3040.00,0.0105
3037.00,0.0123
3034.00,0.0155
3031.00,0.0206
3028.00,0.0262
3025.00,0.0286
3022.00,0.0254
3019.00,0.0191
3016.00,0.0140
3013.00,0.0112
3010.00,0.0099
3007.00,0.0098
3004.00,0.0103
3001.00,0.0106
2998.00,0.0099
2995.00,0.0086
2992.00,0.0080
2989.00,0.0079
2986.00,0.0082
2983.00,0.0086
2980.00,0.0092
2977.00,0.0101
2974.00,0.0110
2971.00,0.0121
2968.00,0.0135
2965.00,0.0151
2962.00,0.0167
2959.00,0.0182
2956.00,0.0195
2953.00,0.0204
2950.00,0.0214
2947.00,0.0233
2944.00,0.0260
2941.00,0.0298
2938.00,0.0346
2935.00,0.0402
2932.00,0.0462
2929.00,0.0519
2926.00,0.0569
2923.00,0.0600
2920.00,0.0611
2917.00,0.0591
2914.00,0.0529
2911.00,0.0461
2908.00,0.0408
2905.00,0.0364
2902.00,0.0327
2899.00,0.0291
2896.00,0.0261
2893.00,0.0238
2890.00,0.0219
2887.00,0.0203
2884.00,0.0189
2881.00,0.0178
2878.00,0.0174
2875.00,0.0173
2872.00,0.0174
2869.00,0.0175
2866.00,0.0182
2863.00,0.0200
2860.00,0.0230
2857.00,0.0270
2854.00,0.0311
2851.00,0.0328
2848.00,0.0292
2845.00,0.0232
2842.00,0.0178
2839.00,0.0134
2836.00,0.0102
2833.00,0.0083
2830.00,0.0070
2827.00,0.0062
2824.00,0.0057
2821.00,0.0053
2818.00,0.0050
2815.00,0.0047
2812.00,0.0044
2809.00,0.0043
2806.00,0.0041
2803.00,0.0039
2800.00,0.0037
2797.00,0.0036
2794.00,0.0034
2791.00,0.0033
2788.00,0.0032
2785.00,0.0031
2782.00,0.0030
2779.00,0.0029
2776.00,0.0029
2773.00,0.0028
2770.00,0.0027
2767.00,0.0026
2764.00,0.0026
2761.00,0.0025
2758.00,0.0024
2755.00,0.0023
2752.00,0.0023
2749.00,0.0023
2746.00,0.0022
2743.00,0.0022
2740.00,0.0023
2737.00,0.0023
2734.00,0.0023
2731.00,0.0022
2728.00,0.0022
2725.00,0.0022
2722.00,0.0022
2719.00,0.0021
2716.00,0.0020
2713.00,0.0020
2710.00,0.0020
2707.00,0.0019
2704.00,0.0020
2701.00,0.0019
2698.00,0.0019
2695.00,0.0020
2692.00,0.0019
2689.00,0.0019
2686.00,0.0019
2683.00,0.0019
2680.00,0.0019
2677.00,0.0018
2674.00,0.0018
2671.00,0.0018
2668.00,0.0018
2665.00,0.0019
2662.00,0.0020
2659.00,0.0020
2656.00,0.0021
2653.00,0.0022
2650.00,0.0021
2647.00,0.0021
2644.00,0.0021
2641.00,0.0020
2638.00,0.0020
2635.00,0.0020
2632.00,0.0019
2629.00,0.0019
2626.00,0.0019
2623.00,0.0017
2620.00,0.0017
2617.00,0.0017
2614.00,0.0017
2611.00,0.0017
2608.00,0.0017
2605.00,0.0015
2602.00,0.0015
2599.00,0.0015
2596.00,0.0014
2593.00,0.0013
2590.00,0.0011
2587.00,0.0011
2584.00,0.0012
2581.00,0.0013
2578.00,0.0012
2575.00,0.0012
2572.00,0.0011
2569.00,0.0010
2566.00,0.0011
2563.00,0.0010
2560.00,0.0010
2557.00,0.0009
2554.00,0.0008
2551.00,0.0009
2548.00,0.0009
2545.00,0.0009
2542.00,0.0008
2539.00,0.0008
2536.00,0.0007
2533.00,0.0007
2530.00,0.0008
2527.00,0.0008
2524.00,0.0007
2521.00,0.0008
2518.00,0.0006
2515.00,0.0005
2512.00,0.0006
2509.00,0.0006
2506.00,0.0005
2503.00,0.0005
2500.00,0.0005
2497.00,0.0004
2494.00,0.0003
2491.00,0.0002
2488.00,0.0002
2485.00,0.0002
2482.00,0.0004
2479.00,0.0003
2476.00,0.0002
2473.00,0.0001
2470.00,0.0001
2467.00,0.0001
2464.00,0.0001
2461.00,-0.0000
2458.00,0.0001
2455.00,0.0001
2452.00,-0.0000
2449.00,-0.0000
2446.00,-0.0001
2443.00,-0.0002
2440.00,-0.0001
2437.00,-0.0002
2434.00,-0.0002
2431.00,-0.0003
2428.00,-0.0002
2425.00,-0.0003
2422.00,-0.0002
2419.00,-0.0003
2416.00,-0.0004
2413.00,-0.0003
2410.00,-0.0003
2407.00,-0.0006
2404.00,-0.0005
2401.00,-0.0007
2398.00,-0.0007
2395.00,-0.0006
2392.00,-0.0006
2389.00,-0.0007
2386.00,-0.0007
2383.00,-0.0007
2380.00,-0.0007
2377.00,-0.0006
2374.00,-0.0008
2371.00,-0.0009
2368.00,-0.0008
2365.00,-0.0005
2362.00,-0.0006
2359.00,-0.0006
2356.00,-0.0004
2353.00,-0.0005
2350.00,-0.0004
2347.00,-0.0002
2344.00,-0.0002
2341.00,-0.0001
2338.00,-0.0000
2335.00,-0.0002
2332.00,-0.0003
2329.00,-0.0000
2326.00,0.0009
2323.00,0.0006
2320.00,0.0001
2317.00,0.0002
2314.00,0.0003
2311.00,0.0003
2308.00,0.0002
2305.00,0.0000
2302.00,-0.0001
2299.00,0.0001
2296.00,0.0002
2293.00,0.0002
2290.00,0.0005
2287.00,0.0005
2284.00,0.0002
2281.00,-0.0001
2278.00,-0.0002
2275.00,-0.0002
2272.00,-0.0003
2269.00,-0.0004
2266.00,-0.0007
2263.00,-0.0006
2260.00,-0.0002
2257.00,-0.0005
2254.00,-0.0008
2251.00,-0.0004
2248.00,-0.0005
2245.00,-0.0007
2242.00,-0.0008
2239.00,-0.0006
2236.00,-0.0008
2233.00,-0.0008
2230.00,-0.0008
2227.00,-0.0008
2224.00,-0.0003
2221.00,-0.0007
2218.00,-0.0011
2215.00,-0.0007
2212.00,-0.0009
2209.00,-0.0008
2206.00,-0.0008
2203.00,-0.0006
2200.00,-0.0009
2197.00,-0.0014
2194.00,-0.0010
2191.00,-0.0006
2188.00,-0.0010
2185.00,-0.0009
2182.00,-0.0011
2179.00,-0.0008
2176.00,-0.0014
2173.00,-0.0011
2170.00,-0.0009
2167.00,-0.0008
2164.00,-0.0001
2161.00,-0.0013
2158.00,-0.0043
2155.00,-0.0038
2152.00,-0.0025
2149.00,-0.0029
2146.00,-0.0031
2143.00,-0.0029
2140.00,-0.0025
2137.00,-0.0031
2134.00,-0.0031
2131.00,-0.0023
2128.00,-0.0023
2125.00,-0.0021
2122.00,-0.0020
2119.00,-0.0015
2116.00,-0.0011
2113.00,-0.0011
2110.00,-0.0012
2107.00,-0.0010
2104.00,-0.0010
2101.00,-0.0012
2098.00,-0.0017
2095.00,-0.0019
2092.00,-0.0015
2089.00,-0.0013
2086.00,-0.0012
2083.00,-0.0012
2080.00,-0.0010
2077.00,-0.0010
2074.00,-0.0011
2071.00,-0.0014
2068.00,-0.0016
2065.00,-0.0016
2062.00,-0.0017
2059.00,-0.0017
2056.00,-0.0018
2053.00,-0.0011
2050.00,-0.0005
2047.00,-0.0008
2044.00,-0.0016
2041.00,-0.0016
2038.00,-0.0014
2035.00,-0.0015
2032.00,-0.0015
2029.00,-0.0020
2026.00,-0.0018
2023.00,-0.0013
2020.00,-0.0020
2017.00,-0.0021
2014.00,-0.0022
2011.00,-0.0019
2008.00,-0.0020
2005.00,-0.0024
2002.00,-0.0020
1999.00,-0.0014
1996.00,-0.0011
1993.00,-0.0007
1990.00,-0.0005
1987.00,-0.0007
1984.00,0.0001
1981.00,-0.0001
1978.00,-0.0013
1975.00,-0.0009
1972.00,-0.0010
1969.00,-0.0008
1966.00,-0.0005
1963.00,0.0002
1960.00,0.0002
1957.00,0.0004
1954.00,0.0006
1951.00,0.0006
1948.00,0.0014
1945.00,0.0019
1942.00,0.0020
1939.00,0.0018
1936.00,0.0012
1933.00,0.0007
1930.00,-0.0000
1927.00,-0.0005
1924.00,-0.0006
1921.00,-0.0004
1918.00,-0.0005
1915.00,-0.0007
1912.00,-0.0007
1909.00,-0.0005
1906.00,-0.0006
1903.00,-0.0005
1900.00,-0.0004
1897.00,-0.0001
1894.00,0.0004
1891.00,0.0009
1888.00,0.0011
1885.00,0.0013
1882.00,0.0014
1879.00,0.0016
1876.00,0.0020
1873.00,0.0022
1870.00,0.0023
1867.00,0.0019
1864.00,0.0015
1861.00,0.0010
1858.00,0.0007
1855.00,0.0004
1852.00,0.0001
1849.00,-0.0001
1846.00,0.0001
1843.00,-0.0001
1840.00,-0.0001
1837.00,0.0000
1834.00,0.0002
1831.00,0.0005
1828.00,0.0008
1825.00,0.0011
1822.00,0.0012
1819.00,0.0014
1816.00,0.0018
1813.00,0.0024
1810.00,0.0029
1807.00,0.0032
1804.00,0.0037
1801.00,0.0040
1798.00,0.0038
1795.00,0.0036
1792.00,0.0031
1789.00,0.0028
1786.00,0.0030
1783.00,0.0032
1780.00,0.0034
1777.00,0.0037
1774.00,0.0042
1771.00,0.0045
1768.00,0.0049
1765.00,0.0056
1762.00,0.0066
1759.00,0.0081
1756.00,0.0103
1753.00,0.0128
1750.00,0.0161
1747.00,0.0189
1744.00,0.0211
1741.00,0.0223
1738.00,0.0225
1735.00,0.0217
1732.00,0.0202
1729.00,0.0189
1726.00,0.0174
1723.00,0.0163
1720.00,0.0156
1717.00,0.0151
1714.00,0.0147
1711.00,0.0144
1708.00,0.0142
1705.00,0.0140
1702.00,0.0138
1699.00,0.0137
1696.00,0.0137
1693.00,0.0143
1690.00,0.0152
1687.00,0.0158
1684.00,0.0169
1681.00,0.0180
1678.00,0.0187
1675.00,0.0197
1672.00,0.0205
1669.00,0.0218
1666.00,0.0226
1663.00,0.0236
1660.00,0.0244
1657.00,0.0247
1654.00,0.0244
1651.00,0.0250
1648.00,0.0245
1645.00,0.0242
1642.00,0.0236
1639.00,0.0230
1636.00,0.0225
1633.00,0.0217
1630.00,0.0205
1627.00,0.0196
1624.00,0.0187
1621.00,0.0178
1618.00,0.0167
1615.00,0.0164
1612.00,0.0166
1609.00,0.0190
1606.00,0.0254
1603.00,0.0345
1600.00,0.0363
1597.00,0.0282
1594.00,0.0208
1591.00,0.0172
1588.00,0.0162
1585.00,0.0185
1582.00,0.0192
1579.00,0.0157
1576.00,0.0132
1573.00,0.0128
1570.00,0.0126
1567.00,0.0127
1564.00,0.0130
1561.00,0.0133
1558.00,0.0148
1555.00,0.0154
1552.00,0.0163
1549.00,0.0170
1546.00,0.0174
1543.00,0.0176
1540.00,0.0170
1537.00,0.0162
1534.00,0.0155
1531.00,0.0143
1528.00,0.0135
1525.00,0.0130
1522.00,0.0125
1519.00,0.0123
1516.00,0.0120
1513.00,0.0114
1510.00,0.0112
1507.00,0.0112
1504.00,0.0118
1501.00,0.0148
1498.00,0.0257
1495.00,0.0579
1492.00,0.0742
1489.00,0.0474
1486.00,0.0270
1483.00,0.0185
1480.00,0.0151
1477.00,0.0149
1474.00,0.0165
1471.00,0.0182
1468.00,0.0198
1465.00,0.0211
1462.00,0.0224
1459.00,0.0266
1456.00,0.0505
1453.00,0.0785
1450.00,0.0779
1447.00,0.0619
1444.00,0.0509
1441.00,0.0419
1438.00,0.0353
1435.00,0.0286
1432.00,0.0241
1429.00,0.0209
1426.00,0.0193
1423.00,0.0187
1420.00,0.0188
1417.00,0.0190
1414.00,0.0186
1411.00,0.0182
1408.00,0.0180
1405.00,0.0183
1402.00,0.0185
1399.00,0.0189
1396.00,0.0193
1393.00,0.0199
1390.00,0.0207
1387.00,0.0223
1384.00,0.0238
1381.00,0.0253
1378.00,0.0267
1375.00,0.0274
1372.00,0.0270
1369.00,0.0265
1366.00,0.0260
1363.00,0.0253
1360.00,0.0244
1357.00,0.0235
1354.00,0.0230
1351.00,0.0231
1348.00,0.0232
1345.00,0.0228
1342.00,0.0223
1339.00,0.0219
1336.00,0.0221
1333.00,0.0229
1330.00,0.0238
1327.00,0.0236
1324.00,0.0229
1321.00,0.0225
1318.00,0.0227
1315.00,0.0235
1312.00,0.0240
1309.00,0.0235
1306.00,0.0228
1303.00,0.0221
1300.00,0.0215
1297.00,0.0215
1294.00,0.0216
1291.00,0.0217
1288.00,0.0216
1285.00,0.0213
1282.00,0.0213
1279.00,0.0213
1276.00,0.0210
1273.00,0.0209
1270.00,0.0209
1267.00,0.0210
1264.00,0.0206
1261.00,0.0205
1258.00,0.0206
1255.00,0.0209
1252.00,0.0215
1249.00,0.0220
1246.00,0.0224
1243.00,0.0225
1240.00,0.0223
1237.00,0.0223
1234.00,0.0222
1231.00,0.0223
1228.00,0.0224
1225.00,0.0225
1222.00,0.0228
1219.00,0.0225
1216.00,0.0222
1213.00,0.0224
1210.00,0.0229
1207.00,0.0237
1204.00,0.0250
1201.00,0.0266
1198.00,0.0274
1195.00,0.0275
1192.00,0.0276
1189.00,0.0281
1186.00,0.0301
1183.00,0.0331
1180.00,0.0337
1177.00,0.0311
1174.00,0.0287
1171.00,0.0278
1168.00,0.0273
1165.00,0.0272
1162.00,0.0276
1159.00,0.0296
1156.00,0.0325
1153.00,0.0323
1150.00,0.0284
1147.00,0.0250
1144.00,0.0231
1141.00,0.0218
1138.00,0.0207
1135.00,0.0202
1132.00,0.0200
1129.00,0.0203
1126.00,0.0208
1123.00,0.0215
1120.00,0.0225
1117.00,0.0238
1114.00,0.0246
1111.00,0.0250
1108.00,0.0251
1105.00,0.0252
1102.00,0.0254
1099.00,0.0257
1096.00,0.0261
1093.00,0.0265
1090.00,0.0272
1087.00,0.0283
1084.00,0.0296
1081.00,0.0313
1078.00,0.0330
1075.00,0.0351
1072.00,0.0375
1069.00,0.0387
1066.00,0.0381
1063.00,0.0359
1060.00,0.0339
1057.00,0.0326
1054.00,0.0317
1051.00,0.0309
1048.00,0.0304
1045.00,0.0299
1042.00,0.0295
1039.00,0.0299
1036.00,0.0334
1033.00,0.0426
1030.00,0.0529
1027.00,0.0552
1024.00,0.0481
1021.00,0.0410
1018.00,0.0364
1015.00,0.0331
1012.00,0.0305
1009.00,0.0287
1006.00,0.0288
1003.00,0.0290
1000.00,0.0264
997.00,0.0235
994.00,0.0224
991.00,0.0219
988.00,0.0220
985.00,0.0231
982.00,0.0239
979.00,0.0237
976.00,0.0228
973.00,0.0220
970.00,0.0224
967.00,0.0237
964.00,0.0241
961.00,0.0227
958.00,0.0204
955.00,0.0188
952.00,0.0181
949.00,0.0182
946.00,0.0186
943.00,0.0190
940.00,0.0188
937.00,0.0180
934.00,0.0169
931.00,0.0156
928.00,0.0149
925.00,0.0149
922.00,0.0152
919.00,0.0161
916.00,0.0185
913.00,0.0226
910.00,0.0279
907.00,0.0316
904.00,0.0307
901.00,0.0257
898.00,0.0204
895.00,0.0173
892.00,0.0154
889.00,0.0141
886.00,0.0131
883.00,0.0123
880.00,0.0120
877.00,0.0119
874.00,0.0118
871.00,0.0115
868.00,0.0116
865.00,0.0116
862.00,0.0116
859.00,0.0117
856.00,0.0119
853.00,0.0125
850.00,0.0141
847.00,0.0162
844.00,0.0181
841.00,0.0189
838.00,0.0173
835.00,0.0147
832.00,0.0126
829.00,0.0117
826.00,0.0113
823.00,0.0111
820.00,0.0111
817.00,0.0112
814.00,0.0115
811.00,0.0116
808.00,0.0117
805.00,0.0121
802.00,0.0123
799.00,0.0129
796.00,0.0139
793.00,0.0154
790.00,0.0173
787.00,0.0198
784.00,0.0228
781.00,0.0268
778.00,0.0327
775.00,0.0409
772.00,0.0520
769.00,0.0654
766.00,0.0791
763.00,0.0922
760.00,0.1062
757.00,0.1171
754.00,0.1203
751.00,0.1197
748.00,0.1195
745.00,0.1110
742.00,0.0901
739.00,0.0687
736.00,0.0517
733.00,0.0380
730.00,0.0294
727.00,0.0252
724.00,0.0240
721.00,0.0238
718.00,0.0239
715.00,0.0255
712.00,0.0317
709.00,0.0503
706.00,0.0894
703.00,0.1534
700.00,0.2415
697.00,0.3426
694.00,0.3779
691.00,0.2759
688.00,0.1764
685.00,0.1256
682.00,0.0986
679.00,0.0821
676.00,0.0717
673.00,0.0648
670.00,0.0593
667.00,0.0541
664.00,0.0503
661.00,0.0459
658.00,0.0416
655.00,0.0382
652.00,0.0357
649.00,0.0337
646.00,0.0325
643.00,0.0315
640.00,0.0310
637.00,0.0324
634.00,0.0338
631.00,0.0348
628.00,0.0360
625.00,0.0369
622.00,0.0384
619.00,0.0382
616.00,0.0364
613.00,0.0348
610.00,0.0340
607.00,0.0331
604.00,0.0330
601.00,0.0335
598.00,0.0337
595.00,0.0344
592.00,0.0351
589.00,0.0357
586.00,0.0372
583.00,0.0383
580.00,0.0409
577.00,0.0448
574.00,0.0493
571.00,0.0538
568.00,0.0584
565.00,0.0627
562.00,0.0670
559.00,0.0714
556.00,0.0765
553.00,0.0817
550.00,0.0887
547.00,0.0979
544.00,0.1092
541.00,0.1210
538.00,0.1274
535.00,0.1214
532.00,0.1067
529.00,0.0902
526.00,0.0751
523.00,0.0641
520.00,0.0572
517.00,0.0527
514.00,0.0487
511.00,0.0447
508.00,0.0407
505.00,0.0385
502.00,0.0366
499.00,0.0345
496.00,0.0332
493.00,0.0326
490.00,0.0308
487.00,0.0299
484.00,0.0298
481.00,0.0288
478.00,0.0276
475.00,0.0281
472.00,0.0280
469.00,0.0287
466.00,0.0270
463.00,0.0262
460.00,0.0262
457.00,0.0268
454.00,0.0250
451.00,0.0254
448.00,0.0243
445.00,0.0239
442.00,0.0231
439.00,0.0225
436.00,0.0238
433.00,0.0219
430.00,0.0211
427.00,0.0219
424.00,0.0231
421.00,0.0237
418.00,0.0239
415.00,0.0224
412.00,0.0232
409.00,0.0242
406.00,0.0211
403.00,0.0213
400.00,0.0189