File: FTIR/Mary/2025_12_02_Polystyrene_Standard_Scan3.csv
Created as New Dataset,Sample 386 By YargerLab Date Tuesday, December 02 2025
cm-1,A
4000.00,0.0009
3997.00,0.0009
3994.00,0.0009
3991.00,0.0010
3988.00,0.0010
3985.00,0.0010
3982.00,0.0009
3979.00,0.0009
3976.00,0.0009
3973.00,0.0009
3970.00,0.0009
3967.00,0.0009
3964.00,0.0009
3961.00,0.0010
3958.00,0.0010
3955.00,0.0009
3952.00,0.0009
3949.00,0.0009
3946.00,0.0010
3943.00,0.0009
3940.00,0.0009
3937.00,0.0009
3934.00,0.0009
3931.00,0.0009
3928.00,0.0009
3925.00,0.0009
3922.00,0.0009
3919.00,0.0009
3916.00,0.0009
3913.00,0.0009
3910.00,0.0008
3907.00,0.0008
3904.00,0.0008
3901.00,0.0008
3898.00,0.0008
3895.00,0.0008
3892.00,0.0009
3889.00,0.0009
3886.00,0.0009
3883.00,0.0009
3880.00,0.0008
3877.00,0.0009
3874.00,0.0009
3871.00,0.0009
3868.00,0.0008
3865.00,0.0008
3862.00,0.0009
3859.00,0.0009
3856.00,0.0009
3853.00,0.0008
3850.00,0.0007
3847.00,0.0008
3844.00,0.0009
3841.00,0.0009
3838.00,0.0008
3835.00,0.0008
3832.00,0.0008
3829.00,0.0009
3826.00,0.0009
3823.00,0.0009
3820.00,0.0009
3817.00,0.0008
3814.00,0.0009
3811.00,0.0009
3808.00,0.0009
3805.00,0.0009
3802.00,0.0008
3799.00,0.0010
3796.00,0.0009
3793.00,0.0009
3790.00,0.0010
3787.00,0.0010
3784.00,0.0009
3781.00,0.0009
3778.00,0.0010
3775.00,0.0010
3772.00,0.0009
3769.00,0.0009
3766.00,0.0009
3763.00,0.0010
3760.00,0.0009
3757.00,0.0009
3754.00,0.0010
3751.00,0.0009
3748.00,0.0009
3745.00,0.0008
3742.00,0.0009
3739.00,0.0008
3736.00,0.0008
3733.00,0.0008
3730.00,0.0008
3727.00,0.0008
3724.00,0.0008
3721.00,0.0009
3718.00,0.0008
3715.00,0.0009
3712.00,0.0008
3709.00,0.0007
3706.00,0.0007
3703.00,0.0008
3700.00,0.0009
3697.00,0.0008
3694.00,0.0009
3691.00,0.0009
3688.00,0.0008
3685.00,0.0007
3682.00,0.0008
3679.00,0.0009
3676.00,0.0009
3673.00,0.0009
3670.00,0.0008
3667.00,0.0008
3664.00,0.0008
3661.00,0.0008
3658.00,0.0009
3655.00,0.0009
3652.00,0.0009
3649.00,0.0009
3646.00,0.0008
3643.00,0.0009
3640.00,0.0010
3637.00,0.0009
3634.00,0.0009
3631.00,0.0010
3628.00,0.0010
3625.00,0.0009
3622.00,0.0009
3619.00,0.0010
3616.00,0.0010
3613.00,0.0010
3610.00,0.0010
3607.00,0.0010
3604.00,0.0010
3601.00,0.0011
3598.00,0.0011
3595.00,0.0011
3592.00,0.0011
3589.00,0.0011
3586.00,0.0011
3583.00,0.0012
3580.00,0.0011
3577.00,0.0012
3574.00,0.0012
3571.00,0.0013
3568.00,0.0013
3565.00,0.0013
3562.00,0.0013
3559.00,0.0013
3556.00,0.0014
3553.00,0.0015
3550.00,0.0015
3547.00,0.0014
3544.00,0.0015
3541.00,0.0015
3538.00,0.0016
3535.00,0.0016
3532.00,0.0016
3529.00,0.0016
3526.00,0.0017
3523.00,0.0017
3520.00,0.0017
3517.00,0.0017
3514.00,0.0017
3511.00,0.0018
3508.00,0.0018
3505.00,0.0019
3502.00,0.0019
3499.00,0.0019
3496.00,0.0019
3493.00,0.0019
3490.00,0.0019
3487.00,0.0020
3484.00,0.0020
3481.00,0.0020
3478.00,0.0021
3475.00,0.0021
3472.00,0.0021
3469.00,0.0021
3466.00,0.0021
3463.00,0.0020
3460.00,0.0021
3457.00,0.0021
3454.00,0.0022
3451.00,0.0022
3448.00,0.0022
3445.00,0.0022
3442.00,0.0023
3439.00,0.0023
3436.00,0.0023
3433.00,0.0023
3430.00,0.0023
3427.00,0.0023
3424.00,0.0023
3421.00,0.0023
3418.00,0.0023
3415.00,0.0023
3412.00,0.0024
3409.00,0.0023
3406.00,0.0023
3403.00,0.0024
3400.00,0.0024
3397.00,0.0024
3394.00,0.0024
3391.00,0.0024
3388.00,0.0024
3385.00,0.0024
3382.00,0.0024
3379.00,0.0025
3376.00,0.0025
3373.00,0.0025
3370.00,0.0025
3367.00,0.0025
3364.00,0.0025
3361.00,0.0025
3358.00,0.0026
3355.00,0.0026
3352.00,0.0026
3349.00,0.0026
3346.00,0.0026
3343.00,0.0026
3340.00,0.0026
3337.00,0.0026
3334.00,0.0026
3331.00,0.0027
3328.00,0.0027
3325.00,0.0027
3322.00,0.0027
3319.00,0.0027
3316.00,0.0027
3313.00,0.0027
3310.00,0.0027
3307.00,0.0027
3304.00,0.0027
3301.00,0.0028
3298.00,0.0027
3295.00,0.0027
3292.00,0.0027
3289.00,0.0027
3286.00,0.0027
3283.00,0.0027
3280.00,0.0027
3277.00,0.0027
3274.00,0.0026
3271.00,0.0026
3268.00,0.0027
3265.00,0.0026
3262.00,0.0026
3259.00,0.0026
3256.00,0.0025
3253.00,0.0025
3250.00,0.0025
3247.00,0.0025
3244.00,0.0024
3241.00,0.0024
3238.00,0.0025
3235.00,0.0025
3232.00,0.0024
3229.00,0.0024
3226.00,0.0024
3223.00,0.0024
3220.00,0.0024
3217.00,0.0024
3214.00,0.0024
3211.00,0.0024
3208.00,0.0024
3205.00,0.0024
3202.00,0.0023
3199.00,0.0023
3196.00,0.0023
3193.00,0.0023
3190.00,0.0023
3187.00,0.0023
3184.00,0.0023
3181.00,0.0022
3178.00,0.0022
3175.00,0.0022
3172.00,0.0022
3169.00,0.0022
3166.00,0.0022
3163.00,0.0022
3160.00,0.0022
3157.00,0.0021
3154.00,0.0021
3151.00,0.0021
3148.00,0.0021
3145.00,0.0020
3142.00,0.0021
3139.00,0.0021
3136.00,0.0021
3133.00,0.0021
3130.00,0.0021
3127.00,0.0021
3124.00,0.0021
3121.00,0.0021
3118.00,0.0022
3115.00,0.0023
3112.00,0.0025
3109.00,0.0027
3106.00,0.0030
3103.00,0.0032
3100.00,0.0032
3097.00,0.0031
3094.00,0.0032
3091.00,0.0036
3088.00,0.0044
3085.00,0.0054
3082.00,0.0060
3079.00,0.0056
3076.00,0.0050
3073.00,0.0048
3070.00,0.0049
3067.00,0.0056
3064.00,0.0067
3061.00,0.0077
3058.00,0.0077
3055.00,0.0068
3052.00,0.0057
3049.00,0.0050
3046.00,0.0046
3043.00,0.0047
3040.00,0.0050
3037.00,0.0059
3034.00,0.0074
3031.00,0.0098
3028.00,0.0125
3025.00,0.0139
3022.00,0.0125
3019.00,0.0095
3016.00,0.0068
3013.00,0.0051
3010.00,0.0044
3007.00,0.0042
3004.00,0.0045
3001.00,0.0047
2998.00,0.0044
2995.00,0.0038
2992.00,0.0033
2989.00,0.0031
2986.00,0.0030
2983.00,0.0031
2980.00,0.0033
2977.00,0.0034
2974.00,0.0036
2971.00,0.0038
2968.00,0.0041
2965.00,0.0045
2962.00,0.0048
2959.00,0.0052
2956.00,0.0056
2953.00,0.0061
2950.00,0.0068
2947.00,0.0076
2944.00,0.0086
2941.00,0.0098
2938.00,0.0113
2935.00,0.0130
2932.00,0.0148
2929.00,0.0166
2926.00,0.0179
2923.00,0.0188
2920.00,0.0189
2917.00,0.0185
2914.00,0.0173
2911.00,0.0158
2908.00,0.0142
2905.00,0.0128
2902.00,0.0115
2899.00,0.0102
2896.00,0.0091
2893.00,0.0082
2890.00,0.0077
2887.00,0.0071
2884.00,0.0066
2881.00,0.0062
2878.00,0.0059
2875.00,0.0057
2872.00,0.0056
2869.00,0.0055
2866.00,0.0056
2863.00,0.0060
2860.00,0.0067
2857.00,0.0077
2854.00,0.0087
2851.00,0.0094
2848.00,0.0092
2845.00,0.0081
2842.00,0.0066
2839.00,0.0051
2836.00,0.0040
2833.00,0.0033
2830.00,0.0029
2827.00,0.0026
2824.00,0.0024
2821.00,0.0023
2818.00,0.0022
2815.00,0.0022
2812.00,0.0022
2809.00,0.0022
2806.00,0.0021
2803.00,0.0020
2800.00,0.0020
2797.00,0.0019
2794.00,0.0018
2791.00,0.0018
2788.00,0.0019
2785.00,0.0018
2782.00,0.0018
2779.00,0.0017
2776.00,0.0017
2773.00,0.0017
2770.00,0.0017
2767.00,0.0017
2764.00,0.0017
2761.00,0.0017
2758.00,0.0016
2755.00,0.0016
2752.00,0.0016
2749.00,0.0016
2746.00,0.0016
2743.00,0.0016
2740.00,0.0016
2737.00,0.0016
2734.00,0.0016
2731.00,0.0016
2728.00,0.0016
2725.00,0.0016
2722.00,0.0016
2719.00,0.0015
2716.00,0.0015
2713.00,0.0015
2710.00,0.0015
2707.00,0.0015
2704.00,0.0015
2701.00,0.0016
2698.00,0.0015
2695.00,0.0015
2692.00,0.0015
2689.00,0.0015
2686.00,0.0015
2683.00,0.0015
2680.00,0.0015
2677.00,0.0015
2674.00,0.0015
2671.00,0.0015
2668.00,0.0015
2665.00,0.0017
2662.00,0.0018
2659.00,0.0018
2656.00,0.0019
2653.00,0.0019
2650.00,0.0019
2647.00,0.0019
2644.00,0.0019
2641.00,0.0019
2638.00,0.0019
2635.00,0.0019
2632.00,0.0019
2629.00,0.0019
2626.00,0.0018
2623.00,0.0018
2620.00,0.0017
2617.00,0.0017
2614.00,0.0016
2611.00,0.0016
2608.00,0.0017
2605.00,0.0017
2602.00,0.0017
2599.00,0.0016
2596.00,0.0016
2593.00,0.0015
2590.00,0.0014
2587.00,0.0014
2584.00,0.0014
2581.00,0.0014
2578.00,0.0015
2575.00,0.0014
2572.00,0.0013
2569.00,0.0014
2566.00,0.0013
2563.00,0.0013
2560.00,0.0013
2557.00,0.0013
2554.00,0.0013
2551.00,0.0013
2548.00,0.0012
2545.00,0.0011
2542.00,0.0012
2539.00,0.0012
2536.00,0.0012
2533.00,0.0012
2530.00,0.0012
2527.00,0.0012
2524.00,0.0011
2521.00,0.0011
2518.00,0.0012
2515.00,0.0012
2512.00,0.0011
2509.00,0.0011
2506.00,0.0012
2503.00,0.0011
2500.00,0.0011
2497.00,0.0011
2494.00,0.0010
2491.00,0.0010
2488.00,0.0011
2485.00,0.0011
2482.00,0.0011
2479.00,0.0010
2476.00,0.0010
2473.00,0.0010
2470.00,0.0011
2467.00,0.0010
2464.00,0.0011
2461.00,0.0011
2458.00,0.0011
2455.00,0.0011
2452.00,0.0010
2449.00,0.0010
2446.00,0.0010
2443.00,0.0010
2440.00,0.0009
2437.00,0.0008
2434.00,0.0008
2431.00,0.0008
2428.00,0.0008
2425.00,0.0007
2422.00,0.0007
2419.00,0.0007
2416.00,0.0008
2413.00,0.0008
2410.00,0.0007
2407.00,0.0006
2404.00,0.0006
2401.00,0.0006
2398.00,0.0006
2395.00,0.0006
2392.00,0.0006
2389.00,0.0006
2386.00,0.0005
2383.00,0.0004
2380.00,0.0004
2377.00,0.0006
2374.00,0.0006
2371.00,0.0005
2368.00,0.0004
2365.00,0.0005
2362.00,0.0007
2359.00,0.0007
2356.00,0.0006
2353.00,0.0007
2350.00,0.0008
2347.00,0.0009
2344.00,0.0011
2341.00,0.0010
2338.00,0.0011
2335.00,0.0011
2332.00,0.0010
2329.00,0.0011
2326.00,0.0018
2323.00,0.0017
2320.00,0.0015
2317.00,0.0013
2314.00,0.0012
2311.00,0.0012
2308.00,0.0011
2305.00,0.0011
2302.00,0.0010
2299.00,0.0010
2296.00,0.0011
2293.00,0.0015
2290.00,0.0017
2287.00,0.0017
2284.00,0.0016
2281.00,0.0014
2278.00,0.0013
2275.00,0.0011
2272.00,0.0011
2269.00,0.0011
2266.00,0.0011
2263.00,0.0009
2260.00,0.0010
2257.00,0.0010
2254.00,0.0010
2251.00,0.0011
2248.00,0.0011
2245.00,0.0009
2242.00,0.0010
2239.00,0.0011
2236.00,0.0009
2233.00,0.0010
2230.00,0.0010
2227.00,0.0010
2224.00,0.0008
2221.00,0.0006
2218.00,0.0006
2215.00,0.0008
2212.00,0.0010
2209.00,0.0010
2206.00,0.0010
2203.00,0.0012
2200.00,0.0011
2197.00,0.0009
2194.00,0.0009
2191.00,0.0011
2188.00,0.0011
2185.00,0.0010
2182.00,0.0003
2179.00,0.0005
2176.00,0.0005
2173.00,0.0008
2170.00,0.0011
2167.00,0.0015
2164.00,0.0014
2161.00,0.0004
2158.00,-0.0018
2155.00,-0.0016
2152.00,-0.0011
2149.00,-0.0006
2146.00,-0.0010
2143.00,-0.0009
2140.00,-0.0005
2137.00,-0.0009
2134.00,-0.0013
2131.00,-0.0008
2128.00,-0.0005
2125.00,-0.0003
2122.00,-0.0000
2119.00,0.0004
2116.00,0.0005
2113.00,0.0005
2110.00,0.0006
2107.00,0.0006
2104.00,0.0005
2101.00,0.0004
2098.00,0.0002
2095.00,-0.0001
2092.00,0.0002
2089.00,0.0006
2086.00,0.0008
2083.00,0.0008
2080.00,0.0008
2077.00,0.0009
2074.00,0.0007
2071.00,0.0007
2068.00,0.0007
2065.00,0.0007
2062.00,0.0006
2059.00,0.0004
2056.00,0.0005
2053.00,0.0013
2050.00,0.0013
2047.00,0.0008
2044.00,0.0009
2041.00,0.0011
2038.00,0.0010
2035.00,0.0006
2032.00,0.0002
2029.00,0.0004
2026.00,0.0002
2023.00,-0.0001
2020.00,-0.0006
2017.00,-0.0006
2014.00,-0.0005
2011.00,-0.0017
2008.00,-0.0006
2005.00,-0.0008
2002.00,-0.0003
1999.00,-0.0000
1996.00,0.0003
1993.00,0.0005
1990.00,0.0007
1987.00,0.0011
1984.00,0.0012
1981.00,0.0019
1978.00,0.0012
1975.00,0.0004
1972.00,0.0003
1969.00,0.0005
1966.00,0.0004
1963.00,0.0004
1960.00,0.0006
1957.00,0.0010
1954.00,0.0012
1951.00,0.0012
1948.00,0.0014
1945.00,0.0018
1942.00,0.0019
1939.00,0.0016
1936.00,0.0013
1933.00,0.0010
1930.00,0.0007
1927.00,0.0006
1924.00,0.0005
1921.00,0.0006
1918.00,0.0005
1915.00,0.0005
1912.00,0.0004
1909.00,0.0004
1906.00,0.0005
1903.00,0.0005
1900.00,0.0006
1897.00,0.0006
1894.00,0.0008
1891.00,0.0010
1888.00,0.0012
1885.00,0.0013
1882.00,0.0016
1879.00,0.0015
1876.00,0.0015
1873.00,0.0017
1870.00,0.0018
1867.00,0.0018
1864.00,0.0016
1861.00,0.0014
1858.00,0.0012
1855.00,0.0010
1852.00,0.0008
1849.00,0.0007
1846.00,0.0006
1843.00,0.0006
1840.00,0.0006
1837.00,0.0007
1834.00,0.0007
1831.00,0.0008
1828.00,0.0009
1825.00,0.0011
1822.00,0.0012
1819.00,0.0012
1816.00,0.0013
1813.00,0.0017
1810.00,0.0019
1807.00,0.0021
1804.00,0.0023
1801.00,0.0023
1798.00,0.0023
1795.00,0.0021
1792.00,0.0018
1789.00,0.0018
1786.00,0.0017
1783.00,0.0017
1780.00,0.0019
1777.00,0.0019
1774.00,0.0020
1771.00,0.0021
1768.00,0.0023
1765.00,0.0024
1762.00,0.0026
1759.00,0.0030
1756.00,0.0036
1753.00,0.0042
1750.00,0.0050
1747.00,0.0058
1744.00,0.0062
1741.00,0.0064
1738.00,0.0063
1735.00,0.0062
1732.00,0.0057
1729.00,0.0055
1726.00,0.0052
1723.00,0.0050
1720.00,0.0048
1717.00,0.0045
1714.00,0.0044
1711.00,0.0044
1708.00,0.0043
1705.00,0.0043
1702.00,0.0044
1699.00,0.0044
1696.00,0.0045
1693.00,0.0047
1690.00,0.0050
1687.00,0.0053
1684.00,0.0056
1681.00,0.0058
1678.00,0.0060
1675.00,0.0062
1672.00,0.0064
1669.00,0.0064
1666.00,0.0065
1663.00,0.0066
1660.00,0.0066
1657.00,0.0066
1654.00,0.0066
1651.00,0.0063
1648.00,0.0063
1645.00,0.0060
1642.00,0.0057
1639.00,0.0055
1636.00,0.0053
1633.00,0.0051
1630.00,0.0049
1627.00,0.0049
1624.00,0.0047
1621.00,0.0046
1618.00,0.0046
1615.00,0.0048
1612.00,0.0052
1609.00,0.0064
1606.00,0.0093
1603.00,0.0133
1600.00,0.0145
1597.00,0.0112
1594.00,0.0079
1591.00,0.0063
1588.00,0.0058
1585.00,0.0068
1582.00,0.0072
1579.00,0.0056
1576.00,0.0045
1573.00,0.0041
1570.00,0.0039
1567.00,0.0038
1564.00,0.0039
1561.00,0.0039
1558.00,0.0041
1555.00,0.0042
1552.00,0.0045
1549.00,0.0047
1546.00,0.0049
1543.00,0.0050
1540.00,0.0049
1537.00,0.0047
1534.00,0.0045
1531.00,0.0043
1528.00,0.0041
1525.00,0.0040
1522.00,0.0038
1519.00,0.0038
1516.00,0.0038
1513.00,0.0038
1510.00,0.0038
1507.00,0.0039
1504.00,0.0046
1501.00,0.0060
1498.00,0.0106
1495.00,0.0239
1492.00,0.0321
1489.00,0.0207
1486.00,0.0114
1483.00,0.0076
1480.00,0.0058
1477.00,0.0051
1474.00,0.0050
1471.00,0.0052
1468.00,0.0058
1465.00,0.0062
1462.00,0.0070
1459.00,0.0090
1456.00,0.0182
1453.00,0.0305
1450.00,0.0312
1447.00,0.0243
1444.00,0.0196
1441.00,0.0158
1438.00,0.0129
1435.00,0.0097
1432.00,0.0079
1429.00,0.0067
1426.00,0.0061
1423.00,0.0058
1420.00,0.0057
1417.00,0.0056
1414.00,0.0056
1411.00,0.0054
1408.00,0.0054
1405.00,0.0055
1402.00,0.0056
1399.00,0.0056
1396.00,0.0057
1393.00,0.0060
1390.00,0.0065
1387.00,0.0072
1384.00,0.0078
1381.00,0.0084
1378.00,0.0090
1375.00,0.0094
1372.00,0.0095
1369.00,0.0094
1366.00,0.0093
1363.00,0.0091
1360.00,0.0088
1357.00,0.0085
1354.00,0.0083
1351.00,0.0082
1348.00,0.0081
1345.00,0.0079
1342.00,0.0076
1339.00,0.0073
1336.00,0.0073
1333.00,0.0078
1330.00,0.0082
1327.00,0.0083
1324.00,0.0080
1321.00,0.0079
1318.00,0.0079
1315.00,0.0080
1312.00,0.0081
1309.00,0.0079
1306.00,0.0076
1303.00,0.0073
1300.00,0.0071
1297.00,0.0071
1294.00,0.0072
1291.00,0.0071
1288.00,0.0069
1285.00,0.0069
1282.00,0.0068
1279.00,0.0067
1276.00,0.0065
1273.00,0.0063
1270.00,0.0062
1267.00,0.0060
1264.00,0.0059
1261.00,0.0058
1258.00,0.0058
1255.00,0.0058
1252.00,0.0059
1249.00,0.0059
1246.00,0.0060
1243.00,0.0061
1240.00,0.0061
1237.00,0.0060
1234.00,0.0060
1231.00,0.0060
1228.00,0.0061
1225.00,0.0061
1222.00,0.0061
1219.00,0.0061
1216.00,0.0061
1213.00,0.0062
1210.00,0.0063
1207.00,0.0066
1204.00,0.0069
1201.00,0.0074
1198.00,0.0077
1195.00,0.0079
1192.00,0.0080
1189.00,0.0082
1186.00,0.0087
1183.00,0.0098
1180.00,0.0101
1177.00,0.0090
1174.00,0.0080
1171.00,0.0076
1168.00,0.0075
1165.00,0.0074
1162.00,0.0076
1159.00,0.0086
1156.00,0.0099
1153.00,0.0099
1150.00,0.0083
1147.00,0.0071
1144.00,0.0064
1141.00,0.0060
1138.00,0.0058
1135.00,0.0056
1132.00,0.0055
1129.00,0.0055
1126.00,0.0056
1123.00,0.0057
1120.00,0.0060
1117.00,0.0065
1114.00,0.0067
1111.00,0.0068
1108.00,0.0068
1105.00,0.0068
1102.00,0.0069
1099.00,0.0070
1096.00,0.0072
1093.00,0.0073
1090.00,0.0075
1087.00,0.0079
1084.00,0.0083
1081.00,0.0089
1078.00,0.0096
1075.00,0.0105
1072.00,0.0117
1069.00,0.0123
1066.00,0.0119
1063.00,0.0107
1060.00,0.0096
1057.00,0.0090
1054.00,0.0084
1051.00,0.0080
1048.00,0.0075
1045.00,0.0073
1042.00,0.0072
1039.00,0.0076
1036.00,0.0094
1033.00,0.0132
1030.00,0.0176
1027.00,0.0185
1024.00,0.0155
1021.00,0.0128
1018.00,0.0110
1015.00,0.0098
1012.00,0.0088
1009.00,0.0085
1006.00,0.0088
1003.00,0.0090
1000.00,0.0081
997.00,0.0070
994.00,0.0068
991.00,0.0068
988.00,0.0070
985.00,0.0075
982.00,0.0080
979.00,0.0080
976.00,0.0077
973.00,0.0074
970.00,0.0076
967.00,0.0083
964.00,0.0085
961.00,0.0080
958.00,0.0071
955.00,0.0066
952.00,0.0065
949.00,0.0066
946.00,0.0068
943.00,0.0071
940.00,0.0068
937.00,0.0063
934.00,0.0057
931.00,0.0054
928.00,0.0053
925.00,0.0054
922.00,0.0056
919.00,0.0061
916.00,0.0070
913.00,0.0089
910.00,0.0110
907.00,0.0124
904.00,0.0118
901.00,0.0096
898.00,0.0073
895.00,0.0059
892.00,0.0053
889.00,0.0049
886.00,0.0046
883.00,0.0043
880.00,0.0042
877.00,0.0040
874.00,0.0040
871.00,0.0039
868.00,0.0038
865.00,0.0038
862.00,0.0038
859.00,0.0038
856.00,0.0040
853.00,0.0043
850.00,0.0049
847.00,0.0057
844.00,0.0065
841.00,0.0067
838.00,0.0062
835.00,0.0051
832.00,0.0043
829.00,0.0040
826.00,0.0038
823.00,0.0036
820.00,0.0035
817.00,0.0036
814.00,0.0037
811.00,0.0038
808.00,0.0039
805.00,0.0039
802.00,0.0041
799.00,0.0044
796.00,0.0048
793.00,0.0054
790.00,0.0062
787.00,0.0074
784.00,0.0086
781.00,0.0103
778.00,0.0128
775.00,0.0162
772.00,0.0206
769.00,0.0260
766.00,0.0314
763.00,0.0364
760.00,0.0415
757.00,0.0456
754.00,0.0468
751.00,0.0464
748.00,0.0462
745.00,0.0428
742.00,0.0346
739.00,0.0259
736.00,0.0188
733.00,0.0130
730.00,0.0092
727.00,0.0075
724.00,0.0068
721.00,0.0067
718.00,0.0071
715.00,0.0082
712.00,0.0114
709.00,0.0195
706.00,0.0357
703.00,0.0592
700.00,0.0873
697.00,0.1143
694.00,0.1230
691.00,0.0965
688.00,0.0643
685.00,0.0456
682.00,0.0352
679.00,0.0286
676.00,0.0246
673.00,0.0219
670.00,0.0202
667.00,0.0180
664.00,0.0160
661.00,0.0144
658.00,0.0128
655.00,0.0117
652.00,0.0106
649.00,0.0097
646.00,0.0089
643.00,0.0086
640.00,0.0087
637.00,0.0090
634.00,0.0095
631.00,0.0100
628.00,0.0103
625.00,0.0107
622.00,0.0113
619.00,0.0112
616.00,0.0102
613.00,0.0096
610.00,0.0091
607.00,0.0092
604.00,0.0092
601.00,0.0091
598.00,0.0094
595.00,0.0099
592.00,0.0102
589.00,0.0106
586.00,0.0112
583.00,0.0117
580.00,0.0128
577.00,0.0142
574.00,0.0158
571.00,0.0179
568.00,0.0199
565.00,0.0215
562.00,0.0231
559.00,0.0249
556.00,0.0267
553.00,0.0290
550.00,0.0316
547.00,0.0353
544.00,0.0393
541.00,0.0433
538.00,0.0455
535.00,0.0435
532.00,0.0380
529.00,0.0316
526.00,0.0256
523.00,0.0212
520.00,0.0192
517.00,0.0173
514.00,0.0157
511.00,0.0146
508.00,0.0135
505.00,0.0125
502.00,0.0118
499.00,0.0112
496.00,0.0107
493.00,0.0102
490.00,0.0097
487.00,0.0095
484.00,0.0093
481.00,0.0090
478.00,0.0092
475.00,0.0091
472.00,0.0088
469.00,0.0086
466.00,0.0087
463.00,0.0076
460.00,0.0077
457.00,0.0080
454.00,0.0078
451.00,0.0077
448.00,0.0076
445.00,0.0075
442.00,0.0076
439.00,0.0070
436.00,0.0068
433.00,0.0063
430.00,0.0066
427.00,0.0062
424.00,0.0052
421.00,0.0058
418.00,0.0053
415.00,0.0065
412.00,0.0061
409.00,0.0078
406.00,0.0075
403.00,0.0076
400.00,0.0054