File: FTIR/Mary/2025_06_11_Standard_Polystyrene_prescan_1.csv
Created as New Dataset,Sample 655 By YargerLab Date Tuesday, June 10 2025
cm-1,A
4000.00,0.0041
3997.00,0.0041
3994.00,0.0041
3991.00,0.0042
3988.00,0.0041
3985.00,0.0041
3982.00,0.0041
3979.00,0.0040
3976.00,0.0040
3973.00,0.0040
3970.00,0.0041
3967.00,0.0041
3964.00,0.0041
3961.00,0.0041
3958.00,0.0042
3955.00,0.0041
3952.00,0.0041
3949.00,0.0042
3946.00,0.0044
3943.00,0.0042
3940.00,0.0041
3937.00,0.0042
3934.00,0.0044
3931.00,0.0043
3928.00,0.0043
3925.00,0.0041
3922.00,0.0043
3919.00,0.0045
3916.00,0.0044
3913.00,0.0042
3910.00,0.0041
3907.00,0.0041
3904.00,0.0046
3901.00,0.0052
3898.00,0.0048
3895.00,0.0046
3892.00,0.0042
3889.00,0.0045
3886.00,0.0048
3883.00,0.0046
3880.00,0.0045
3877.00,0.0046
3874.00,0.0045
3871.00,0.0048
3868.00,0.0048
3865.00,0.0049
3862.00,0.0048
3859.00,0.0046
3856.00,0.0038
3853.00,0.0041
3850.00,0.0048
3847.00,0.0048
3844.00,0.0048
3841.00,0.0048
3838.00,0.0048
3835.00,0.0048
3832.00,0.0048
3829.00,0.0047
3826.00,0.0045
3823.00,0.0048
3820.00,0.0046
3817.00,0.0049
3814.00,0.0044
3811.00,0.0043
3808.00,0.0044
3805.00,0.0047
3802.00,0.0049
3799.00,0.0047
3796.00,0.0047
3793.00,0.0043
3790.00,0.0041
3787.00,0.0040
3784.00,0.0040
3781.00,0.0043
3778.00,0.0042
3775.00,0.0042
3772.00,0.0043
3769.00,0.0044
3766.00,0.0046
3763.00,0.0046
3760.00,0.0047
3757.00,0.0047
3754.00,0.0050
3751.00,0.0052
3748.00,0.0055
3745.00,0.0056
3742.00,0.0054
3739.00,0.0056
3736.00,0.0057
3733.00,0.0056
3730.00,0.0051
3727.00,0.0050
3724.00,0.0048
3721.00,0.0047
3718.00,0.0045
3715.00,0.0045
3712.00,0.0048
3709.00,0.0048
3706.00,0.0045
3703.00,0.0043
3700.00,0.0041
3697.00,0.0041
3694.00,0.0042
3691.00,0.0043
3688.00,0.0045
3685.00,0.0044
3682.00,0.0044
3679.00,0.0046
3676.00,0.0051
3673.00,0.0051
3670.00,0.0050
3667.00,0.0046
3664.00,0.0043
3661.00,0.0042
3658.00,0.0043
3655.00,0.0047
3652.00,0.0054
3649.00,0.0056
3646.00,0.0054
3643.00,0.0047
3640.00,0.0043
3637.00,0.0043
3634.00,0.0046
3631.00,0.0048
3628.00,0.0052
3625.00,0.0053
3622.00,0.0048
3619.00,0.0046
3616.00,0.0051
3613.00,0.0052
3610.00,0.0055
3607.00,0.0051
3604.00,0.0049
3601.00,0.0049
3598.00,0.0050
3595.00,0.0049
3592.00,0.0051
3589.00,0.0054
3586.00,0.0052
3583.00,0.0052
3580.00,0.0048
3577.00,0.0046
3574.00,0.0047
3571.00,0.0051
3568.00,0.0057
3565.00,0.0056
3562.00,0.0053
3559.00,0.0050
3556.00,0.0050
3553.00,0.0050
3550.00,0.0052
3547.00,0.0055
3544.00,0.0054
3541.00,0.0053
3538.00,0.0053
3535.00,0.0052
3532.00,0.0053
3529.00,0.0054
3526.00,0.0056
3523.00,0.0057
3520.00,0.0059
3517.00,0.0057
3514.00,0.0055
3511.00,0.0055
3508.00,0.0056
3505.00,0.0057
3502.00,0.0058
3499.00,0.0058
3496.00,0.0058
3493.00,0.0057
3490.00,0.0057
3487.00,0.0058
3484.00,0.0059
3481.00,0.0059
3478.00,0.0060
3475.00,0.0059
3472.00,0.0060
3469.00,0.0060
3466.00,0.0061
3463.00,0.0061
3460.00,0.0062
3457.00,0.0064
3454.00,0.0064
3451.00,0.0062
3448.00,0.0064
3445.00,0.0064
3442.00,0.0064
3439.00,0.0065
3436.00,0.0064
3433.00,0.0065
3430.00,0.0065
3427.00,0.0066
3424.00,0.0066
3421.00,0.0066
3418.00,0.0068
3415.00,0.0068
3412.00,0.0069
3409.00,0.0068
3406.00,0.0069
3403.00,0.0069
3400.00,0.0071
3397.00,0.0072
3394.00,0.0071
3391.00,0.0072
3388.00,0.0072
3385.00,0.0073
3382.00,0.0073
3379.00,0.0074
3376.00,0.0075
3373.00,0.0076
3370.00,0.0076
3367.00,0.0077
3364.00,0.0079
3361.00,0.0080
3358.00,0.0080
3355.00,0.0080
3352.00,0.0082
3349.00,0.0082
3346.00,0.0083
3343.00,0.0085
3340.00,0.0086
3337.00,0.0087
3334.00,0.0087
3331.00,0.0088
3328.00,0.0090
3325.00,0.0091
3322.00,0.0092
3319.00,0.0093
3316.00,0.0094
3313.00,0.0096
3310.00,0.0098
3307.00,0.0098
3304.00,0.0099
3301.00,0.0099
3298.00,0.0101
3295.00,0.0102
3292.00,0.0102
3289.00,0.0102
3286.00,0.0102
3283.00,0.0102
3280.00,0.0101
3277.00,0.0100
3274.00,0.0101
3271.00,0.0099
3268.00,0.0095
3265.00,0.0095
3262.00,0.0094
3259.00,0.0092
3256.00,0.0091
3253.00,0.0090
3250.00,0.0089
3247.00,0.0088
3244.00,0.0087
3241.00,0.0086
3238.00,0.0085
3235.00,0.0084
3232.00,0.0083
3229.00,0.0082
3226.00,0.0081
3223.00,0.0080
3220.00,0.0080
3217.00,0.0080
3214.00,0.0079
3211.00,0.0078
3208.00,0.0077
3205.00,0.0076
3202.00,0.0075
3199.00,0.0075
3196.00,0.0074
3193.00,0.0073
3190.00,0.0071
3187.00,0.0071
3184.00,0.0070
3181.00,0.0070
3178.00,0.0069
3175.00,0.0069
3172.00,0.0067
3169.00,0.0067
3166.00,0.0066
3163.00,0.0066
3160.00,0.0065
3157.00,0.0064
3154.00,0.0064
3151.00,0.0064
3148.00,0.0063
3145.00,0.0063
3142.00,0.0064
3139.00,0.0062
3136.00,0.0061
3133.00,0.0061
3130.00,0.0061
3127.00,0.0061
3124.00,0.0061
3121.00,0.0062
3118.00,0.0063
3115.00,0.0064
3112.00,0.0066
3109.00,0.0070
3106.00,0.0074
3103.00,0.0076
3100.00,0.0076
3097.00,0.0075
3094.00,0.0076
3091.00,0.0083
3088.00,0.0095
3085.00,0.0109
3082.00,0.0115
3079.00,0.0108
3076.00,0.0100
3073.00,0.0097
3070.00,0.0101
3067.00,0.0111
3064.00,0.0126
3061.00,0.0138
3058.00,0.0136
3055.00,0.0122
3052.00,0.0108
3049.00,0.0099
3046.00,0.0095
3043.00,0.0095
3040.00,0.0101
3037.00,0.0112
3034.00,0.0133
3031.00,0.0166
3028.00,0.0202
3025.00,0.0216
3022.00,0.0191
3019.00,0.0147
3016.00,0.0112
3013.00,0.0095
3010.00,0.0088
3007.00,0.0087
3004.00,0.0090
3001.00,0.0092
2998.00,0.0086
2995.00,0.0077
2992.00,0.0071
2989.00,0.0068
2986.00,0.0067
2983.00,0.0067
2980.00,0.0069
2977.00,0.0070
2974.00,0.0070
2971.00,0.0072
2968.00,0.0073
2965.00,0.0075
2962.00,0.0078
2959.00,0.0082
2956.00,0.0086
2953.00,0.0093
2950.00,0.0101
2947.00,0.0112
2944.00,0.0125
2941.00,0.0140
2938.00,0.0158
2935.00,0.0179
2932.00,0.0202
2929.00,0.0223
2926.00,0.0241
2923.00,0.0253
2920.00,0.0260
2917.00,0.0258
2914.00,0.0243
2911.00,0.0224
2908.00,0.0205
2905.00,0.0188
2902.00,0.0171
2899.00,0.0155
2896.00,0.0142
2893.00,0.0132
2890.00,0.0123
2887.00,0.0117
2884.00,0.0112
2881.00,0.0107
2878.00,0.0102
2875.00,0.0098
2872.00,0.0095
2869.00,0.0093
2866.00,0.0094
2863.00,0.0097
2860.00,0.0104
2857.00,0.0115
2854.00,0.0127
2851.00,0.0139
2848.00,0.0141
2845.00,0.0130
2842.00,0.0113
2839.00,0.0095
2836.00,0.0081
2833.00,0.0073
2830.00,0.0067
2827.00,0.0064
2824.00,0.0062
2821.00,0.0061
2818.00,0.0060
2815.00,0.0059
2812.00,0.0058
2809.00,0.0058
2806.00,0.0058
2803.00,0.0057
2800.00,0.0056
2797.00,0.0055
2794.00,0.0054
2791.00,0.0054
2788.00,0.0053
2785.00,0.0053
2782.00,0.0053
2779.00,0.0053
2776.00,0.0053
2773.00,0.0052
2770.00,0.0051
2767.00,0.0051
2764.00,0.0050
2761.00,0.0050
2758.00,0.0050
2755.00,0.0050
2752.00,0.0050
2749.00,0.0050
2746.00,0.0049
2743.00,0.0049
2740.00,0.0049
2737.00,0.0048
2734.00,0.0048
2731.00,0.0048
2728.00,0.0048
2725.00,0.0048
2722.00,0.0048
2719.00,0.0048
2716.00,0.0048
2713.00,0.0048
2710.00,0.0047
2707.00,0.0047
2704.00,0.0047
2701.00,0.0047
2698.00,0.0047
2695.00,0.0047
2692.00,0.0047
2689.00,0.0047
2686.00,0.0047
2683.00,0.0047
2680.00,0.0047
2677.00,0.0047
2674.00,0.0046
2671.00,0.0045
2668.00,0.0046
2665.00,0.0047
2662.00,0.0048
2659.00,0.0048
2656.00,0.0048
2653.00,0.0048
2650.00,0.0049
2647.00,0.0049
2644.00,0.0048
2641.00,0.0048
2638.00,0.0048
2635.00,0.0049
2632.00,0.0048
2629.00,0.0048
2626.00,0.0047
2623.00,0.0047
2620.00,0.0047
2617.00,0.0046
2614.00,0.0046
2611.00,0.0046
2608.00,0.0047
2605.00,0.0046
2602.00,0.0046
2599.00,0.0045
2596.00,0.0045
2593.00,0.0045
2590.00,0.0044
2587.00,0.0044
2584.00,0.0044
2581.00,0.0044
2578.00,0.0042
2575.00,0.0041
2572.00,0.0043
2569.00,0.0042
2566.00,0.0042
2563.00,0.0042
2560.00,0.0042
2557.00,0.0041
2554.00,0.0040
2551.00,0.0041
2548.00,0.0041
2545.00,0.0041
2542.00,0.0040
2539.00,0.0040
2536.00,0.0041
2533.00,0.0040
2530.00,0.0041
2527.00,0.0041
2524.00,0.0041
2521.00,0.0041
2518.00,0.0041
2515.00,0.0041
2512.00,0.0042
2509.00,0.0039
2506.00,0.0039
2503.00,0.0039
2500.00,0.0039
2497.00,0.0038
2494.00,0.0038
2491.00,0.0039
2488.00,0.0039
2485.00,0.0039
2482.00,0.0038
2479.00,0.0038
2476.00,0.0038
2473.00,0.0037
2470.00,0.0037
2467.00,0.0037
2464.00,0.0038
2461.00,0.0038
2458.00,0.0038
2455.00,0.0038
2452.00,0.0037
2449.00,0.0037
2446.00,0.0037
2443.00,0.0037
2440.00,0.0037
2437.00,0.0037
2434.00,0.0036
2431.00,0.0035
2428.00,0.0035
2425.00,0.0035
2422.00,0.0035
2419.00,0.0035
2416.00,0.0035
2413.00,0.0035
2410.00,0.0035
2407.00,0.0034
2404.00,0.0034
2401.00,0.0034
2398.00,0.0034
2395.00,0.0033
2392.00,0.0033
2389.00,0.0033
2386.00,0.0032
2383.00,0.0033
2380.00,0.0033
2377.00,0.0033
2374.00,0.0032
2371.00,0.0032
2368.00,0.0033
2365.00,0.0033
2362.00,0.0035
2359.00,0.0036
2356.00,0.0034
2353.00,0.0035
2350.00,0.0036
2347.00,0.0036
2344.00,0.0036
2341.00,0.0037
2338.00,0.0038
2335.00,0.0038
2332.00,0.0037
2329.00,0.0039
2326.00,0.0042
2323.00,0.0043
2320.00,0.0042
2317.00,0.0040
2314.00,0.0041
2311.00,0.0040
2308.00,0.0039
2305.00,0.0038
2302.00,0.0038
2299.00,0.0038
2296.00,0.0040
2293.00,0.0042
2290.00,0.0040
2287.00,0.0040
2284.00,0.0039
2281.00,0.0038
2278.00,0.0037
2275.00,0.0037
2272.00,0.0036
2269.00,0.0037
2266.00,0.0036
2263.00,0.0037
2260.00,0.0035
2257.00,0.0034
2254.00,0.0034
2251.00,0.0035
2248.00,0.0034
2245.00,0.0033
2242.00,0.0033
2239.00,0.0034
2236.00,0.0035
2233.00,0.0035
2230.00,0.0033
2227.00,0.0032
2224.00,0.0034
2221.00,0.0034
2218.00,0.0036
2215.00,0.0036
2212.00,0.0032
2209.00,0.0032
2206.00,0.0034
2203.00,0.0032
2200.00,0.0037
2197.00,0.0034
2194.00,0.0034
2191.00,0.0034
2188.00,0.0034
2185.00,0.0035
2182.00,0.0033
2179.00,0.0031
2176.00,0.0027
2173.00,0.0031
2170.00,0.0038
2167.00,0.0037
2164.00,0.0036
2161.00,0.0028
2158.00,0.0008
2155.00,0.0015
2152.00,0.0020
2149.00,0.0021
2146.00,0.0020
2143.00,0.0020
2140.00,0.0018
2137.00,0.0016
2134.00,0.0013
2131.00,0.0018
2128.00,0.0021
2125.00,0.0022
2122.00,0.0023
2119.00,0.0026
2116.00,0.0029
2113.00,0.0028
2110.00,0.0028
2107.00,0.0029
2104.00,0.0029
2101.00,0.0027
2098.00,0.0026
2095.00,0.0024
2092.00,0.0027
2089.00,0.0027
2086.00,0.0028
2083.00,0.0030
2080.00,0.0030
2077.00,0.0032
2074.00,0.0034
2071.00,0.0030
2068.00,0.0028
2065.00,0.0024
2062.00,0.0025
2059.00,0.0026
2056.00,0.0027
2053.00,0.0032
2050.00,0.0031
2047.00,0.0027
2044.00,0.0030
2041.00,0.0033
2038.00,0.0029
2035.00,0.0024
2032.00,0.0021
2029.00,0.0019
2026.00,0.0019
2023.00,0.0019
2020.00,0.0021
2017.00,0.0024
2014.00,0.0016
2011.00,-0.0007
2008.00,0.0012
2005.00,0.0020
2002.00,0.0026
1999.00,0.0023
1996.00,0.0020
1993.00,0.0026
1990.00,0.0028
1987.00,0.0031
1984.00,0.0034
1981.00,0.0044
1978.00,0.0033
1975.00,0.0019
1972.00,0.0020
1969.00,0.0027
1966.00,0.0031
1963.00,0.0033
1960.00,0.0031
1957.00,0.0034
1954.00,0.0036
1951.00,0.0038
1948.00,0.0043
1945.00,0.0046
1942.00,0.0047
1939.00,0.0044
1936.00,0.0039
1933.00,0.0034
1930.00,0.0032
1927.00,0.0030
1924.00,0.0028
1921.00,0.0027
1918.00,0.0029
1915.00,0.0027
1912.00,0.0027
1909.00,0.0027
1906.00,0.0027
1903.00,0.0026
1900.00,0.0027
1897.00,0.0029
1894.00,0.0032
1891.00,0.0035
1888.00,0.0037
1885.00,0.0040
1882.00,0.0040
1879.00,0.0041
1876.00,0.0042
1873.00,0.0044
1870.00,0.0045
1867.00,0.0044
1864.00,0.0041
1861.00,0.0037
1858.00,0.0033
1855.00,0.0032
1852.00,0.0031
1849.00,0.0029
1846.00,0.0030
1843.00,0.0029
1840.00,0.0028
1837.00,0.0027
1834.00,0.0029
1831.00,0.0029
1828.00,0.0031
1825.00,0.0033
1822.00,0.0034
1819.00,0.0034
1816.00,0.0037
1813.00,0.0040
1810.00,0.0043
1807.00,0.0045
1804.00,0.0047
1801.00,0.0050
1798.00,0.0048
1795.00,0.0045
1792.00,0.0042
1789.00,0.0038
1786.00,0.0034
1783.00,0.0034
1780.00,0.0034
1777.00,0.0035
1774.00,0.0034
1771.00,0.0033
1768.00,0.0035
1765.00,0.0032
1762.00,0.0029
1759.00,0.0030
1756.00,0.0035
1753.00,0.0040
1750.00,0.0041
1747.00,0.0039
1744.00,0.0037
1741.00,0.0036
1738.00,0.0035
1735.00,0.0040
1732.00,0.0040
1729.00,0.0037
1726.00,0.0035
1723.00,0.0035
1720.00,0.0037
1717.00,0.0040
1714.00,0.0042
1711.00,0.0042
1708.00,0.0047
1705.00,0.0054
1702.00,0.0065
1699.00,0.0076
1696.00,0.0083
1693.00,0.0086
1690.00,0.0092
1687.00,0.0099
1684.00,0.0107
1681.00,0.0114
1678.00,0.0119
1675.00,0.0127
1672.00,0.0134
1669.00,0.0139
1666.00,0.0144
1663.00,0.0149
1660.00,0.0155
1657.00,0.0157
1654.00,0.0158
1651.00,0.0163
1648.00,0.0168
1645.00,0.0167
1642.00,0.0166
1639.00,0.0166
1636.00,0.0167
1633.00,0.0164
1630.00,0.0161
1627.00,0.0157
1624.00,0.0151
1621.00,0.0142
1618.00,0.0135
1615.00,0.0130
1612.00,0.0132
1609.00,0.0145
1606.00,0.0185
1603.00,0.0239
1600.00,0.0245
1597.00,0.0192
1594.00,0.0147
1591.00,0.0125
1588.00,0.0119
1585.00,0.0136
1582.00,0.0142
1579.00,0.0119
1576.00,0.0106
1573.00,0.0103
1570.00,0.0103
1567.00,0.0106
1564.00,0.0107
1561.00,0.0109
1558.00,0.0124
1555.00,0.0126
1552.00,0.0135
1549.00,0.0143
1546.00,0.0151
1543.00,0.0155
1540.00,0.0159
1537.00,0.0159
1534.00,0.0156
1531.00,0.0153
1528.00,0.0152
1525.00,0.0151
1522.00,0.0152
1519.00,0.0156
1516.00,0.0160
1513.00,0.0158
1510.00,0.0154
1507.00,0.0151
1504.00,0.0154
1501.00,0.0168
1498.00,0.0235
1495.00,0.0441
1492.00,0.0539
1489.00,0.0357
1486.00,0.0219
1483.00,0.0159
1480.00,0.0131
1477.00,0.0122
1474.00,0.0119
1471.00,0.0118
1468.00,0.0116
1465.00,0.0121
1462.00,0.0134
1459.00,0.0166
1456.00,0.0333
1453.00,0.0513
1450.00,0.0507
1447.00,0.0403
1444.00,0.0330
1441.00,0.0270
1438.00,0.0226
1435.00,0.0182
1432.00,0.0154
1429.00,0.0131
1426.00,0.0120
1423.00,0.0115
1420.00,0.0112
1417.00,0.0113
1414.00,0.0109
1411.00,0.0109
1408.00,0.0110
1405.00,0.0110
1402.00,0.0108
1399.00,0.0108
1396.00,0.0108
1393.00,0.0110
1390.00,0.0115
1387.00,0.0124
1384.00,0.0134
1381.00,0.0141
1378.00,0.0149
1375.00,0.0157
1372.00,0.0159
1369.00,0.0157
1366.00,0.0153
1363.00,0.0150
1360.00,0.0146
1357.00,0.0141
1354.00,0.0138
1351.00,0.0137
1348.00,0.0136
1345.00,0.0133
1342.00,0.0128
1339.00,0.0125
1336.00,0.0126
1333.00,0.0131
1330.00,0.0135
1327.00,0.0134
1324.00,0.0130
1321.00,0.0127
1318.00,0.0128
1315.00,0.0131
1312.00,0.0132
1309.00,0.0129
1306.00,0.0124
1303.00,0.0120
1300.00,0.0115
1297.00,0.0111
1294.00,0.0111
1291.00,0.0109
1288.00,0.0106
1285.00,0.0106
1282.00,0.0106
1279.00,0.0105
1276.00,0.0102
1273.00,0.0098
1270.00,0.0097
1267.00,0.0096
1264.00,0.0096
1261.00,0.0096
1258.00,0.0093
1255.00,0.0094
1252.00,0.0095
1249.00,0.0096
1246.00,0.0097
1243.00,0.0097
1240.00,0.0098
1237.00,0.0097
1234.00,0.0097
1231.00,0.0097
1228.00,0.0099
1225.00,0.0098
1222.00,0.0098
1219.00,0.0098
1216.00,0.0098
1213.00,0.0098
1210.00,0.0100
1207.00,0.0103
1204.00,0.0106
1201.00,0.0110
1198.00,0.0113
1195.00,0.0114
1192.00,0.0113
1189.00,0.0114
1186.00,0.0122
1183.00,0.0137
1180.00,0.0139
1177.00,0.0121
1174.00,0.0105
1171.00,0.0098
1168.00,0.0095
1165.00,0.0096
1162.00,0.0100
1159.00,0.0116
1156.00,0.0137
1153.00,0.0137
1150.00,0.0113
1147.00,0.0093
1144.00,0.0084
1141.00,0.0078
1138.00,0.0074
1135.00,0.0072
1132.00,0.0071
1129.00,0.0072
1126.00,0.0073
1123.00,0.0074
1120.00,0.0078
1117.00,0.0084
1114.00,0.0091
1111.00,0.0092
1108.00,0.0091
1105.00,0.0091
1102.00,0.0091
1099.00,0.0093
1096.00,0.0095
1093.00,0.0098
1090.00,0.0101
1087.00,0.0109
1084.00,0.0118
1081.00,0.0127
1078.00,0.0138
1075.00,0.0155
1072.00,0.0173
1069.00,0.0182
1066.00,0.0177
1063.00,0.0162
1060.00,0.0148
1057.00,0.0136
1054.00,0.0129
1051.00,0.0123
1048.00,0.0116
1045.00,0.0112
1042.00,0.0111
1039.00,0.0117
1036.00,0.0144
1033.00,0.0207
1030.00,0.0275
1027.00,0.0289
1024.00,0.0242
1021.00,0.0198
1018.00,0.0170
1015.00,0.0152
1012.00,0.0140
1009.00,0.0136
1006.00,0.0147
1003.00,0.0146
1000.00,0.0126
997.00,0.0110
994.00,0.0105
991.00,0.0105
988.00,0.0108
985.00,0.0116
982.00,0.0123
979.00,0.0124
976.00,0.0118
973.00,0.0112
970.00,0.0117
967.00,0.0127
964.00,0.0131
961.00,0.0124
958.00,0.0110
955.00,0.0100
952.00,0.0097
949.00,0.0099
946.00,0.0103
943.00,0.0107
940.00,0.0104
937.00,0.0097
934.00,0.0088
931.00,0.0082
928.00,0.0080
925.00,0.0081
922.00,0.0086
919.00,0.0094
916.00,0.0110
913.00,0.0138
910.00,0.0175
907.00,0.0200
904.00,0.0191
901.00,0.0154
898.00,0.0115
895.00,0.0093
892.00,0.0081
889.00,0.0074
886.00,0.0071
883.00,0.0069
880.00,0.0067
877.00,0.0065
874.00,0.0063
871.00,0.0060
868.00,0.0059
865.00,0.0057
862.00,0.0057
859.00,0.0059
856.00,0.0061
853.00,0.0067
850.00,0.0075
847.00,0.0092
844.00,0.0108
841.00,0.0112
838.00,0.0103
835.00,0.0086
832.00,0.0072
829.00,0.0066
826.00,0.0065
823.00,0.0065
820.00,0.0062
817.00,0.0063
814.00,0.0067
811.00,0.0068
808.00,0.0070
805.00,0.0071
802.00,0.0073
799.00,0.0077
796.00,0.0085
793.00,0.0096
790.00,0.0108
787.00,0.0124
784.00,0.0146
781.00,0.0172
778.00,0.0213
775.00,0.0271
772.00,0.0347
769.00,0.0437
766.00,0.0529
763.00,0.0623
760.00,0.0721
757.00,0.0800
754.00,0.0827
751.00,0.0818
748.00,0.0808
745.00,0.0742
742.00,0.0596
739.00,0.0451
736.00,0.0336
733.00,0.0236
730.00,0.0170
727.00,0.0141
724.00,0.0129
721.00,0.0126
718.00,0.0133
715.00,0.0153
712.00,0.0208
709.00,0.0350
706.00,0.0642
703.00,0.1108
700.00,0.1705
697.00,0.2319
694.00,0.2526
691.00,0.1901
688.00,0.1231
685.00,0.0868
682.00,0.0674
679.00,0.0554
676.00,0.0477
673.00,0.0427
670.00,0.0392
667.00,0.0354
664.00,0.0322
661.00,0.0291
658.00,0.0261
655.00,0.0236
652.00,0.0217
649.00,0.0203
646.00,0.0194
643.00,0.0187
640.00,0.0186
637.00,0.0190
634.00,0.0201
631.00,0.0210
628.00,0.0217
625.00,0.0223
622.00,0.0231
619.00,0.0230
616.00,0.0214
613.00,0.0203
610.00,0.0198
607.00,0.0192
604.00,0.0191
601.00,0.0191
598.00,0.0194
595.00,0.0201
592.00,0.0208
589.00,0.0211
586.00,0.0219
583.00,0.0231
580.00,0.0251
577.00,0.0278
574.00,0.0310
571.00,0.0346
568.00,0.0373
565.00,0.0403
562.00,0.0440
559.00,0.0477
556.00,0.0509
553.00,0.0550
550.00,0.0595
547.00,0.0659
544.00,0.0746
541.00,0.0831
538.00,0.0878
535.00,0.0843
532.00,0.0731
529.00,0.0604
526.00,0.0502
523.00,0.0422
520.00,0.0365
517.00,0.0332
514.00,0.0308
511.00,0.0284
508.00,0.0259
505.00,0.0217
502.00,0.0164
499.00,0.0204
496.00,0.0196
493.00,0.0187
490.00,0.0178
487.00,0.0172
484.00,0.0165
481.00,0.0163
478.00,0.0160
475.00,0.0152
472.00,0.0152
469.00,0.0155
466.00,0.0144
463.00,0.0139
460.00,0.0142
457.00,0.0148
454.00,0.0131
451.00,0.0138
448.00,0.0136
445.00,0.0124
442.00,0.0123
439.00,0.0121
436.00,0.0122
433.00,0.0117
430.00,0.0115
427.00,0.0124
424.00,0.0114
421.00,0.0119
418.00,0.0122
415.00,0.0111
412.00,0.0120
409.00,0.0120
406.00,0.0100
403.00,0.0126
400.00,0.0103