File: FTIR/Mary/2025_07_07_Polystyrene_Std_scan2.csv
Created as New Dataset,Sample 768 By YargerLab Date Monday, July 07 2025
cm-1,A
4000.00,0.0020
3997.00,0.0021
3994.00,0.0021
3991.00,0.0020
3988.00,0.0021
3985.00,0.0021
3982.00,0.0020
3979.00,0.0020
3976.00,0.0020
3973.00,0.0020
3970.00,0.0020
3967.00,0.0020
3964.00,0.0021
3961.00,0.0020
3958.00,0.0020
3955.00,0.0020
3952.00,0.0020
3949.00,0.0020
3946.00,0.0020
3943.00,0.0020
3940.00,0.0020
3937.00,0.0020
3934.00,0.0020
3931.00,0.0020
3928.00,0.0020
3925.00,0.0020
3922.00,0.0021
3919.00,0.0020
3916.00,0.0020
3913.00,0.0020
3910.00,0.0020
3907.00,0.0021
3904.00,0.0021
3901.00,0.0020
3898.00,0.0020
3895.00,0.0020
3892.00,0.0020
3889.00,0.0021
3886.00,0.0019
3883.00,0.0019
3880.00,0.0019
3877.00,0.0020
3874.00,0.0020
3871.00,0.0020
3868.00,0.0020
3865.00,0.0019
3862.00,0.0020
3859.00,0.0020
3856.00,0.0021
3853.00,0.0021
3850.00,0.0021
3847.00,0.0020
3844.00,0.0020
3841.00,0.0020
3838.00,0.0020
3835.00,0.0020
3832.00,0.0019
3829.00,0.0020
3826.00,0.0021
3823.00,0.0022
3820.00,0.0021
3817.00,0.0020
3814.00,0.0021
3811.00,0.0021
3808.00,0.0021
3805.00,0.0021
3802.00,0.0020
3799.00,0.0021
3796.00,0.0020
3793.00,0.0020
3790.00,0.0020
3787.00,0.0020
3784.00,0.0020
3781.00,0.0020
3778.00,0.0020
3775.00,0.0020
3772.00,0.0021
3769.00,0.0020
3766.00,0.0020
3763.00,0.0020
3760.00,0.0021
3757.00,0.0021
3754.00,0.0021
3751.00,0.0020
3748.00,0.0021
3745.00,0.0020
3742.00,0.0020
3739.00,0.0020
3736.00,0.0020
3733.00,0.0019
3730.00,0.0019
3727.00,0.0019
3724.00,0.0020
3721.00,0.0020
3718.00,0.0019
3715.00,0.0020
3712.00,0.0019
3709.00,0.0018
3706.00,0.0019
3703.00,0.0019
3700.00,0.0019
3697.00,0.0019
3694.00,0.0020
3691.00,0.0020
3688.00,0.0019
3685.00,0.0019
3682.00,0.0019
3679.00,0.0020
3676.00,0.0020
3673.00,0.0020
3670.00,0.0020
3667.00,0.0020
3664.00,0.0020
3661.00,0.0021
3658.00,0.0020
3655.00,0.0020
3652.00,0.0021
3649.00,0.0021
3646.00,0.0022
3643.00,0.0022
3640.00,0.0022
3637.00,0.0021
3634.00,0.0021
3631.00,0.0022
3628.00,0.0022
3625.00,0.0022
3622.00,0.0023
3619.00,0.0023
3616.00,0.0023
3613.00,0.0022
3610.00,0.0023
3607.00,0.0023
3604.00,0.0023
3601.00,0.0023
3598.00,0.0023
3595.00,0.0024
3592.00,0.0025
3589.00,0.0025
3586.00,0.0025
3583.00,0.0025
3580.00,0.0025
3577.00,0.0025
3574.00,0.0026
3571.00,0.0026
3568.00,0.0026
3565.00,0.0026
3562.00,0.0027
3559.00,0.0028
3556.00,0.0028
3553.00,0.0028
3550.00,0.0029
3547.00,0.0030
3544.00,0.0029
3541.00,0.0030
3538.00,0.0031
3535.00,0.0031
3532.00,0.0031
3529.00,0.0032
3526.00,0.0032
3523.00,0.0031
3520.00,0.0032
3517.00,0.0033
3514.00,0.0033
3511.00,0.0034
3508.00,0.0034
3505.00,0.0034
3502.00,0.0034
3499.00,0.0035
3496.00,0.0036
3493.00,0.0037
3490.00,0.0037
3487.00,0.0037
3484.00,0.0037
3481.00,0.0038
3478.00,0.0039
3475.00,0.0039
3472.00,0.0039
3469.00,0.0040
3466.00,0.0040
3463.00,0.0040
3460.00,0.0041
3457.00,0.0041
3454.00,0.0041
3451.00,0.0042
3448.00,0.0043
3445.00,0.0043
3442.00,0.0043
3439.00,0.0044
3436.00,0.0044
3433.00,0.0044
3430.00,0.0044
3427.00,0.0045
3424.00,0.0045
3421.00,0.0045
3418.00,0.0046
3415.00,0.0046
3412.00,0.0047
3409.00,0.0048
3406.00,0.0048
3403.00,0.0048
3400.00,0.0049
3397.00,0.0049
3394.00,0.0050
3391.00,0.0049
3388.00,0.0049
3385.00,0.0049
3382.00,0.0049
3379.00,0.0049
3376.00,0.0050
3373.00,0.0051
3370.00,0.0051
3367.00,0.0052
3364.00,0.0052
3361.00,0.0052
3358.00,0.0052
3355.00,0.0053
3352.00,0.0054
3349.00,0.0054
3346.00,0.0054
3343.00,0.0055
3340.00,0.0055
3337.00,0.0055
3334.00,0.0056
3331.00,0.0056
3328.00,0.0055
3325.00,0.0055
3322.00,0.0054
3319.00,0.0054
3316.00,0.0054
3313.00,0.0053
3310.00,0.0053
3307.00,0.0053
3304.00,0.0053
3301.00,0.0053
3298.00,0.0053
3295.00,0.0054
3292.00,0.0054
3289.00,0.0053
3286.00,0.0053
3283.00,0.0053
3280.00,0.0052
3277.00,0.0052
3274.00,0.0052
3271.00,0.0052
3268.00,0.0052
3265.00,0.0051
3262.00,0.0050
3259.00,0.0050
3256.00,0.0050
3253.00,0.0049
3250.00,0.0048
3247.00,0.0047
3244.00,0.0047
3241.00,0.0046
3238.00,0.0045
3235.00,0.0045
3232.00,0.0044
3229.00,0.0044
3226.00,0.0044
3223.00,0.0043
3220.00,0.0042
3217.00,0.0042
3214.00,0.0042
3211.00,0.0042
3208.00,0.0042
3205.00,0.0042
3202.00,0.0041
3199.00,0.0041
3196.00,0.0040
3193.00,0.0039
3190.00,0.0039
3187.00,0.0039
3184.00,0.0039
3181.00,0.0038
3178.00,0.0037
3175.00,0.0037
3172.00,0.0037
3169.00,0.0038
3166.00,0.0038
3163.00,0.0038
3160.00,0.0038
3157.00,0.0036
3154.00,0.0036
3151.00,0.0035
3148.00,0.0035
3145.00,0.0035
3142.00,0.0034
3139.00,0.0034
3136.00,0.0034
3133.00,0.0034
3130.00,0.0034
3127.00,0.0034
3124.00,0.0034
3121.00,0.0035
3118.00,0.0037
3115.00,0.0039
3112.00,0.0043
3109.00,0.0050
3106.00,0.0056
3103.00,0.0059
3100.00,0.0058
3097.00,0.0056
3094.00,0.0059
3091.00,0.0069
3088.00,0.0089
3085.00,0.0112
3082.00,0.0122
3079.00,0.0111
3076.00,0.0097
3073.00,0.0093
3070.00,0.0099
3067.00,0.0116
3064.00,0.0141
3061.00,0.0159
3058.00,0.0157
3055.00,0.0135
3052.00,0.0111
3049.00,0.0096
3046.00,0.0089
3043.00,0.0091
3040.00,0.0102
3037.00,0.0123
3034.00,0.0161
3031.00,0.0217
3028.00,0.0276
3025.00,0.0299
3022.00,0.0257
3019.00,0.0185
3016.00,0.0128
3013.00,0.0097
3010.00,0.0083
3007.00,0.0083
3004.00,0.0090
3001.00,0.0092
2998.00,0.0082
2995.00,0.0067
2992.00,0.0057
2989.00,0.0053
2986.00,0.0051
2983.00,0.0051
2980.00,0.0052
2977.00,0.0054
2974.00,0.0056
2971.00,0.0058
2968.00,0.0062
2965.00,0.0067
2962.00,0.0073
2959.00,0.0081
2956.00,0.0090
2953.00,0.0101
2950.00,0.0116
2947.00,0.0134
2944.00,0.0156
2941.00,0.0182
2938.00,0.0213
2935.00,0.0248
2932.00,0.0286
2929.00,0.0320
2926.00,0.0345
2923.00,0.0358
2920.00,0.0358
2917.00,0.0347
2914.00,0.0327
2911.00,0.0304
2908.00,0.0278
2905.00,0.0252
2902.00,0.0225
2899.00,0.0199
2896.00,0.0177
2893.00,0.0161
2890.00,0.0148
2887.00,0.0138
2884.00,0.0129
2881.00,0.0121
2878.00,0.0113
2875.00,0.0107
2872.00,0.0103
2869.00,0.0101
2866.00,0.0104
2863.00,0.0111
2860.00,0.0123
2857.00,0.0138
2854.00,0.0153
2851.00,0.0163
2848.00,0.0163
2845.00,0.0150
2842.00,0.0127
2839.00,0.0100
2836.00,0.0078
2833.00,0.0064
2830.00,0.0056
2827.00,0.0052
2824.00,0.0049
2821.00,0.0047
2818.00,0.0045
2815.00,0.0044
2812.00,0.0044
2809.00,0.0043
2806.00,0.0042
2803.00,0.0041
2800.00,0.0040
2797.00,0.0039
2794.00,0.0038
2791.00,0.0038
2788.00,0.0037
2785.00,0.0037
2782.00,0.0037
2779.00,0.0037
2776.00,0.0036
2773.00,0.0035
2770.00,0.0035
2767.00,0.0034
2764.00,0.0034
2761.00,0.0034
2758.00,0.0033
2755.00,0.0033
2752.00,0.0033
2749.00,0.0033
2746.00,0.0033
2743.00,0.0033
2740.00,0.0033
2737.00,0.0033
2734.00,0.0033
2731.00,0.0033
2728.00,0.0033
2725.00,0.0033
2722.00,0.0033
2719.00,0.0033
2716.00,0.0033
2713.00,0.0032
2710.00,0.0032
2707.00,0.0032
2704.00,0.0032
2701.00,0.0032
2698.00,0.0032
2695.00,0.0032
2692.00,0.0032
2689.00,0.0032
2686.00,0.0032
2683.00,0.0032
2680.00,0.0032
2677.00,0.0032
2674.00,0.0032
2671.00,0.0032
2668.00,0.0032
2665.00,0.0033
2662.00,0.0035
2659.00,0.0036
2656.00,0.0036
2653.00,0.0037
2650.00,0.0037
2647.00,0.0037
2644.00,0.0037
2641.00,0.0037
2638.00,0.0037
2635.00,0.0037
2632.00,0.0037
2629.00,0.0037
2626.00,0.0036
2623.00,0.0034
2620.00,0.0034
2617.00,0.0033
2614.00,0.0033
2611.00,0.0034
2608.00,0.0035
2605.00,0.0034
2602.00,0.0034
2599.00,0.0033
2596.00,0.0032
2593.00,0.0031
2590.00,0.0031
2587.00,0.0031
2584.00,0.0031
2581.00,0.0031
2578.00,0.0031
2575.00,0.0029
2572.00,0.0029
2569.00,0.0028
2566.00,0.0029
2563.00,0.0028
2560.00,0.0028
2557.00,0.0027
2554.00,0.0028
2551.00,0.0028
2548.00,0.0027
2545.00,0.0027
2542.00,0.0027
2539.00,0.0027
2536.00,0.0027
2533.00,0.0026
2530.00,0.0026
2527.00,0.0026
2524.00,0.0026
2521.00,0.0025
2518.00,0.0026
2515.00,0.0026
2512.00,0.0026
2509.00,0.0027
2506.00,0.0026
2503.00,0.0025
2500.00,0.0025
2497.00,0.0025
2494.00,0.0025
2491.00,0.0025
2488.00,0.0025
2485.00,0.0024
2482.00,0.0024
2479.00,0.0024
2476.00,0.0024
2473.00,0.0023
2470.00,0.0024
2467.00,0.0024
2464.00,0.0024
2461.00,0.0024
2458.00,0.0025
2455.00,0.0024
2452.00,0.0024
2449.00,0.0024
2446.00,0.0024
2443.00,0.0023
2440.00,0.0022
2437.00,0.0022
2434.00,0.0021
2431.00,0.0021
2428.00,0.0021
2425.00,0.0021
2422.00,0.0020
2419.00,0.0020
2416.00,0.0021
2413.00,0.0021
2410.00,0.0020
2407.00,0.0018
2404.00,0.0018
2401.00,0.0019
2398.00,0.0019
2395.00,0.0019
2392.00,0.0019
2389.00,0.0019
2386.00,0.0019
2383.00,0.0018
2380.00,0.0019
2377.00,0.0019
2374.00,0.0020
2371.00,0.0019
2368.00,0.0018
2365.00,0.0020
2362.00,0.0022
2359.00,0.0023
2356.00,0.0023
2353.00,0.0023
2350.00,0.0024
2347.00,0.0026
2344.00,0.0028
2341.00,0.0028
2338.00,0.0029
2335.00,0.0029
2332.00,0.0028
2329.00,0.0029
2326.00,0.0040
2323.00,0.0039
2320.00,0.0035
2317.00,0.0033
2314.00,0.0033
2311.00,0.0033
2308.00,0.0031
2305.00,0.0030
2302.00,0.0029
2299.00,0.0030
2296.00,0.0031
2293.00,0.0033
2290.00,0.0034
2287.00,0.0034
2284.00,0.0033
2281.00,0.0031
2278.00,0.0029
2275.00,0.0028
2272.00,0.0028
2269.00,0.0027
2266.00,0.0025
2263.00,0.0024
2260.00,0.0026
2257.00,0.0025
2254.00,0.0023
2251.00,0.0022
2248.00,0.0023
2245.00,0.0025
2242.00,0.0024
2239.00,0.0023
2236.00,0.0023
2233.00,0.0021
2230.00,0.0022
2227.00,0.0021
2224.00,0.0020
2221.00,0.0019
2218.00,0.0020
2215.00,0.0019
2212.00,0.0022
2209.00,0.0023
2206.00,0.0022
2203.00,0.0022
2200.00,0.0023
2197.00,0.0021
2194.00,0.0022
2191.00,0.0023
2188.00,0.0024
2185.00,0.0020
2182.00,0.0016
2179.00,0.0019
2176.00,0.0015
2173.00,0.0017
2170.00,0.0026
2167.00,0.0030
2164.00,0.0032
2161.00,0.0016
2158.00,-0.0017
2155.00,-0.0009
2152.00,-0.0002
2149.00,0.0002
2146.00,-0.0002
2143.00,0.0000
2140.00,0.0002
2137.00,-0.0003
2134.00,-0.0007
2131.00,-0.0001
2128.00,0.0004
2125.00,0.0007
2122.00,0.0010
2119.00,0.0014
2116.00,0.0015
2113.00,0.0015
2110.00,0.0016
2107.00,0.0016
2104.00,0.0016
2101.00,0.0016
2098.00,0.0015
2095.00,0.0012
2092.00,0.0013
2089.00,0.0016
2086.00,0.0017
2083.00,0.0017
2080.00,0.0018
2077.00,0.0018
2074.00,0.0018
2071.00,0.0017
2068.00,0.0014
2065.00,0.0015
2062.00,0.0014
2059.00,0.0013
2056.00,0.0011
2053.00,0.0021
2050.00,0.0024
2047.00,0.0015
2044.00,0.0013
2041.00,0.0016
2038.00,0.0019
2035.00,0.0016
2032.00,0.0012
2029.00,0.0008
2026.00,0.0008
2023.00,0.0010
2020.00,0.0006
2017.00,0.0006
2014.00,0.0009
2011.00,0.0014
2008.00,0.0008
2005.00,0.0004
2002.00,0.0006
1999.00,0.0007
1996.00,0.0011
1993.00,0.0016
1990.00,0.0018
1987.00,0.0019
1984.00,0.0025
1981.00,0.0034
1978.00,0.0019
1975.00,0.0010
1972.00,0.0009
1969.00,0.0014
1966.00,0.0018
1963.00,0.0022
1960.00,0.0022
1957.00,0.0025
1954.00,0.0032
1951.00,0.0037
1948.00,0.0042
1945.00,0.0045
1942.00,0.0046
1939.00,0.0042
1936.00,0.0036
1933.00,0.0029
1930.00,0.0024
1927.00,0.0020
1924.00,0.0017
1921.00,0.0017
1918.00,0.0016
1915.00,0.0016
1912.00,0.0016
1909.00,0.0015
1906.00,0.0016
1903.00,0.0018
1900.00,0.0020
1897.00,0.0022
1894.00,0.0024
1891.00,0.0028
1888.00,0.0032
1885.00,0.0035
1882.00,0.0037
1879.00,0.0039
1876.00,0.0041
1873.00,0.0043
1870.00,0.0044
1867.00,0.0043
1864.00,0.0040
1861.00,0.0034
1858.00,0.0029
1855.00,0.0025
1852.00,0.0022
1849.00,0.0020
1846.00,0.0019
1843.00,0.0018
1840.00,0.0018
1837.00,0.0018
1834.00,0.0020
1831.00,0.0021
1828.00,0.0024
1825.00,0.0027
1822.00,0.0030
1819.00,0.0032
1816.00,0.0034
1813.00,0.0040
1810.00,0.0046
1807.00,0.0050
1804.00,0.0052
1801.00,0.0052
1798.00,0.0050
1795.00,0.0045
1792.00,0.0039
1789.00,0.0035
1786.00,0.0033
1783.00,0.0032
1780.00,0.0033
1777.00,0.0034
1774.00,0.0035
1771.00,0.0036
1768.00,0.0036
1765.00,0.0039
1762.00,0.0041
1759.00,0.0045
1756.00,0.0051
1753.00,0.0056
1750.00,0.0062
1747.00,0.0067
1744.00,0.0070
1741.00,0.0071
1738.00,0.0072
1735.00,0.0071
1732.00,0.0068
1729.00,0.0064
1726.00,0.0062
1723.00,0.0059
1720.00,0.0057
1717.00,0.0054
1714.00,0.0053
1711.00,0.0052
1708.00,0.0051
1705.00,0.0050
1702.00,0.0050
1699.00,0.0048
1696.00,0.0048
1693.00,0.0048
1690.00,0.0048
1687.00,0.0050
1684.00,0.0053
1681.00,0.0053
1678.00,0.0054
1675.00,0.0055
1672.00,0.0057
1669.00,0.0057
1666.00,0.0058
1663.00,0.0057
1660.00,0.0056
1657.00,0.0055
1654.00,0.0054
1651.00,0.0054
1648.00,0.0051
1645.00,0.0049
1642.00,0.0048
1639.00,0.0048
1636.00,0.0049
1633.00,0.0049
1630.00,0.0050
1627.00,0.0050
1624.00,0.0051
1621.00,0.0052
1618.00,0.0056
1615.00,0.0063
1612.00,0.0075
1609.00,0.0108
1606.00,0.0183
1603.00,0.0277
1600.00,0.0292
1597.00,0.0212
1594.00,0.0141
1591.00,0.0106
1588.00,0.0099
1585.00,0.0124
1582.00,0.0128
1579.00,0.0091
1576.00,0.0065
1573.00,0.0054
1570.00,0.0048
1567.00,0.0045
1564.00,0.0044
1561.00,0.0044
1558.00,0.0045
1555.00,0.0047
1552.00,0.0051
1549.00,0.0054
1546.00,0.0056
1543.00,0.0058
1540.00,0.0058
1537.00,0.0056
1534.00,0.0051
1531.00,0.0047
1528.00,0.0044
1525.00,0.0042
1522.00,0.0041
1519.00,0.0042
1516.00,0.0043
1513.00,0.0046
1510.00,0.0049
1507.00,0.0056
1504.00,0.0075
1501.00,0.0108
1498.00,0.0229
1495.00,0.0572
1492.00,0.0722
1489.00,0.0430
1486.00,0.0230
1483.00,0.0148
1480.00,0.0107
1477.00,0.0091
1474.00,0.0085
1471.00,0.0085
1468.00,0.0090
1465.00,0.0099
1462.00,0.0120
1459.00,0.0170
1456.00,0.0442
1453.00,0.0715
1450.00,0.0697
1447.00,0.0529
1444.00,0.0417
1441.00,0.0326
1438.00,0.0260
1435.00,0.0189
1432.00,0.0148
1429.00,0.0119
1426.00,0.0104
1423.00,0.0094
1420.00,0.0089
1417.00,0.0084
1414.00,0.0082
1411.00,0.0081
1408.00,0.0080
1405.00,0.0079
1402.00,0.0079
1399.00,0.0080
1396.00,0.0084
1393.00,0.0093
1390.00,0.0105
1387.00,0.0120
1384.00,0.0137
1381.00,0.0150
1378.00,0.0164
1375.00,0.0177
1372.00,0.0183
1369.00,0.0182
1366.00,0.0178
1363.00,0.0173
1360.00,0.0167
1357.00,0.0161
1354.00,0.0157
1351.00,0.0156
1348.00,0.0154
1345.00,0.0151
1342.00,0.0144
1339.00,0.0139
1336.00,0.0142
1333.00,0.0151
1330.00,0.0159
1327.00,0.0160
1324.00,0.0154
1321.00,0.0151
1318.00,0.0152
1315.00,0.0157
1312.00,0.0159
1309.00,0.0154
1306.00,0.0146
1303.00,0.0138
1300.00,0.0130
1297.00,0.0125
1294.00,0.0124
1291.00,0.0121
1288.00,0.0118
1285.00,0.0117
1282.00,0.0117
1279.00,0.0115
1276.00,0.0109
1273.00,0.0103
1270.00,0.0097
1267.00,0.0094
1264.00,0.0092
1261.00,0.0090
1258.00,0.0090
1255.00,0.0090
1252.00,0.0092
1249.00,0.0094
1246.00,0.0095
1243.00,0.0094
1240.00,0.0094
1237.00,0.0093
1234.00,0.0091
1231.00,0.0091
1228.00,0.0091
1225.00,0.0091
1222.00,0.0091
1219.00,0.0091
1216.00,0.0092
1213.00,0.0096
1210.00,0.0102
1207.00,0.0109
1204.00,0.0117
1201.00,0.0126
1198.00,0.0132
1195.00,0.0134
1192.00,0.0134
1189.00,0.0138
1186.00,0.0151
1183.00,0.0172
1180.00,0.0175
1177.00,0.0149
1174.00,0.0127
1171.00,0.0120
1168.00,0.0120
1165.00,0.0125
1162.00,0.0135
1159.00,0.0158
1156.00,0.0188
1153.00,0.0186
1150.00,0.0150
1147.00,0.0122
1144.00,0.0108
1141.00,0.0099
1138.00,0.0095
1135.00,0.0094
1132.00,0.0095
1129.00,0.0097
1126.00,0.0100
1123.00,0.0105
1120.00,0.0113
1117.00,0.0125
1114.00,0.0135
1111.00,0.0139
1108.00,0.0138
1105.00,0.0137
1102.00,0.0138
1099.00,0.0139
1096.00,0.0142
1093.00,0.0144
1090.00,0.0148
1087.00,0.0155
1084.00,0.0167
1081.00,0.0183
1078.00,0.0200
1075.00,0.0223
1072.00,0.0251
1069.00,0.0267
1066.00,0.0261
1063.00,0.0239
1060.00,0.0220
1057.00,0.0208
1054.00,0.0198
1051.00,0.0187
1048.00,0.0178
1045.00,0.0173
1042.00,0.0171
1039.00,0.0181
1036.00,0.0225
1033.00,0.0320
1030.00,0.0418
1027.00,0.0434
1024.00,0.0363
1021.00,0.0299
1018.00,0.0259
1015.00,0.0231
1012.00,0.0213
1009.00,0.0206
1006.00,0.0212
1003.00,0.0219
1000.00,0.0200
997.00,0.0177
994.00,0.0170
991.00,0.0169
988.00,0.0175
985.00,0.0187
982.00,0.0196
979.00,0.0194
976.00,0.0182
973.00,0.0172
970.00,0.0176
967.00,0.0188
964.00,0.0193
961.00,0.0180
958.00,0.0157
955.00,0.0143
952.00,0.0139
949.00,0.0141
946.00,0.0147
943.00,0.0148
940.00,0.0143
937.00,0.0131
934.00,0.0119
931.00,0.0109
928.00,0.0107
925.00,0.0110
922.00,0.0116
919.00,0.0127
916.00,0.0150
913.00,0.0192
910.00,0.0243
907.00,0.0275
904.00,0.0261
901.00,0.0210
898.00,0.0158
895.00,0.0125
892.00,0.0110
889.00,0.0101
886.00,0.0094
883.00,0.0088
880.00,0.0085
877.00,0.0083
874.00,0.0080
871.00,0.0078
868.00,0.0076
865.00,0.0074
862.00,0.0074
859.00,0.0075
856.00,0.0078
853.00,0.0085
850.00,0.0100
847.00,0.0120
844.00,0.0140
841.00,0.0145
838.00,0.0132
835.00,0.0107
832.00,0.0086
829.00,0.0077
826.00,0.0073
823.00,0.0072
820.00,0.0072
817.00,0.0072
814.00,0.0074
811.00,0.0075
808.00,0.0078
805.00,0.0081
802.00,0.0083
799.00,0.0089
796.00,0.0101
793.00,0.0117
790.00,0.0136
787.00,0.0160
784.00,0.0190
781.00,0.0230
778.00,0.0288
775.00,0.0372
772.00,0.0482
769.00,0.0613
766.00,0.0747
763.00,0.0877
760.00,0.1014
757.00,0.1121
754.00,0.1150
751.00,0.1137
748.00,0.1124
745.00,0.1027
742.00,0.0812
739.00,0.0600
736.00,0.0434
733.00,0.0295
730.00,0.0206
727.00,0.0166
724.00,0.0153
721.00,0.0152
718.00,0.0160
715.00,0.0189
712.00,0.0270
709.00,0.0477
706.00,0.0892
703.00,0.1551
700.00,0.2428
697.00,0.3378
694.00,0.3603
691.00,0.2544
688.00,0.1583
685.00,0.1096
682.00,0.0840
679.00,0.0685
676.00,0.0590
673.00,0.0529
670.00,0.0485
667.00,0.0435
664.00,0.0391
661.00,0.0348
658.00,0.0309
655.00,0.0275
652.00,0.0250
649.00,0.0232
646.00,0.0218
643.00,0.0209
640.00,0.0209
637.00,0.0220
634.00,0.0235
631.00,0.0248
628.00,0.0258
625.00,0.0266
622.00,0.0279
619.00,0.0277
616.00,0.0256
613.00,0.0243
610.00,0.0225
607.00,0.0227
604.00,0.0228
601.00,0.0232
598.00,0.0238
595.00,0.0246
592.00,0.0254
589.00,0.0262
586.00,0.0274
583.00,0.0289
580.00,0.0314
577.00,0.0349
574.00,0.0393
571.00,0.0440
568.00,0.0485
565.00,0.0534
562.00,0.0583
559.00,0.0628
556.00,0.0673
553.00,0.0725
550.00,0.0790
547.00,0.0871
544.00,0.0980
541.00,0.1088
538.00,0.1139
535.00,0.1075
532.00,0.0924
529.00,0.0761
526.00,0.0620
523.00,0.0520
520.00,0.0456
517.00,0.0414
514.00,0.0379
511.00,0.0346
508.00,0.0318
505.00,0.0291
502.00,0.0269
499.00,0.0249
496.00,0.0239
493.00,0.0235
490.00,0.0218
487.00,0.0207
484.00,0.0203
481.00,0.0195
478.00,0.0191
475.00,0.0187
472.00,0.0181
469.00,0.0182
466.00,0.0178
463.00,0.0175
460.00,0.0167
457.00,0.0166
454.00,0.0155
451.00,0.0158
448.00,0.0166
445.00,0.0163
442.00,0.0161
439.00,0.0154
436.00,0.0153
433.00,0.0156
430.00,0.0151
427.00,0.0145
424.00,0.0131
421.00,0.0134
418.00,0.0136
415.00,0.0130
412.00,0.0132
409.00,0.0157
406.00,0.0147
403.00,0.0130
400.00,0.0123