File: FTIR/Mary/2025_12_02_Polystyrene_Standard_Scan2.csv
Created as New Dataset,Sample 385 By YargerLab Date Tuesday, December 02 2025
cm-1,A
4000.00,0.0008
3997.00,0.0007
3994.00,0.0007
3991.00,0.0007
3988.00,0.0008
3985.00,0.0008
3982.00,0.0008
3979.00,0.0008
3976.00,0.0007
3973.00,0.0007
3970.00,0.0007
3967.00,0.0007
3964.00,0.0008
3961.00,0.0008
3958.00,0.0008
3955.00,0.0007
3952.00,0.0007
3949.00,0.0007
3946.00,0.0008
3943.00,0.0007
3940.00,0.0007
3937.00,0.0007
3934.00,0.0007
3931.00,0.0007
3928.00,0.0007
3925.00,0.0007
3922.00,0.0007
3919.00,0.0007
3916.00,0.0007
3913.00,0.0007
3910.00,0.0007
3907.00,0.0006
3904.00,0.0006
3901.00,0.0005
3898.00,0.0006
3895.00,0.0006
3892.00,0.0006
3889.00,0.0007
3886.00,0.0006
3883.00,0.0006
3880.00,0.0007
3877.00,0.0007
3874.00,0.0008
3871.00,0.0006
3868.00,0.0006
3865.00,0.0007
3862.00,0.0007
3859.00,0.0007
3856.00,0.0006
3853.00,0.0006
3850.00,0.0006
3847.00,0.0006
3844.00,0.0007
3841.00,0.0007
3838.00,0.0006
3835.00,0.0006
3832.00,0.0006
3829.00,0.0007
3826.00,0.0007
3823.00,0.0006
3820.00,0.0006
3817.00,0.0006
3814.00,0.0007
3811.00,0.0007
3808.00,0.0007
3805.00,0.0006
3802.00,0.0007
3799.00,0.0007
3796.00,0.0007
3793.00,0.0007
3790.00,0.0008
3787.00,0.0008
3784.00,0.0007
3781.00,0.0007
3778.00,0.0008
3775.00,0.0008
3772.00,0.0007
3769.00,0.0007
3766.00,0.0007
3763.00,0.0007
3760.00,0.0007
3757.00,0.0007
3754.00,0.0007
3751.00,0.0007
3748.00,0.0006
3745.00,0.0006
3742.00,0.0006
3739.00,0.0006
3736.00,0.0006
3733.00,0.0005
3730.00,0.0006
3727.00,0.0006
3724.00,0.0006
3721.00,0.0006
3718.00,0.0007
3715.00,0.0006
3712.00,0.0006
3709.00,0.0005
3706.00,0.0005
3703.00,0.0006
3700.00,0.0007
3697.00,0.0007
3694.00,0.0006
3691.00,0.0006
3688.00,0.0006
3685.00,0.0006
3682.00,0.0006
3679.00,0.0006
3676.00,0.0007
3673.00,0.0006
3670.00,0.0006
3667.00,0.0006
3664.00,0.0007
3661.00,0.0006
3658.00,0.0006
3655.00,0.0007
3652.00,0.0007
3649.00,0.0007
3646.00,0.0006
3643.00,0.0006
3640.00,0.0007
3637.00,0.0007
3634.00,0.0007
3631.00,0.0007
3628.00,0.0007
3625.00,0.0007
3622.00,0.0007
3619.00,0.0007
3616.00,0.0007
3613.00,0.0007
3610.00,0.0006
3607.00,0.0007
3604.00,0.0008
3601.00,0.0008
3598.00,0.0008
3595.00,0.0009
3592.00,0.0009
3589.00,0.0009
3586.00,0.0009
3583.00,0.0009
3580.00,0.0009
3577.00,0.0009
3574.00,0.0010
3571.00,0.0010
3568.00,0.0010
3565.00,0.0010
3562.00,0.0011
3559.00,0.0011
3556.00,0.0012
3553.00,0.0012
3550.00,0.0012
3547.00,0.0012
3544.00,0.0012
3541.00,0.0013
3538.00,0.0014
3535.00,0.0013
3532.00,0.0013
3529.00,0.0014
3526.00,0.0014
3523.00,0.0014
3520.00,0.0014
3517.00,0.0014
3514.00,0.0015
3511.00,0.0015
3508.00,0.0016
3505.00,0.0016
3502.00,0.0016
3499.00,0.0016
3496.00,0.0017
3493.00,0.0017
3490.00,0.0017
3487.00,0.0017
3484.00,0.0017
3481.00,0.0018
3478.00,0.0018
3475.00,0.0018
3472.00,0.0018
3469.00,0.0018
3466.00,0.0019
3463.00,0.0019
3460.00,0.0019
3457.00,0.0019
3454.00,0.0019
3451.00,0.0020
3448.00,0.0020
3445.00,0.0020
3442.00,0.0020
3439.00,0.0020
3436.00,0.0021
3433.00,0.0020
3430.00,0.0020
3427.00,0.0021
3424.00,0.0021
3421.00,0.0021
3418.00,0.0021
3415.00,0.0021
3412.00,0.0021
3409.00,0.0021
3406.00,0.0020
3403.00,0.0021
3400.00,0.0021
3397.00,0.0021
3394.00,0.0021
3391.00,0.0021
3388.00,0.0022
3385.00,0.0022
3382.00,0.0022
3379.00,0.0022
3376.00,0.0022
3373.00,0.0022
3370.00,0.0022
3367.00,0.0022
3364.00,0.0022
3361.00,0.0022
3358.00,0.0023
3355.00,0.0023
3352.00,0.0023
3349.00,0.0023
3346.00,0.0023
3343.00,0.0024
3340.00,0.0024
3337.00,0.0023
3334.00,0.0023
3331.00,0.0024
3328.00,0.0024
3325.00,0.0024
3322.00,0.0023
3319.00,0.0023
3316.00,0.0024
3313.00,0.0024
3310.00,0.0024
3307.00,0.0024
3304.00,0.0024
3301.00,0.0024
3298.00,0.0023
3295.00,0.0023
3292.00,0.0023
3289.00,0.0023
3286.00,0.0023
3283.00,0.0023
3280.00,0.0023
3277.00,0.0023
3274.00,0.0023
3271.00,0.0023
3268.00,0.0023
3265.00,0.0023
3262.00,0.0023
3259.00,0.0022
3256.00,0.0021
3253.00,0.0021
3250.00,0.0022
3247.00,0.0022
3244.00,0.0022
3241.00,0.0022
3238.00,0.0021
3235.00,0.0021
3232.00,0.0021
3229.00,0.0021
3226.00,0.0021
3223.00,0.0021
3220.00,0.0021
3217.00,0.0021
3214.00,0.0021
3211.00,0.0021
3208.00,0.0021
3205.00,0.0021
3202.00,0.0021
3199.00,0.0021
3196.00,0.0020
3193.00,0.0020
3190.00,0.0020
3187.00,0.0020
3184.00,0.0020
3181.00,0.0020
3178.00,0.0019
3175.00,0.0019
3172.00,0.0019
3169.00,0.0019
3166.00,0.0020
3163.00,0.0020
3160.00,0.0020
3157.00,0.0020
3154.00,0.0019
3151.00,0.0019
3148.00,0.0019
3145.00,0.0018
3142.00,0.0019
3139.00,0.0019
3136.00,0.0019
3133.00,0.0019
3130.00,0.0019
3127.00,0.0019
3124.00,0.0020
3121.00,0.0020
3118.00,0.0020
3115.00,0.0021
3112.00,0.0023
3109.00,0.0026
3106.00,0.0029
3103.00,0.0031
3100.00,0.0030
3097.00,0.0029
3094.00,0.0030
3091.00,0.0035
3088.00,0.0043
3085.00,0.0054
3082.00,0.0059
3079.00,0.0055
3076.00,0.0049
3073.00,0.0047
3070.00,0.0049
3067.00,0.0056
3064.00,0.0067
3061.00,0.0076
3058.00,0.0077
3055.00,0.0067
3052.00,0.0056
3049.00,0.0048
3046.00,0.0045
3043.00,0.0046
3040.00,0.0050
3037.00,0.0059
3034.00,0.0074
3031.00,0.0099
3028.00,0.0127
3025.00,0.0140
3022.00,0.0125
3019.00,0.0094
3016.00,0.0068
3013.00,0.0050
3010.00,0.0043
3007.00,0.0042
3004.00,0.0045
3001.00,0.0047
2998.00,0.0043
2995.00,0.0036
2992.00,0.0031
2989.00,0.0030
2986.00,0.0029
2983.00,0.0029
2980.00,0.0031
2977.00,0.0032
2974.00,0.0034
2971.00,0.0036
2968.00,0.0037
2965.00,0.0040
2962.00,0.0044
2959.00,0.0048
2956.00,0.0053
2953.00,0.0058
2950.00,0.0064
2947.00,0.0072
2944.00,0.0082
2941.00,0.0095
2938.00,0.0110
2935.00,0.0127
2932.00,0.0145
2929.00,0.0162
2926.00,0.0176
2923.00,0.0183
2920.00,0.0183
2917.00,0.0179
2914.00,0.0167
2911.00,0.0154
2908.00,0.0140
2905.00,0.0126
2902.00,0.0113
2899.00,0.0100
2896.00,0.0089
2893.00,0.0081
2890.00,0.0075
2887.00,0.0069
2884.00,0.0065
2881.00,0.0061
2878.00,0.0057
2875.00,0.0054
2872.00,0.0053
2869.00,0.0052
2866.00,0.0054
2863.00,0.0058
2860.00,0.0064
2857.00,0.0073
2854.00,0.0082
2851.00,0.0088
2848.00,0.0087
2845.00,0.0078
2842.00,0.0064
2839.00,0.0050
2836.00,0.0039
2833.00,0.0032
2830.00,0.0027
2827.00,0.0024
2824.00,0.0023
2821.00,0.0022
2818.00,0.0021
2815.00,0.0021
2812.00,0.0020
2809.00,0.0020
2806.00,0.0020
2803.00,0.0019
2800.00,0.0018
2797.00,0.0018
2794.00,0.0017
2791.00,0.0017
2788.00,0.0017
2785.00,0.0016
2782.00,0.0017
2779.00,0.0017
2776.00,0.0016
2773.00,0.0016
2770.00,0.0015
2767.00,0.0015
2764.00,0.0015
2761.00,0.0015
2758.00,0.0015
2755.00,0.0015
2752.00,0.0015
2749.00,0.0015
2746.00,0.0014
2743.00,0.0015
2740.00,0.0015
2737.00,0.0014
2734.00,0.0014
2731.00,0.0014
2728.00,0.0015
2725.00,0.0015
2722.00,0.0014
2719.00,0.0014
2716.00,0.0014
2713.00,0.0014
2710.00,0.0014
2707.00,0.0014
2704.00,0.0014
2701.00,0.0014
2698.00,0.0014
2695.00,0.0014
2692.00,0.0014
2689.00,0.0014
2686.00,0.0014
2683.00,0.0014
2680.00,0.0014
2677.00,0.0014
2674.00,0.0014
2671.00,0.0014
2668.00,0.0014
2665.00,0.0015
2662.00,0.0016
2659.00,0.0017
2656.00,0.0017
2653.00,0.0017
2650.00,0.0017
2647.00,0.0017
2644.00,0.0017
2641.00,0.0017
2638.00,0.0017
2635.00,0.0017
2632.00,0.0018
2629.00,0.0017
2626.00,0.0016
2623.00,0.0016
2620.00,0.0016
2617.00,0.0015
2614.00,0.0015
2611.00,0.0015
2608.00,0.0015
2605.00,0.0016
2602.00,0.0015
2599.00,0.0015
2596.00,0.0014
2593.00,0.0013
2590.00,0.0013
2587.00,0.0013
2584.00,0.0012
2581.00,0.0013
2578.00,0.0013
2575.00,0.0012
2572.00,0.0011
2569.00,0.0012
2566.00,0.0011
2563.00,0.0011
2560.00,0.0011
2557.00,0.0011
2554.00,0.0011
2551.00,0.0011
2548.00,0.0010
2545.00,0.0010
2542.00,0.0009
2539.00,0.0010
2536.00,0.0010
2533.00,0.0010
2530.00,0.0010
2527.00,0.0010
2524.00,0.0009
2521.00,0.0010
2518.00,0.0010
2515.00,0.0009
2512.00,0.0009
2509.00,0.0009
2506.00,0.0010
2503.00,0.0009
2500.00,0.0009
2497.00,0.0009
2494.00,0.0008
2491.00,0.0008
2488.00,0.0009
2485.00,0.0009
2482.00,0.0008
2479.00,0.0008
2476.00,0.0008
2473.00,0.0007
2470.00,0.0008
2467.00,0.0008
2464.00,0.0008
2461.00,0.0008
2458.00,0.0009
2455.00,0.0008
2452.00,0.0008
2449.00,0.0008
2446.00,0.0008
2443.00,0.0008
2440.00,0.0008
2437.00,0.0006
2434.00,0.0006
2431.00,0.0007
2428.00,0.0006
2425.00,0.0005
2422.00,0.0005
2419.00,0.0005
2416.00,0.0006
2413.00,0.0006
2410.00,0.0005
2407.00,0.0004
2404.00,0.0004
2401.00,0.0005
2398.00,0.0005
2395.00,0.0005
2392.00,0.0005
2389.00,0.0005
2386.00,0.0004
2383.00,0.0004
2380.00,0.0004
2377.00,0.0005
2374.00,0.0004
2371.00,0.0003
2368.00,0.0005
2365.00,0.0004
2362.00,0.0006
2359.00,0.0006
2356.00,0.0005
2353.00,0.0005
2350.00,0.0007
2347.00,0.0008
2344.00,0.0009
2341.00,0.0009
2338.00,0.0009
2335.00,0.0009
2332.00,0.0009
2329.00,0.0011
2326.00,0.0017
2323.00,0.0016
2320.00,0.0013
2317.00,0.0012
2314.00,0.0012
2311.00,0.0012
2308.00,0.0011
2305.00,0.0011
2302.00,0.0010
2299.00,0.0010
2296.00,0.0012
2293.00,0.0014
2290.00,0.0015
2287.00,0.0016
2284.00,0.0013
2281.00,0.0012
2278.00,0.0010
2275.00,0.0009
2272.00,0.0009
2269.00,0.0009
2266.00,0.0008
2263.00,0.0007
2260.00,0.0009
2257.00,0.0008
2254.00,0.0007
2251.00,0.0008
2248.00,0.0008
2245.00,0.0007
2242.00,0.0007
2239.00,0.0008
2236.00,0.0007
2233.00,0.0006
2230.00,0.0007
2227.00,0.0006
2224.00,0.0005
2221.00,0.0005
2218.00,0.0003
2215.00,0.0005
2212.00,0.0008
2209.00,0.0007
2206.00,0.0007
2203.00,0.0007
2200.00,0.0006
2197.00,0.0006
2194.00,0.0007
2191.00,0.0009
2188.00,0.0008
2185.00,0.0006
2182.00,0.0000
2179.00,0.0000
2176.00,0.0002
2173.00,0.0005
2170.00,0.0007
2167.00,0.0015
2164.00,0.0014
2161.00,0.0003
2158.00,-0.0019
2155.00,-0.0016
2152.00,-0.0013
2149.00,-0.0010
2146.00,-0.0011
2143.00,-0.0008
2140.00,-0.0005
2137.00,-0.0009
2134.00,-0.0013
2131.00,-0.0011
2128.00,-0.0008
2125.00,-0.0006
2122.00,-0.0003
2119.00,0.0001
2116.00,0.0004
2113.00,0.0003
2110.00,0.0002
2107.00,0.0002
2104.00,0.0002
2101.00,0.0003
2098.00,0.0002
2095.00,-0.0003
2092.00,-0.0001
2089.00,0.0002
2086.00,0.0003
2083.00,0.0004
2080.00,0.0006
2077.00,0.0006
2074.00,0.0006
2071.00,0.0005
2068.00,0.0004
2065.00,0.0004
2062.00,0.0002
2059.00,0.0001
2056.00,0.0002
2053.00,0.0010
2050.00,0.0011
2047.00,0.0006
2044.00,0.0006
2041.00,0.0007
2038.00,0.0006
2035.00,0.0002
2032.00,-0.0001
2029.00,-0.0000
2026.00,-0.0002
2023.00,-0.0003
2020.00,-0.0008
2017.00,-0.0007
2014.00,-0.0010
2011.00,-0.0021
2008.00,-0.0008
2005.00,-0.0009
2002.00,-0.0005
1999.00,-0.0003
1996.00,-0.0000
1993.00,0.0003
1990.00,0.0006
1987.00,0.0008
1984.00,0.0010
1981.00,0.0015
1978.00,0.0007
1975.00,0.0002
1972.00,0.0001
1969.00,0.0001
1966.00,0.0004
1963.00,0.0001
1960.00,0.0002
1957.00,0.0006
1954.00,0.0009
1951.00,0.0012
1948.00,0.0011
1945.00,0.0015
1942.00,0.0016
1939.00,0.0015
1936.00,0.0012
1933.00,0.0009
1930.00,0.0005
1927.00,0.0004
1924.00,0.0003
1921.00,0.0003
1918.00,0.0003
1915.00,0.0003
1912.00,0.0001
1909.00,0.0002
1906.00,0.0001
1903.00,0.0001
1900.00,0.0004
1897.00,0.0004
1894.00,0.0006
1891.00,0.0009
1888.00,0.0010
1885.00,0.0011
1882.00,0.0013
1879.00,0.0012
1876.00,0.0014
1873.00,0.0015
1870.00,0.0016
1867.00,0.0016
1864.00,0.0014
1861.00,0.0012
1858.00,0.0010
1855.00,0.0008
1852.00,0.0006
1849.00,0.0005
1846.00,0.0005
1843.00,0.0005
1840.00,0.0005
1837.00,0.0005
1834.00,0.0005
1831.00,0.0006
1828.00,0.0008
1825.00,0.0010
1822.00,0.0010
1819.00,0.0010
1816.00,0.0012
1813.00,0.0015
1810.00,0.0018
1807.00,0.0020
1804.00,0.0022
1801.00,0.0022
1798.00,0.0022
1795.00,0.0019
1792.00,0.0017
1789.00,0.0016
1786.00,0.0015
1783.00,0.0015
1780.00,0.0017
1777.00,0.0017
1774.00,0.0017
1771.00,0.0019
1768.00,0.0020
1765.00,0.0021
1762.00,0.0024
1759.00,0.0027
1756.00,0.0032
1753.00,0.0038
1750.00,0.0046
1747.00,0.0051
1744.00,0.0055
1741.00,0.0057
1738.00,0.0057
1735.00,0.0057
1732.00,0.0052
1729.00,0.0050
1726.00,0.0048
1723.00,0.0046
1720.00,0.0045
1717.00,0.0043
1714.00,0.0041
1711.00,0.0040
1708.00,0.0040
1705.00,0.0040
1702.00,0.0040
1699.00,0.0040
1696.00,0.0041
1693.00,0.0044
1690.00,0.0047
1687.00,0.0051
1684.00,0.0054
1681.00,0.0055
1678.00,0.0058
1675.00,0.0059
1672.00,0.0060
1669.00,0.0061
1666.00,0.0062
1663.00,0.0063
1660.00,0.0061
1657.00,0.0062
1654.00,0.0061
1651.00,0.0055
1648.00,0.0055
1645.00,0.0052
1642.00,0.0051
1639.00,0.0049
1636.00,0.0047
1633.00,0.0045
1630.00,0.0045
1627.00,0.0045
1624.00,0.0044
1621.00,0.0044
1618.00,0.0044
1615.00,0.0045
1612.00,0.0050
1609.00,0.0064
1606.00,0.0095
1603.00,0.0138
1600.00,0.0149
1597.00,0.0114
1594.00,0.0080
1591.00,0.0063
1588.00,0.0057
1585.00,0.0068
1582.00,0.0071
1579.00,0.0054
1576.00,0.0041
1573.00,0.0036
1570.00,0.0033
1567.00,0.0032
1564.00,0.0033
1561.00,0.0032
1558.00,0.0032
1555.00,0.0034
1552.00,0.0037
1549.00,0.0039
1546.00,0.0041
1543.00,0.0041
1540.00,0.0040
1537.00,0.0038
1534.00,0.0037
1531.00,0.0035
1528.00,0.0034
1525.00,0.0032
1522.00,0.0032
1519.00,0.0031
1516.00,0.0032
1513.00,0.0032
1510.00,0.0034
1507.00,0.0036
1504.00,0.0042
1501.00,0.0058
1498.00,0.0110
1495.00,0.0255
1492.00,0.0341
1489.00,0.0218
1486.00,0.0118
1483.00,0.0077
1480.00,0.0058
1477.00,0.0051
1474.00,0.0050
1471.00,0.0051
1468.00,0.0056
1465.00,0.0061
1462.00,0.0069
1459.00,0.0092
1456.00,0.0195
1453.00,0.0327
1450.00,0.0332
1447.00,0.0257
1444.00,0.0206
1441.00,0.0165
1438.00,0.0134
1435.00,0.0100
1432.00,0.0081
1429.00,0.0067
1426.00,0.0061
1423.00,0.0057
1420.00,0.0056
1417.00,0.0054
1414.00,0.0053
1411.00,0.0052
1408.00,0.0052
1405.00,0.0053
1402.00,0.0053
1399.00,0.0054
1396.00,0.0055
1393.00,0.0058
1390.00,0.0064
1387.00,0.0071
1384.00,0.0078
1381.00,0.0085
1378.00,0.0091
1375.00,0.0095
1372.00,0.0097
1369.00,0.0096
1366.00,0.0095
1363.00,0.0094
1360.00,0.0090
1357.00,0.0087
1354.00,0.0085
1351.00,0.0084
1348.00,0.0082
1345.00,0.0080
1342.00,0.0077
1339.00,0.0074
1336.00,0.0075
1333.00,0.0079
1330.00,0.0084
1327.00,0.0084
1324.00,0.0082
1321.00,0.0080
1318.00,0.0080
1315.00,0.0081
1312.00,0.0082
1309.00,0.0080
1306.00,0.0077
1303.00,0.0073
1300.00,0.0071
1297.00,0.0070
1294.00,0.0071
1291.00,0.0071
1288.00,0.0069
1285.00,0.0067
1282.00,0.0066
1279.00,0.0065
1276.00,0.0063
1273.00,0.0061
1270.00,0.0059
1267.00,0.0058
1264.00,0.0056
1261.00,0.0056
1258.00,0.0055
1255.00,0.0055
1252.00,0.0056
1249.00,0.0057
1246.00,0.0058
1243.00,0.0058
1240.00,0.0058
1237.00,0.0058
1234.00,0.0058
1231.00,0.0059
1228.00,0.0059
1225.00,0.0060
1222.00,0.0059
1219.00,0.0059
1216.00,0.0060
1213.00,0.0061
1210.00,0.0062
1207.00,0.0065
1204.00,0.0069
1201.00,0.0073
1198.00,0.0077
1195.00,0.0078
1192.00,0.0079
1189.00,0.0081
1186.00,0.0087
1183.00,0.0099
1180.00,0.0101
1177.00,0.0088
1174.00,0.0077
1171.00,0.0072
1168.00,0.0071
1165.00,0.0071
1162.00,0.0074
1159.00,0.0084
1156.00,0.0099
1153.00,0.0099
1150.00,0.0083
1147.00,0.0069
1144.00,0.0062
1141.00,0.0057
1138.00,0.0055
1135.00,0.0053
1132.00,0.0052
1129.00,0.0053
1126.00,0.0054
1123.00,0.0056
1120.00,0.0059
1117.00,0.0064
1114.00,0.0067
1111.00,0.0069
1108.00,0.0068
1105.00,0.0067
1102.00,0.0069
1099.00,0.0071
1096.00,0.0073
1093.00,0.0075
1090.00,0.0078
1087.00,0.0082
1084.00,0.0086
1081.00,0.0093
1078.00,0.0101
1075.00,0.0112
1072.00,0.0124
1069.00,0.0131
1066.00,0.0126
1063.00,0.0114
1060.00,0.0103
1057.00,0.0095
1054.00,0.0089
1051.00,0.0084
1048.00,0.0079
1045.00,0.0077
1042.00,0.0076
1039.00,0.0080
1036.00,0.0100
1033.00,0.0143
1030.00,0.0190
1027.00,0.0199
1024.00,0.0166
1021.00,0.0136
1018.00,0.0116
1015.00,0.0103
1012.00,0.0093
1009.00,0.0090
1006.00,0.0092
1003.00,0.0095
1000.00,0.0085
997.00,0.0073
994.00,0.0071
991.00,0.0072
988.00,0.0074
985.00,0.0079
982.00,0.0084
979.00,0.0085
976.00,0.0080
973.00,0.0077
970.00,0.0080
967.00,0.0088
964.00,0.0090
961.00,0.0084
958.00,0.0074
955.00,0.0068
952.00,0.0066
949.00,0.0067
946.00,0.0071
943.00,0.0074
940.00,0.0071
937.00,0.0065
934.00,0.0059
931.00,0.0056
928.00,0.0055
925.00,0.0055
922.00,0.0058
919.00,0.0063
916.00,0.0074
913.00,0.0094
910.00,0.0117
907.00,0.0134
904.00,0.0128
901.00,0.0103
898.00,0.0077
895.00,0.0062
892.00,0.0054
889.00,0.0049
886.00,0.0046
883.00,0.0044
880.00,0.0043
877.00,0.0041
874.00,0.0041
871.00,0.0040
868.00,0.0038
865.00,0.0039
862.00,0.0039
859.00,0.0039
856.00,0.0042
853.00,0.0045
850.00,0.0051
847.00,0.0060
844.00,0.0070
841.00,0.0072
838.00,0.0065
835.00,0.0054
832.00,0.0044
829.00,0.0041
826.00,0.0039
823.00,0.0037
820.00,0.0037
817.00,0.0037
814.00,0.0038
811.00,0.0039
808.00,0.0040
805.00,0.0040
802.00,0.0043
799.00,0.0046
796.00,0.0050
793.00,0.0056
790.00,0.0066
787.00,0.0079
784.00,0.0093
781.00,0.0112
778.00,0.0140
775.00,0.0179
772.00,0.0229
769.00,0.0291
766.00,0.0353
763.00,0.0412
760.00,0.0473
757.00,0.0521
754.00,0.0534
751.00,0.0530
748.00,0.0524
745.00,0.0483
742.00,0.0387
739.00,0.0289
736.00,0.0210
733.00,0.0143
730.00,0.0100
727.00,0.0081
724.00,0.0073
721.00,0.0071
718.00,0.0075
715.00,0.0089
712.00,0.0126
709.00,0.0222
706.00,0.0415
703.00,0.0701
700.00,0.1048
697.00,0.1380
694.00,0.1477
691.00,0.1134
688.00,0.0744
685.00,0.0525
682.00,0.0403
679.00,0.0328
676.00,0.0280
673.00,0.0250
670.00,0.0231
667.00,0.0205
664.00,0.0183
661.00,0.0163
658.00,0.0144
655.00,0.0128
652.00,0.0117
649.00,0.0108
646.00,0.0098
643.00,0.0095
640.00,0.0096
637.00,0.0100
634.00,0.0105
631.00,0.0112
628.00,0.0116
625.00,0.0118
622.00,0.0127
619.00,0.0125
616.00,0.0116
613.00,0.0109
610.00,0.0102
607.00,0.0101
604.00,0.0101
601.00,0.0102
598.00,0.0104
595.00,0.0109
592.00,0.0115
589.00,0.0119
586.00,0.0124
583.00,0.0130
580.00,0.0143
577.00,0.0161
574.00,0.0181
571.00,0.0203
568.00,0.0224
565.00,0.0246
562.00,0.0267
559.00,0.0287
556.00,0.0310
553.00,0.0336
550.00,0.0369
547.00,0.0408
544.00,0.0456
541.00,0.0509
538.00,0.0534
535.00,0.0509
532.00,0.0442
529.00,0.0364
526.00,0.0299
523.00,0.0249
520.00,0.0218
517.00,0.0197
514.00,0.0184
511.00,0.0168
508.00,0.0154
505.00,0.0139
502.00,0.0130
499.00,0.0125
496.00,0.0120
493.00,0.0114
490.00,0.0108
487.00,0.0107
484.00,0.0107
481.00,0.0103
478.00,0.0098
475.00,0.0097
472.00,0.0092
469.00,0.0096
466.00,0.0095
463.00,0.0084
460.00,0.0084
457.00,0.0083
454.00,0.0089
451.00,0.0091
448.00,0.0087
445.00,0.0084
442.00,0.0084
439.00,0.0078
436.00,0.0071
433.00,0.0073
430.00,0.0073
427.00,0.0067
424.00,0.0066
421.00,0.0059
418.00,0.0063
415.00,0.0078
412.00,0.0079
409.00,0.0080
406.00,0.0072
403.00,0.0063
400.00,0.0062