File: FTIR/db-LASE IR data/AgNPr-LASE unlasered/Silk AgNPr film unlasered 8.26.22.dpt
3997.65	0.00125
3993.54	0.00099
3989.42	0.00144
3985.3	0.00269
3981.18	0.00240
3977.06	0.00231
3972.94	0.00308
3968.82	0.00343
3964.7	0.00201
3960.58	0.00172
3956.46	0.00197
3952.34	0.00085
3948.22	0.00064
3944.11	0.00040
3939.99	0.00183
3935.87	0.00112
3931.75	0.00115
3927.63	0.00171
3923.51	0.00140
3919.39	0.00184
3915.27	0.00134
3911.15	0.00218
3907.03	0.00282
3902.91	0.00264
3898.79	0.00181
3894.68	0.00180
3890.56	0.00280
3886.44	0.00081
3882.32	0.00084
3878.2	0.00240
3874.08	0.00308
3869.96	0.00185
3865.84	0.00196
3861.72	0.00325
3857.6	0.00216
3853.48	0.00379
3849.36	0.00258
3845.25	0.00230
3841.13	0.00265
3837.01	0.00147
3832.89	0.00071
3828.77	0.00133
3824.65	0.00109
3820.53	0.00202
3816.41	0.00173
3812.29	0.00026
3808.17	0.00116
3804.05	0.00187
3799.93	0.00108
3795.82	0.00097
3791.7	0.00197
3787.58	0.00270
3783.46	0.00286
3779.34	0.00230
3775.22	0.00217
3771.1	0.00241
3766.98	0.00284
3762.86	0.00185
3758.74	0.00192
3754.62	0.00361
3750.5	0.00336
3746.39	0.00345
3742.27	0.00446
3738.15	0.00617
3734.03	0.00584
3729.91	0.00267
3725.79	0.00226
3721.67	0.00290
3717.55	0.00175
3713.43	0.00159
3709.31	0.00287
3705.19	0.00204
3701.07	0.00195
3696.96	0.00171
3692.84	0.00140
3688.72	0.00138
3684.6	0.00286
3680.48	0.00345
3676.36	0.00341
3672.24	0.00370
3668.12	0.00420
3664	0.00470
3659.88	0.00543
3655.76	0.00724
3651.64	0.00785
3647.53	0.00843
3643.41	0.00820
3639.29	0.00830
3635.17	0.01009
3631.05	0.01161
3626.93	0.01341
3622.81	0.01403
3618.69	0.01565
3614.57	0.01555
3610.45	0.01628
3606.33	0.01733
3602.21	0.01877
3598.1	0.02022
3593.98	0.02032
3589.86	0.02113
3585.74	0.02324
3581.62	0.02314
3577.5	0.02427
3573.38	0.02586
3569.26	0.02798
3565.14	0.02927
3561.02	0.03048
3556.9	0.03171
3552.78	0.03233
3548.67	0.03427
3544.55	0.03475
3540.43	0.03579
3536.31	0.03811
3532.19	0.03935
3528.07	0.03954
3523.95	0.04087
3519.83	0.04198
3515.71	0.04281
3511.59	0.04390
3507.47	0.04502
3503.35	0.04634
3499.24	0.04746
3495.12	0.04740
3491	0.04881
3486.88	0.05069
3482.76	0.04996
3478.64	0.05044
3474.52	0.05242
3470.4	0.05271
3466.28	0.05225
3462.16	0.05349
3458.04	0.05412
3453.92	0.05577
3449.81	0.05569
3445.69	0.05536
3441.57	0.05684
3437.45	0.05797
3433.33	0.05742
3429.21	0.05757
3425.09	0.05855
3420.97	0.06015
3416.85	0.06135
3412.73	0.06230
3408.61	0.06301
3404.49	0.06381
3400.38	0.06531
3396.26	0.06608
3392.14	0.06719
3388.02	0.06877
3383.9	0.07025
3379.78	0.07144
3375.66	0.07285
3371.54	0.07275
3367.42	0.07439
3363.3	0.07632
3359.18	0.07812
3355.06	0.07912
3350.95	0.07970
3346.83	0.08146
3342.71	0.08399
3338.59	0.08590
3334.47	0.08700
3330.35	0.08911
3326.23	0.09080
3322.11	0.09236
3317.99	0.09382
3313.87	0.09512
3309.75	0.09701
3305.63	0.09970
3301.52	0.10131
3297.4	0.10211
3293.28	0.10330
3289.16	0.10403
3285.04	0.10506
3280.92	0.10487
3276.8	0.10564
3272.68	0.10575
3268.56	0.10523
3264.44	0.10427
3260.32	0.10329
3256.2	0.10155
3252.09	0.10131
3247.97	0.10017
3243.85	0.09868
3239.73	0.09701
3235.61	0.09605
3231.49	0.09454
3227.37	0.09233
3223.25	0.09120
3219.13	0.08992
3215.01	0.08767
3210.89	0.08607
3206.77	0.08503
3202.65	0.08299
3198.54	0.08066
3194.42	0.07869
3190.3	0.07612
3186.18	0.07341
3182.06	0.07150
3177.94	0.06905
3173.82	0.06632
3169.7	0.06405
3165.58	0.06172
3161.46	0.05907
3157.34	0.05751
3153.22	0.05492
3149.11	0.05449
3144.99	0.05262
3140.87	0.05042
3136.75	0.04925
3132.63	0.04846
3128.51	0.04782
3124.39	0.04623
3120.27	0.04664
3116.15	0.04627
3112.03	0.04611
3107.91	0.04623
3103.79	0.04664
3099.68	0.04707
3095.56	0.04796
3091.44	0.04917
3087.32	0.05045
3083.2	0.05116
3079.08	0.05162
3074.96	0.05138
3070.84	0.05184
3066.72	0.05172
3062.6	0.05154
3058.48	0.05082
3054.36	0.04958
3050.25	0.04874
3046.13	0.04553
3042.01	0.04402
3037.89	0.04237
3033.77	0.04083
3029.65	0.03914
3025.53	0.03809
3021.41	0.03632
3017.29	0.03482
3013.17	0.03349
3009.05	0.03264
3004.93	0.03204
3000.82	0.03185
2996.7	0.03210
2992.58	0.03311
2988.46	0.03431
2984.34	0.03472
2980.22	0.03571
2976.1	0.03526
2971.98	0.03462
2967.86	0.03463
2963.74	0.03461
2959.62	0.03480
2955.5	0.03480
2951.39	0.03555
2947.27	0.03656
2943.15	0.03878
2939.03	0.04011
2934.91	0.04064
2930.79	0.04115
2926.67	0.04069
2922.55	0.03940
2918.43	0.03813
2914.31	0.03491
2910.19	0.03117
2906.07	0.02905
2901.96	0.02719
2897.84	0.02657
2893.72	0.02556
2889.6	0.02429
2885.48	0.02408
2881.36	0.02435
2877.24	0.02438
2873.12	0.02341
2869	0.02278
2864.88	0.02184
2860.76	0.02132
2856.64	0.02185
2852.53	0.02252
2848.41	0.02188
2844.29	0.01974
2840.17	0.01826
2836.05	0.01803
2831.93	0.01777
2827.81	0.01759
2823.69	0.01705
2819.57	0.01704
2815.45	0.01623
2811.33	0.01611
2807.21	0.01605
2803.1	0.01557
2798.98	0.01501
2794.86	0.01486
2790.74	0.01467
2786.62	0.01371
2782.5	0.01275
2778.38	0.01293
2774.26	0.01220
2770.14	0.01225
2766.02	0.01170
2761.9	0.01134
2757.78	0.01105
2753.67	0.01051
2749.55	0.01044
2745.43	0.01043
2741.31	0.00966
2737.19	0.00945
2733.07	0.00917
2728.95	0.00933
2724.83	0.00958
2720.71	0.00880
2716.59	0.00833
2712.47	0.00778
2708.35	0.00815
2704.24	0.00836
2700.12	0.00798
2696	0.00803
2691.88	0.00774
2687.76	0.00752
2683.64	0.00783
2679.52	0.00782
2675.4	0.00778
2671.28	0.00751
2667.16	0.00743
2663.04	0.00751
2658.92	0.00805
2654.81	0.00808
2650.69	0.00775
2646.57	0.00754
2642.45	0.00714
2638.33	0.00739
2634.21	0.00707
2630.09	0.00696
2625.97	0.00745
2621.85	0.00640
2617.73	0.00686
2613.61	0.00696
2609.49	0.00704
2605.38	0.00632
2601.26	0.00572
2597.14	0.00587
2593.02	0.00676
2588.9	0.00601
2584.78	0.00517
2580.66	0.00527
2576.54	0.00546
2572.42	0.00587
2568.3	0.00484
2564.18	0.00457
2560.06	0.00508
2555.95	0.00464
2551.83	0.00454
2547.71	0.00418
2543.59	0.00472
2539.47	0.00445
2535.35	0.00471
2531.23	0.00473
2527.11	0.00415
2522.99	0.00416
2518.87	0.00396
2514.75	0.00469
2510.63	0.00449
2506.52	0.00371
2502.4	0.00331
2498.28	0.00356
2494.16	0.00373
2490.04	0.00384
2485.92	0.00330
2481.8	0.00313
2477.68	0.00363
2473.56	0.00299
2469.44	0.00298
2465.32	0.00341
2461.2	0.00415
2457.09	0.00384
2452.97	0.00349
2448.85	0.00330
2444.73	0.00369
2440.61	0.00398
2436.49	0.00408
2432.37	0.00374
2428.25	0.00366
2424.13	0.00339
2420.01	0.00330
2415.89	0.00316
2411.77	0.00281
2407.66	0.00308
2403.54	0.00278
2399.42	0.00313
2395.3	0.00271
2391.18	0.00346
2387.06	0.00347
2382.94	0.00297
2378.82	0.00240
2374.7	0.00215
2370.58	0.00171
2366.46	0.00045
2362.34	0.00064
2358.23	0.00077
2354.11	0.00113
2349.99	0.00289
2345.87	0.00277
2341.75	0.00111
2337.63	0.00116
2333.51	0.00138
2329.39	0.00181
2325.27	0.00374
2321.15	0.00376
2317.03	0.00347
2312.91	0.00331
2308.8	0.00350
2304.68	0.00426
2300.56	0.00434
2296.44	0.00416
2292.32	0.00410
2288.2	0.00403
2284.08	0.00477
2279.96	0.00396
2275.84	0.00352
2271.72	0.00296
2267.6	0.00444
2263.48	0.00411
2259.36	0.00329
2255.25	0.00239
2251.13	0.00375
2247.01	0.00440
2242.89	0.00415
2238.77	0.00432
2234.65	0.00394
2230.53	0.00418
2226.41	0.00355
2222.29	0.00329
2218.17	0.00411
2214.05	0.00423
2209.93	0.00245
2205.82	0.00381
2201.7	0.00345
2197.58	0.00299
2193.46	0.00205
2189.34	0.00458
2185.22	0.00504
2181.1	0.00294
2176.98	0.00147
2172.86	0.00257
2168.74	0.00294
2164.62	0.00460
2160.5	0.00594
2156.39	0.00384
2152.27	0.00130
2148.15	0.00014
2144.03	0.00199
2139.91	0.00239
2135.79	0.00118
2131.67	0.00226
2127.55	0.00275
2123.43	0.00249
2119.31	0.00364
2115.19	0.00375
2111.07	0.00355
2106.96	0.00366
2102.84	0.00406
2098.72	0.00441
2094.6	0.00389
2090.48	0.00384
2086.36	0.00366
2082.24	0.00332
2078.12	0.00345
2074	0.00260
2069.88	0.00293
2065.76	0.00369
2061.64	0.00371
2057.53	0.00358
2053.41	0.00300
2049.29	0.00442
2045.17	0.00369
2041.05	0.00297
2036.93	0.00308
2032.81	0.00322
2028.69	0.00210
2024.57	0.00068
2020.45	0.00243
2016.33	0.00248
2012.21	0.00352
2008.1	0.00306
2003.98	0.00161
1999.86	0.00166
1995.74	0.00429
1991.62	0.00297
1987.5	0.00287
1983.38	0.00383
1979.26	0.00537
1975.14	0.00243
1971.02	0.00097
1966.9	0.00084
1962.78	0.00019
1958.67	0.00079
1954.55	0.00084
1950.43	0.00232
1946.31	0.00259
1942.19	0.00172
1938.07	0.00213
1933.95	0.00305
1929.83	0.00216
1925.71	0.00175
1921.59	0.00173
1917.47	0.00215
1913.35	0.00220
1909.24	0.00269
1905.12	0.00270
1901	0.00261
1896.88	0.00285
1892.76	0.00302
1888.64	0.00315
1884.52	0.00317
1880.4	0.00267
1876.28	0.00224
1872.16	0.00196
1868.04	0.00237
1863.92	0.00264
1859.81	0.00289
1855.69	0.00258
1851.57	0.00240
1847.45	0.00218
1843.33	0.00279
1839.21	0.00324
1835.09	0.00290
1830.97	0.00284
1826.85	0.00266
1822.73	0.00331
1818.61	0.00320
1814.49	0.00324
1810.38	0.00337
1806.26	0.00386
1802.14	0.00384
1798.02	0.00386
1793.9	0.00402
1789.78	0.00422
1785.66	0.00417
1781.54	0.00441
1777.42	0.00440
1773.3	0.00492
1769.18	0.00500
1765.06	0.00507
1760.95	0.00532
1756.83	0.00525
1752.71	0.00552
1748.59	0.00631
1744.47	0.00647
1740.35	0.00700
1736.23	0.00760
1732.11	0.00854
1727.99	0.00908
1723.87	0.00992
1719.75	0.01105
1715.63	0.01389
1711.52	0.01777
1707.4	0.02298
1703.28	0.02990
1699.16	0.03923
1695.04	0.04979
1690.92	0.05830
1686.8	0.06764
1682.68	0.07952
1678.56	0.08821
1674.44	0.09868
1670.32	0.10932
1666.2	0.11980
1662.09	0.12976
1657.97	0.13876
1653.85	0.14753
1649.73	0.15595
1645.61	0.16061
1641.49	0.16380
1637.37	0.16493
1633.25	0.16176
1629.13	0.15678
1625.01	0.14688
1620.89	0.13402
1616.77	0.12103
1612.66	0.10765
1608.54	0.09405
1604.42	0.08156
1600.3	0.07347
1596.18	0.06876
1592.06	0.06495
1587.94	0.06331
1583.82	0.06392
1579.7	0.06710
1575.58	0.07330
1571.46	0.07965
1567.34	0.08811
1563.23	0.09632
1559.11	0.10647
1554.99	0.11786
1550.87	0.12608
1546.75	0.13446
1542.63	0.14172
1538.51	0.14825
1534.39	0.15158
1530.27	0.15394
1526.15	0.15532
1522.03	0.15646
1517.91	0.15935
1513.8	0.16204
1509.68	0.15900
1505.56	0.14654
1501.44	0.13681
1497.32	0.12378
1493.2	0.11059
1489.08	0.09761
1484.96	0.08551
1480.84	0.07754
1476.72	0.07232
1472.6	0.06954
1468.48	0.06866
1464.37	0.06996
1460.25	0.07267
1456.13	0.07676
1452.01	0.07868
1447.89	0.07723
1443.77	0.07303
1439.65	0.06805
1435.53	0.06307
1431.41	0.06033
1427.29	0.06004
1423.17	0.06268
1419.05	0.06668
1414.94	0.07078
1410.82	0.07282
1406.7	0.07249
1402.58	0.07010
1398.46	0.06785
1394.34	0.06719
1390.22	0.06851
1386.1	0.07017
1381.98	0.07095
1377.86	0.07085
1373.74	0.06876
1369.62	0.06496
1365.5	0.06022
1361.39	0.05561
1357.27	0.05275
1353.15	0.05183
1349.03	0.05272
1344.91	0.05520
1340.79	0.05850
1336.67	0.06086
1332.55	0.06118
1328.43	0.05922
1324.31	0.05627
1320.19	0.05397
1316.07	0.05314
1311.96	0.05335
1307.84	0.05448
1303.72	0.05587
1299.6	0.05718
1295.48	0.05852
1291.36	0.05986
1287.24	0.06088
1283.12	0.06183
1279	0.06350
1274.88	0.06603
1270.76	0.06922
1266.64	0.07264
1262.53	0.07582
1258.41	0.07944
1254.29	0.08345
1250.17	0.08761
1246.05	0.09205
1241.93	0.09607
1237.81	0.09892
1233.69	0.09982
1229.57	0.09827
1225.45	0.09410
1221.33	0.08745
1217.21	0.07901
1213.1	0.07075
1208.98	0.06396
1204.86	0.05798
1200.74	0.05301
1196.62	0.04922
1192.5	0.04680
1188.38	0.04560
1184.26	0.04587
1180.14	0.04747
1176.02	0.05012
1171.9	0.05251
1167.78	0.05320
1163.67	0.05274
1159.55	0.05127
1155.43	0.04944
1151.31	0.04712
1147.19	0.04475
1143.07	0.04285
1138.95	0.04161
1134.83	0.04093
1130.71	0.04058
1126.59	0.04046
1122.47	0.04077
1118.35	0.04093
1114.24	0.04099
1110.12	0.04147
1106	0.04184
1101.88	0.04196
1097.76	0.04115
1093.64	0.04076
1089.52	0.04179
1085.4	0.04425
1081.28	0.04765
1077.16	0.05061
1073.04	0.05253
1068.92	0.05370
1064.81	0.05425
1060.69	0.05492
1056.57	0.05576
1052.45	0.05532
1048.33	0.05364
1044.21	0.05077
1040.09	0.04801
1035.97	0.04616
1031.85	0.04518
1027.73	0.04393
1023.61	0.04375
1019.49	0.04590
1015.38	0.04879
1011.26	0.04771
1007.14	0.04308
1003.02	0.03787
998.899	0.03355
994.78	0.03057
990.66	0.02818
986.541	0.02644
982.422	0.02563
978.303	0.02525
974.184	0.02489
970.065	0.02478
965.945	0.02546
961.826	0.02607
957.707	0.02698
953.588	0.02811
949.469	0.02879
945.35	0.02924
941.23	0.02906
937.111	0.02813
932.992	0.02702
928.873	0.02617
924.754	0.02516
920.635	0.02429
916.515	0.02350
912.396	0.02304
908.277	0.02249
904.158	0.02191
900.039	0.02164
895.92	0.02127
891.8	0.02134
887.681	0.02147
883.562	0.02181
879.443	0.02191
875.324	0.02208
871.205	0.02264
867.085	0.02341
862.966	0.02475
858.847	0.02617
854.728	0.02744
850.609	0.02815
846.49	0.02845
842.37	0.02885
838.251	0.02998
834.132	0.03091
830.013	0.03152
825.894	0.03163
821.774	0.03154
817.655	0.03182
813.536	0.03243
809.417	0.03332
805.298	0.03402
801.179	0.03467
797.059	0.03497
792.94	0.03568
788.821	0.03644
784.702	0.03741
780.583	0.03844
776.464	0.03922
772.344	0.04035
768.225	0.04138
764.106	0.04240
759.987	0.04360
755.868	0.04494
751.749	0.04645
747.629	0.04799
743.51	0.04951
739.391	0.05081
735.272	0.05217
731.153	0.05373
727.034	0.05506
722.914	0.05632
718.795	0.05750
714.676	0.05871
710.557	0.06010
706.438	0.06180
702.319	0.06318
698.199	0.06445
694.08	0.06600
689.961	0.06711
685.842	0.06856
681.723	0.06961
677.604	0.07102
673.484	0.07201
669.365	0.07273
665.246	0.07405
661.127	0.07500
657.008	0.07542
652.889	0.07562
648.769	0.07619
644.65	0.07655
640.531	0.07654
636.412	0.07723
632.293	0.07745
628.173	0.07735
624.054	0.07793
619.935	0.07812
615.816	0.07875
611.697	0.07959
607.578	0.07996
603.458	0.08003
599.339	0.08078
595.22	0.08174
591.101	0.08253
586.982	0.08331
582.863	0.08419
578.743	0.08578
574.624	0.08636
570.505	0.08760
566.386	0.08927
562.267	0.09071
558.148	0.09264
554.028	0.09411
549.909	0.09532
545.79	0.09667
541.671	0.09749
537.552	0.09734
533.433	0.09742
529.313	0.09714
525.194	0.09749
521.075	0.09795
516.956	0.09845
512.837	0.09910
508.718	0.09964
504.598	0.09945
500.479	0.09950
496.36	0.09884
492.241	0.09910
488.122	0.09856
484.003	0.09829
479.883	0.09732
475.764	0.09621
471.645	0.09618
467.526	0.09503
463.407	0.09402
459.288	0.09412
455.168	0.09309
451.049	0.09123
446.93	0.09079
442.811	0.09048
438.692	0.08917
434.572	0.08853
430.453	0.08905
426.334	0.08912
422.215	0.08849
418.096	0.08740
413.977	0.08785
409.857	0.08832
405.738	0.08787
401.619	0.08742
399.56	0.08756