File: FTIR/db-LASE IR data/AgNPr-LASE unlasered/Silk AgNPr film unlasered 9.22.22.dpt
3997.65	0.01173
3993.54	0.01128
3989.42	0.01101
3985.3	0.01069
3981.18	0.00970
3977.06	0.00988
3972.94	0.01096
3968.82	0.01194
3964.7	0.00999
3960.58	0.01119
3956.46	0.01042
3952.34	0.00812
3948.22	0.00831
3944.11	0.00940
3939.99	0.00929
3935.87	0.00837
3931.75	0.01080
3927.63	0.00875
3923.51	0.00905
3919.39	0.00983
3915.27	0.01046
3911.15	0.00899
3907.03	0.00741
3902.91	0.00943
3898.79	0.00939
3894.68	0.00646
3890.56	0.00900
3886.44	0.00813
3882.32	0.00860
3878.2	0.00466
3874.08	0.00582
3869.96	0.00807
3865.84	0.00637
3861.72	0.00763
3857.6	0.00460
3853.48	0.01755
3849.36	0.00433
3845.25	0.00832
3841.13	0.00928
3837.01	0.01011
3832.89	0.00790
3828.77	0.00780
3824.65	0.00626
3820.53	0.01162
3816.41	0.00937
3812.29	0.00526
3808.17	0.00871
3804.05	0.00599
3799.93	0.00820
3795.82	0.00807
3791.7	0.00788
3787.58	0.00876
3783.46	0.00882
3779.34	0.01154
3775.22	0.00667
3771.1	0.00948
3766.98	0.00748
3762.86	0.00650
3758.74	0.00996
3754.62	0.00629
3750.5	0.01172
3746.39	0.00595
3742.27	0.00636
3738.15	0.00644
3734.03	0.01107
3729.91	0.00589
3725.79	0.00881
3721.67	0.00901
3717.55	0.00759
3713.43	0.01070
3709.31	0.01118
3705.19	0.00781
3701.07	0.01156
3696.96	0.01048
3692.84	0.01015
3688.72	0.01474
3684.6	0.00908
3680.48	0.01111
3676.36	0.01811
3672.24	0.01367
3668.12	0.01862
3664	0.01859
3659.88	0.02089
3655.76	0.02305
3651.64	0.02699
3647.53	0.03384
3643.41	0.03001
3639.29	0.03414
3635.17	0.03627
3631.05	0.03951
3626.93	0.04313
3622.81	0.04418
3618.69	0.05141
3614.57	0.05117
3610.45	0.05517
3606.33	0.06041
3602.21	0.06373
3598.1	0.06740
3593.98	0.07196
3589.86	0.07476
3585.74	0.08130
3581.62	0.08364
3577.5	0.08811
3573.38	0.09126
3569.26	0.09735
3565.14	0.10336
3561.02	0.10545
3556.9	0.10997
3552.78	0.11556
3548.67	0.12004
3544.55	0.12609
3540.43	0.12905
3536.31	0.13414
3532.19	0.13775
3528.07	0.14243
3523.95	0.14623
3519.83	0.14848
3515.71	0.15320
3511.59	0.15720
3507.47	0.15917
3503.35	0.16373
3499.24	0.16635
3495.12	0.16960
3491	0.17261
3486.88	0.17606
3482.76	0.17852
3478.64	0.17942
3474.52	0.18174
3470.4	0.18397
3466.28	0.18647
3462.16	0.18991
3458.04	0.19154
3453.92	0.19321
3449.81	0.19458
3445.69	0.19679
3441.57	0.19960
3437.45	0.20184
3433.33	0.20440
3429.21	0.20829
3425.09	0.21054
3420.97	0.21420
3416.85	0.21803
3412.73	0.22119
3408.61	0.22515
3404.49	0.22956
3400.38	0.23302
3396.26	0.23711
3392.14	0.24137
3388.02	0.24526
3383.9	0.25034
3379.78	0.25481
3375.66	0.25954
3371.54	0.26445
3367.42	0.27050
3363.3	0.27633
3359.18	0.28212
3355.06	0.28792
3350.95	0.29403
3346.83	0.30146
3342.71	0.30786
3338.59	0.31540
3334.47	0.32370
3330.35	0.33028
3326.23	0.33766
3322.11	0.34610
3317.99	0.35194
3313.87	0.35939
3309.75	0.36691
3305.63	0.37430
3301.52	0.38015
3297.4	0.38534
3293.28	0.39062
3289.16	0.39380
3285.04	0.39677
3280.92	0.39743
3276.8	0.39791
3272.68	0.39832
3268.56	0.39613
3264.44	0.39059
3260.32	0.38553
3256.2	0.37929
3252.09	0.37119
3247.97	0.36388
3243.85	0.35653
3239.73	0.34955
3235.61	0.34271
3231.49	0.33594
3227.37	0.32868
3223.25	0.32082
3219.13	0.31370
3215.01	0.30660
3210.89	0.29875
3206.77	0.29071
3202.65	0.28308
3198.54	0.27505
3194.42	0.26539
3190.3	0.25644
3186.18	0.24912
3182.06	0.24022
3177.94	0.23120
3173.82	0.22246
3169.7	0.21416
3165.58	0.20566
3161.46	0.19873
3157.34	0.19173
3153.22	0.18561
3149.11	0.17991
3144.99	0.17407
3140.87	0.16973
3136.75	0.16532
3132.63	0.16167
3128.51	0.15942
3124.39	0.15789
3120.27	0.15715
3116.15	0.15761
3112.03	0.15763
3107.91	0.15868
3103.79	0.15981
3099.68	0.16182
3095.56	0.16503
3091.44	0.16791
3087.32	0.17116
3083.2	0.17333
3079.08	0.17496
3074.96	0.17546
3070.84	0.17533
3066.72	0.17512
3062.6	0.17154
3058.48	0.16740
3054.36	0.16316
3050.25	0.15817
3046.13	0.15205
3042.01	0.14632
3037.89	0.13916
3033.77	0.13289
3029.65	0.12720
3025.53	0.12170
3021.41	0.11683
3017.29	0.11357
3013.17	0.11009
3009.05	0.10678
3004.93	0.10614
3000.82	0.10599
2996.7	0.10798
2992.58	0.11069
2988.46	0.11418
2984.34	0.11676
2980.22	0.11751
2976.1	0.11614
2971.98	0.11517
2967.86	0.11474
2963.74	0.11465
2959.62	0.11499
2955.5	0.11523
2951.39	0.11724
2947.27	0.12130
2943.15	0.12812
2939.03	0.13289
2934.91	0.13472
2930.79	0.13281
2926.67	0.12846
2922.55	0.12344
2918.43	0.11901
2914.31	0.10859
2910.19	0.09733
2906.07	0.09114
2901.96	0.08676
2897.84	0.08306
2893.72	0.08132
2889.6	0.07961
2885.48	0.07966
2881.36	0.08026
2877.24	0.08011
2873.12	0.07854
2869	0.07395
2864.88	0.07021
2860.76	0.06858
2856.64	0.06777
2852.53	0.06828
2848.41	0.06692
2844.29	0.06152
2840.17	0.05890
2836.05	0.05797
2831.93	0.05703
2827.81	0.05585
2823.69	0.05554
2819.57	0.05493
2815.45	0.05378
2811.33	0.05269
2807.21	0.05136
2803.1	0.04992
2798.98	0.04871
2794.86	0.04781
2790.74	0.04615
2786.62	0.04439
2782.5	0.04272
2778.38	0.04158
2774.26	0.04020
2770.14	0.03894
2766.02	0.03765
2761.9	0.03650
2757.78	0.03576
2753.67	0.03508
2749.55	0.03455
2745.43	0.03358
2741.31	0.03199
2737.19	0.03116
2733.07	0.03055
2728.95	0.02999
2724.83	0.02963
2720.71	0.02859
2716.59	0.02806
2712.47	0.02811
2708.35	0.02763
2704.24	0.02735
2700.12	0.02678
2696	0.02626
2691.88	0.02595
2687.76	0.02565
2683.64	0.02524
2679.52	0.02498
2675.4	0.02495
2671.28	0.02473
2667.16	0.02407
2663.04	0.02396
2658.92	0.02399
2654.81	0.02364
2650.69	0.02340
2646.57	0.02316
2642.45	0.02284
2638.33	0.02299
2634.21	0.02275
2630.09	0.02243
2625.97	0.02247
2621.85	0.02211
2617.73	0.02129
2613.61	0.02103
2609.49	0.02099
2605.38	0.02066
2601.26	0.01997
2597.14	0.01944
2593.02	0.01812
2588.9	0.01871
2584.78	0.01827
2580.66	0.01807
2576.54	0.01739
2572.42	0.01660
2568.3	0.01575
2564.18	0.01596
2560.06	0.01574
2555.95	0.01547
2551.83	0.01502
2547.71	0.01495
2543.59	0.01405
2539.47	0.01444
2535.35	0.01459
2531.23	0.01545
2527.11	0.01488
2522.99	0.01455
2518.87	0.01453
2514.75	0.01411
2510.63	0.01360
2506.52	0.01450
2502.4	0.01495
2498.28	0.01356
2494.16	0.01284
2490.04	0.01288
2485.92	0.01265
2481.8	0.01362
2477.68	0.01324
2473.56	0.01256
2469.44	0.01272
2465.32	0.01284
2461.2	0.01264
2457.09	0.01245
2452.97	0.01230
2448.85	0.01232
2444.73	0.01206
2440.61	0.01233
2436.49	0.01231
2432.37	0.01198
2428.25	0.01157
2424.13	0.01137
2420.01	0.01155
2415.89	0.01170
2411.77	0.01183
2407.66	0.01071
2403.54	0.01057
2399.42	0.01067
2395.3	0.01075
2391.18	0.01105
2387.06	0.01099
2382.94	0.01011
2378.82	0.00960
2374.7	0.01053
2370.58	0.00913
2366.46	0.00813
2362.34	0.00979
2358.23	0.00844
2354.11	0.00940
2349.99	0.00862
2345.87	0.01070
2341.75	0.01202
2337.63	0.01042
2333.51	0.00871
2329.39	0.00828
2325.27	0.01400
2321.15	0.01496
2317.03	0.01329
2312.91	0.01308
2308.8	0.01224
2304.68	0.01229
2300.56	0.01238
2296.44	0.01129
2292.32	0.01128
2288.2	0.01165
2284.08	0.01207
2279.96	0.01069
2275.84	0.01135
2271.72	0.01131
2267.6	0.01141
2263.48	0.01098
2259.36	0.01125
2255.25	0.01070
2251.13	0.01086
2247.01	0.01128
2242.89	0.01018
2238.77	0.01040
2234.65	0.01018
2230.53	0.01054
2226.41	0.01089
2222.29	0.00999
2218.17	0.01019
2214.05	0.00989
2209.93	0.01080
2205.82	0.01184
2201.7	0.00998
2197.58	0.01099
2193.46	0.01195
2189.34	0.01182
2185.22	0.01126
2181.1	0.01057
2176.98	0.01082
2172.86	0.00952
2168.74	0.01123
2164.62	0.01178
2160.5	0.01002
2156.39	0.00879
2152.27	0.00972
2148.15	0.00942
2144.03	0.00809
2139.91	0.00907
2135.79	0.00867
2131.67	0.01007
2127.55	0.01095
2123.43	0.01132
2119.31	0.01133
2115.19	0.01242
2111.07	0.01270
2106.96	0.01239
2102.84	0.01209
2098.72	0.01180
2094.6	0.01100
2090.48	0.01146
2086.36	0.01157
2082.24	0.01073
2078.12	0.01080
2074	0.01145
2069.88	0.01078
2065.76	0.01043
2061.64	0.01075
2057.53	0.01023
2053.41	0.00882
2049.29	0.00932
2045.17	0.00771
2041.05	0.00825
2036.93	0.00705
2032.81	0.00677
2028.69	0.00638
2024.57	0.00519
2020.45	0.00591
2016.33	0.00706
2012.21	0.00900
2008.1	0.00884
2003.98	0.00797
1999.86	0.00755
1995.74	0.00729
1991.62	0.00751
1987.5	0.00748
1983.38	0.00949
1979.26	0.00863
1975.14	0.00562
1971.02	0.00556
1966.9	0.00637
1962.78	0.00622
1958.67	0.00718
1954.55	0.00757
1950.43	0.00642
1946.31	0.00618
1942.19	0.00696
1938.07	0.00644
1933.95	0.00685
1929.83	0.00757
1925.71	0.00666
1921.59	0.00730
1917.47	0.00789
1913.35	0.00718
1909.24	0.00803
1905.12	0.00840
1901	0.00833
1896.88	0.00811
1892.76	0.00792
1888.64	0.00918
1884.52	0.00882
1880.4	0.00847
1876.28	0.00833
1872.16	0.00788
1868.04	0.00929
1863.92	0.00781
1859.81	0.00806
1855.69	0.00760
1851.57	0.00810
1847.45	0.00793
1843.33	0.00962
1839.21	0.00860
1835.09	0.00875
1830.97	0.00990
1826.85	0.00893
1822.73	0.00932
1818.61	0.00982
1814.49	0.00965
1810.38	0.01077
1806.26	0.01022
1802.14	0.01112
1798.02	0.01072
1793.9	0.01229
1789.78	0.01169
1785.66	0.01211
1781.54	0.01305
1777.42	0.01237
1773.3	0.01442
1769.18	0.01387
1765.06	0.01364
1760.95	0.01535
1756.83	0.01549
1752.71	0.01597
1748.59	0.01763
1744.47	0.01712
1740.35	0.01883
1736.23	0.01906
1732.11	0.02228
1727.99	0.02271
1723.87	0.02502
1719.75	0.02843
1715.63	0.03573
1711.52	0.04192
1707.4	0.05604
1703.28	0.07336
1699.16	0.10179
1695.04	0.13224
1690.92	0.15589
1686.8	0.18164
1682.68	0.21969
1678.56	0.24506
1674.44	0.27917
1670.32	0.31561
1666.2	0.35300
1662.09	0.39302
1657.97	0.42530
1653.85	0.46687
1649.73	0.50000
1645.61	0.53029
1641.49	0.54371
1637.37	0.55259
1633.25	0.54732
1629.13	0.52799
1625.01	0.49224
1620.89	0.44310
1616.77	0.39764
1612.66	0.34615
1608.54	0.29911
1604.42	0.25548
1600.3	0.22760
1596.18	0.21141
1592.06	0.19863
1587.94	0.19158
1583.82	0.19360
1579.7	0.20169
1575.58	0.22185
1571.46	0.23984
1567.34	0.26782
1563.23	0.29035
1559.11	0.32877
1554.99	0.36228
1550.87	0.39095
1546.75	0.41584
1542.63	0.44036
1538.51	0.46832
1534.39	0.48044
1530.27	0.49063
1526.15	0.49595
1522.03	0.50222
1517.91	0.51505
1513.8	0.52340
1509.68	0.51050
1505.56	0.47180
1501.44	0.43054
1497.32	0.38686
1493.2	0.33773
1489.08	0.29666
1484.96	0.25786
1480.84	0.23441
1476.72	0.21836
1472.6	0.20994
1468.48	0.20301
1464.37	0.20841
1460.25	0.21500
1456.13	0.23182
1452.01	0.23527
1447.89	0.23164
1443.77	0.21622
1439.65	0.19961
1435.53	0.18479
1431.41	0.17526
1427.29	0.17478
1423.17	0.18174
1419.05	0.19572
1414.94	0.20642
1410.82	0.21245
1406.7	0.20949
1402.58	0.19892
1398.46	0.19121
1394.34	0.19049
1390.22	0.19400
1386.1	0.20091
1381.98	0.20382
1377.86	0.20324
1373.74	0.19750
1369.62	0.18511
1365.5	0.17027
1361.39	0.15698
1357.27	0.14830
1353.15	0.14617
1349.03	0.14971
1344.91	0.15789
1340.79	0.16871
1336.67	0.17741
1332.55	0.17909
1328.43	0.17317
1324.31	0.16320
1320.19	0.15507
1316.07	0.15144
1311.96	0.15229
1307.84	0.15470
1303.72	0.15781
1299.6	0.16129
1295.48	0.16519
1291.36	0.16869
1287.24	0.17173
1283.12	0.17515
1279	0.18025
1274.88	0.18770
1270.76	0.19696
1266.64	0.20579
1262.53	0.21471
1258.41	0.22405
1254.29	0.23517
1250.17	0.24793
1246.05	0.26063
1241.93	0.27226
1237.81	0.28041
1233.69	0.28321
1229.57	0.27770
1225.45	0.26396
1221.33	0.24373
1217.21	0.21972
1213.1	0.19609
1208.98	0.17593
1204.86	0.15879
1200.74	0.14406
1196.62	0.13262
1192.5	0.12564
1188.38	0.12194
1184.26	0.12187
1180.14	0.12604
1176.02	0.13400
1171.9	0.14000
1167.78	0.14139
1163.67	0.14020
1159.55	0.13611
1155.43	0.13044
1151.31	0.12397
1147.19	0.11732
1143.07	0.11135
1138.95	0.10690
1134.83	0.10425
1130.71	0.10287
1126.59	0.10239
1122.47	0.10232
1118.35	0.10241
1114.24	0.10192
1110.12	0.10189
1106	0.10274
1101.88	0.10125
1097.76	0.09705
1093.64	0.09538
1089.52	0.09814
1085.4	0.10467
1081.28	0.11298
1077.16	0.12011
1073.04	0.12458
1068.92	0.12628
1064.81	0.12681
1060.69	0.12881
1056.57	0.13091
1052.45	0.12925
1048.33	0.12283
1044.21	0.11489
1040.09	0.10816
1035.97	0.10386
1031.85	0.10212
1027.73	0.10127
1023.61	0.10130
1019.49	0.10784
1015.38	0.11578
1011.26	0.11345
1007.14	0.10151
1003.02	0.08838
998.899	0.07838
994.78	0.07082
990.66	0.06519
986.541	0.06110
982.422	0.05876
978.303	0.05812
974.184	0.05806
970.065	0.05823
965.945	0.05953
961.826	0.06153
957.707	0.06359
953.588	0.06535
949.469	0.06674
945.35	0.06721
941.23	0.06607
937.111	0.06408
932.992	0.06175
928.873	0.05947
924.754	0.05735
920.635	0.05520
916.515	0.05343
912.396	0.05199
908.277	0.05071
904.158	0.05016
900.039	0.04964
895.92	0.04936
891.8	0.04933
887.681	0.04943
883.562	0.05017
879.443	0.05060
875.324	0.05122
871.205	0.05247
867.085	0.05442
862.966	0.05789
858.847	0.06144
854.728	0.06439
850.609	0.06633
846.49	0.06624
842.37	0.06720
838.251	0.07037
834.132	0.07313
830.013	0.07480
825.894	0.07519
821.774	0.07503
817.655	0.07528
813.536	0.07697
809.417	0.07908
805.298	0.08116
801.179	0.08245
797.059	0.08326
792.94	0.08440
788.821	0.08596
784.702	0.08820
780.583	0.09046
776.464	0.09253
772.344	0.09451
768.225	0.09684
764.106	0.09977
759.987	0.10261
755.868	0.10565
751.749	0.10883
747.629	0.11207
743.51	0.11513
739.391	0.11823
735.272	0.12081
731.153	0.12332
727.034	0.12620
722.914	0.12903
718.795	0.13211
714.676	0.13464
710.557	0.13732
706.438	0.14061
702.319	0.14396
698.199	0.14697
694.08	0.14923
689.961	0.15171
685.842	0.15409
681.723	0.15669
677.604	0.15914
673.484	0.16205
669.365	0.16049
665.246	0.16555
661.127	0.16712
657.008	0.16805
652.889	0.16840
648.769	0.16879
644.65	0.16929
640.531	0.16954
636.412	0.16955
632.293	0.16986
628.173	0.16933
624.054	0.16924
619.935	0.16941
615.816	0.16903
611.697	0.16897
607.578	0.16990
603.458	0.16976
599.339	0.17024
595.22	0.17040
591.101	0.17164
586.982	0.17314
582.863	0.17484
578.743	0.17682
574.624	0.17918
570.505	0.18165
566.386	0.18496
562.267	0.18781
558.148	0.19023
554.028	0.19340
549.909	0.19546
545.79	0.19742
541.671	0.19854
537.552	0.19809
533.433	0.19799
529.313	0.19634
525.194	0.19504
521.075	0.19394
516.956	0.19371
512.837	0.19328
508.718	0.19321
504.598	0.19190
500.479	0.19060
496.36	0.18914
492.241	0.18895
488.122	0.18776
484.003	0.18601
479.883	0.18338
475.764	0.18110
471.645	0.17916
467.526	0.17670
463.407	0.17364
459.288	0.17093
455.168	0.16772
451.049	0.16595
446.93	0.16405
442.811	0.16209
438.692	0.15998
434.572	0.15613
430.453	0.15427
426.334	0.15484
422.215	0.15526
418.096	0.15495
413.977	0.15071
409.857	0.14927
405.738	0.14878
401.619	0.14684
399.56	0.14629