File: FTIR/db-LASE IR data/AgNPr-LASE unlasered/Silk AgNPr film unlasered 2 8.26.22.dpt
3997.65	0.00034
3993.54	0.00072
3989.42	0.00034
3985.3	0.00119
3981.18	0.00061
3977.06	0.00078
3972.94	0.00096
3968.82	0.00062
3964.7	0.00015
3960.58	0.00034
3956.46	0.00096
3952.34	-0.00027
3948.22	-0.00107
3944.11	-0.00111
3939.99	-0.00003
3935.87	-0.00157
3931.75	-0.00057
3927.63	0.00103
3923.51	0.00085
3919.39	0.00036
3915.27	0.00038
3911.15	0.00026
3907.03	0.00035
3902.91	0.00152
3898.79	0.00105
3894.68	0.00094
3890.56	0.00086
3886.44	0.00027
3882.32	-0.00032
3878.2	0.00051
3874.08	0.00161
3869.96	0.00122
3865.84	0.00036
3861.72	0.00070
3857.6	0.00030
3853.48	0.00345
3849.36	0.00152
3845.25	-0.00024
3841.13	-0.00129
3837.01	-0.00153
3832.89	-0.00072
3828.77	0.00030
3824.65	-0.00069
3820.53	0.00041
3816.41	-0.00006
3812.29	-0.00094
3808.17	0.00031
3804.05	0.00047
3799.93	0.00075
3795.82	0.00127
3791.7	0.00069
3787.58	0.00075
3783.46	0.00004
3779.34	0.00000
3775.22	0.00111
3771.1	0.00092
3766.98	0.00093
3762.86	0.00023
3758.74	0.00056
3754.62	0.00099
3750.5	0.00017
3746.39	0.00070
3742.27	0.00190
3738.15	0.00233
3734.03	0.00311
3729.91	0.00086
3725.79	0.00080
3721.67	0.00121
3717.55	-0.00031
3713.43	0.00006
3709.31	0.00128
3705.19	0.00179
3701.07	0.00225
3696.96	0.00149
3692.84	0.00061
3688.72	0.00260
3684.6	0.00281
3680.48	0.00345
3676.36	0.00272
3672.24	0.00244
3668.12	0.00323
3664	0.00362
3659.88	0.00473
3655.76	0.00472
3651.64	0.00611
3647.53	0.00713
3643.41	0.00792
3639.29	0.00889
3635.17	0.01053
3631.05	0.01138
3626.93	0.01414
3622.81	0.01487
3618.69	0.01613
3614.57	0.01570
3610.45	0.01715
3606.33	0.01864
3602.21	0.01913
3598.1	0.02197
3593.98	0.02321
3589.86	0.02350
3585.74	0.02612
3581.62	0.02639
3577.5	0.02774
3573.38	0.03067
3569.26	0.03091
3565.14	0.03142
3561.02	0.03397
3556.9	0.03616
3552.78	0.03709
3548.67	0.03843
3544.55	0.03965
3540.43	0.04121
3536.31	0.04285
3532.19	0.04396
3528.07	0.04433
3523.95	0.04705
3519.83	0.04866
3515.71	0.04941
3511.59	0.05076
3507.47	0.05235
3503.35	0.05174
3499.24	0.05360
3495.12	0.05425
3491	0.05550
3486.88	0.05673
3482.76	0.05652
3478.64	0.05751
3474.52	0.05892
3470.4	0.05988
3466.28	0.06059
3462.16	0.06092
3458.04	0.06076
3453.92	0.06139
3449.81	0.06295
3445.69	0.06339
3441.57	0.06429
3437.45	0.06525
3433.33	0.06452
3429.21	0.06525
3425.09	0.06693
3420.97	0.06800
3416.85	0.06932
3412.73	0.07093
3408.61	0.07151
3404.49	0.07229
3400.38	0.07336
3396.26	0.07460
3392.14	0.07659
3388.02	0.07717
3383.9	0.07888
3379.78	0.08098
3375.66	0.08259
3371.54	0.08308
3367.42	0.08445
3363.3	0.08661
3359.18	0.08863
3355.06	0.09115
3350.95	0.09183
3346.83	0.09326
3342.71	0.09590
3338.59	0.09815
3334.47	0.09975
3330.35	0.10093
3326.23	0.10360
3322.11	0.10591
3317.99	0.10789
3313.87	0.10991
3309.75	0.11182
3305.63	0.11374
3301.52	0.11465
3297.4	0.11616
3293.28	0.11916
3289.16	0.11993
3285.04	0.12051
3280.92	0.11970
3276.8	0.12037
3272.68	0.12005
3268.56	0.11955
3264.44	0.11815
3260.32	0.11653
3256.2	0.11465
3252.09	0.11353
3247.97	0.11211
3243.85	0.10946
3239.73	0.10704
3235.61	0.10572
3231.49	0.10294
3227.37	0.10096
3223.25	0.09940
3219.13	0.09739
3215.01	0.09459
3210.89	0.09212
3206.77	0.09035
3202.65	0.08774
3198.54	0.08511
3194.42	0.08320
3190.3	0.08069
3186.18	0.07783
3182.06	0.07582
3177.94	0.07318
3173.82	0.07016
3169.7	0.06743
3165.58	0.06488
3161.46	0.06206
3157.34	0.05993
3153.22	0.05739
3149.11	0.05622
3144.99	0.05467
3140.87	0.05285
3136.75	0.05221
3132.63	0.05186
3128.51	0.05111
3124.39	0.04964
3120.27	0.04997
3116.15	0.04967
3112.03	0.05005
3107.91	0.05005
3103.79	0.05032
3099.68	0.05129
3095.56	0.05197
3091.44	0.05336
3087.32	0.05493
3083.2	0.05550
3079.08	0.05550
3074.96	0.05572
3070.84	0.05606
3066.72	0.05596
3062.6	0.05463
3058.48	0.05378
3054.36	0.05199
3050.25	0.05039
3046.13	0.04724
3042.01	0.04549
3037.89	0.04402
3033.77	0.04219
3029.65	0.04055
3025.53	0.03885
3021.41	0.03680
3017.29	0.03572
3013.17	0.03491
3009.05	0.03359
3004.93	0.03338
3000.82	0.03297
2996.7	0.03342
2992.58	0.03469
2988.46	0.03549
2984.34	0.03672
2980.22	0.03702
2976.1	0.03631
2971.98	0.03618
2967.86	0.03582
2963.74	0.03568
2959.62	0.03537
2955.5	0.03525
2951.39	0.03650
2947.27	0.03812
2943.15	0.03981
2939.03	0.04119
2934.91	0.04215
2930.79	0.04113
2926.67	0.03970
2922.55	0.03711
2918.43	0.03452
2914.31	0.03114
2910.19	0.02916
2906.07	0.02790
2901.96	0.02577
2897.84	0.02516
2893.72	0.02383
2889.6	0.02317
2885.48	0.02316
2881.36	0.02354
2877.24	0.02360
2873.12	0.02282
2869	0.02212
2864.88	0.02094
2860.76	0.02035
2856.64	0.02013
2852.53	0.01994
2848.41	0.01886
2844.29	0.01779
2840.17	0.01727
2836.05	0.01717
2831.93	0.01696
2827.81	0.01681
2823.69	0.01602
2819.57	0.01646
2815.45	0.01580
2811.33	0.01527
2807.21	0.01512
2803.1	0.01454
2798.98	0.01389
2794.86	0.01335
2790.74	0.01314
2786.62	0.01254
2782.5	0.01162
2778.38	0.01175
2774.26	0.01148
2770.14	0.01101
2766.02	0.01048
2761.9	0.01008
2757.78	0.00967
2753.67	0.00923
2749.55	0.00888
2745.43	0.00880
2741.31	0.00850
2737.19	0.00786
2733.07	0.00756
2728.95	0.00760
2724.83	0.00760
2720.71	0.00727
2716.59	0.00737
2712.47	0.00689
2708.35	0.00693
2704.24	0.00686
2700.12	0.00648
2696	0.00650
2691.88	0.00641
2687.76	0.00640
2683.64	0.00639
2679.52	0.00618
2675.4	0.00654
2671.28	0.00638
2667.16	0.00613
2663.04	0.00640
2658.92	0.00663
2654.81	0.00629
2650.69	0.00608
2646.57	0.00597
2642.45	0.00588
2638.33	0.00616
2634.21	0.00541
2630.09	0.00494
2625.97	0.00571
2621.85	0.00511
2617.73	0.00519
2613.61	0.00569
2609.49	0.00563
2605.38	0.00489
2601.26	0.00427
2597.14	0.00431
2593.02	0.00416
2588.9	0.00461
2584.78	0.00422
2580.66	0.00398
2576.54	0.00414
2572.42	0.00443
2568.3	0.00373
2564.18	0.00372
2560.06	0.00398
2555.95	0.00338
2551.83	0.00296
2547.71	0.00228
2543.59	0.00316
2539.47	0.00298
2535.35	0.00327
2531.23	0.00350
2527.11	0.00281
2522.99	0.00246
2518.87	0.00242
2514.75	0.00324
2510.63	0.00337
2506.52	0.00264
2502.4	0.00165
2498.28	0.00142
2494.16	0.00222
2490.04	0.00267
2485.92	0.00265
2481.8	0.00219
2477.68	0.00187
2473.56	0.00132
2469.44	0.00182
2465.32	0.00247
2461.2	0.00205
2457.09	0.00258
2452.97	0.00189
2448.85	0.00213
2444.73	0.00260
2440.61	0.00238
2436.49	0.00197
2432.37	0.00152
2428.25	0.00238
2424.13	0.00224
2420.01	0.00171
2415.89	0.00113
2411.77	0.00148
2407.66	0.00172
2403.54	0.00120
2399.42	0.00180
2395.3	0.00195
2391.18	0.00212
2387.06	0.00164
2382.94	0.00140
2378.82	0.00172
2374.7	0.00192
2370.58	0.00208
2366.46	0.00208
2362.34	0.00252
2358.23	0.00276
2354.11	0.00298
2349.99	0.00250
2345.87	0.00287
2341.75	0.00210
2337.63	0.00159
2333.51	0.00124
2329.39	0.00200
2325.27	0.00401
2321.15	0.00387
2317.03	0.00318
2312.91	0.00356
2308.8	0.00334
2304.68	0.00383
2300.56	0.00320
2296.44	0.00315
2292.32	0.00282
2288.2	0.00269
2284.08	0.00362
2279.96	0.00318
2275.84	0.00286
2271.72	0.00254
2267.6	0.00361
2263.48	0.00306
2259.36	0.00217
2255.25	0.00182
2251.13	0.00240
2247.01	0.00249
2242.89	0.00237
2238.77	0.00258
2234.65	0.00182
2230.53	0.00208
2226.41	0.00230
2222.29	0.00135
2218.17	0.00316
2214.05	0.00365
2209.93	0.00147
2205.82	0.00263
2201.7	0.00303
2197.58	0.00234
2193.46	0.00138
2189.34	0.00266
2185.22	0.00289
2181.1	0.00243
2176.98	0.00239
2172.86	0.00140
2168.74	0.00068
2164.62	0.00231
2160.5	0.00439
2156.39	0.00312
2152.27	0.00312
2148.15	0.00080
2144.03	0.00058
2139.91	0.00139
2135.79	0.00165
2131.67	0.00102
2127.55	0.00115
2123.43	0.00182
2119.31	0.00238
2115.19	0.00266
2111.07	0.00300
2106.96	0.00279
2102.84	0.00382
2098.72	0.00393
2094.6	0.00292
2090.48	0.00201
2086.36	0.00234
2082.24	0.00288
2078.12	0.00187
2074	0.00224
2069.88	0.00212
2065.76	0.00240
2061.64	0.00238
2057.53	0.00183
2053.41	0.00238
2049.29	0.00351
2045.17	0.00209
2041.05	0.00293
2036.93	0.00306
2032.81	0.00221
2028.69	0.00117
2024.57	0.00086
2020.45	0.00177
2016.33	0.00133
2012.21	0.00072
2008.1	0.00032
2003.98	0.00062
1999.86	0.00232
1995.74	0.00141
1991.62	0.00031
1987.5	0.00080
1983.38	0.00176
1979.26	0.00225
1975.14	0.00259
1971.02	0.00218
1966.9	0.00156
1962.78	-0.00064
1958.67	0.00024
1954.55	0.00082
1950.43	0.00056
1946.31	0.00117
1942.19	0.00033
1938.07	0.00113
1933.95	0.00201
1929.83	0.00077
1925.71	0.00056
1921.59	0.00027
1917.47	0.00169
1913.35	0.00101
1909.24	0.00078
1905.12	0.00170
1901	0.00091
1896.88	0.00106
1892.76	0.00121
1888.64	0.00150
1884.52	0.00099
1880.4	0.00104
1876.28	0.00136
1872.16	0.00155
1868.04	0.00101
1863.92	0.00142
1859.81	0.00181
1855.69	0.00117
1851.57	0.00128
1847.45	0.00136
1843.33	0.00162
1839.21	0.00214
1835.09	0.00208
1830.97	0.00186
1826.85	0.00168
1822.73	0.00237
1818.61	0.00219
1814.49	0.00193
1810.38	0.00214
1806.26	0.00248
1802.14	0.00273
1798.02	0.00284
1793.9	0.00300
1789.78	0.00309
1785.66	0.00336
1781.54	0.00362
1777.42	0.00331
1773.3	0.00348
1769.18	0.00396
1765.06	0.00431
1760.95	0.00452
1756.83	0.00444
1752.71	0.00465
1748.59	0.00521
1744.47	0.00545
1740.35	0.00602
1736.23	0.00625
1732.11	0.00703
1727.99	0.00768
1723.87	0.00836
1719.75	0.00928
1715.63	0.01158
1711.52	0.01464
1707.4	0.01914
1703.28	0.02530
1699.16	0.03349
1695.04	0.04241
1690.92	0.05008
1686.8	0.05781
1682.68	0.06764
1678.56	0.07462
1674.44	0.08339
1670.32	0.09238
1666.2	0.10097
1662.09	0.10955
1657.97	0.11762
1653.85	0.12563
1649.73	0.13314
1645.61	0.13778
1641.49	0.14085
1637.37	0.14204
1633.25	0.14099
1629.13	0.13728
1625.01	0.13043
1620.89	0.12072
1616.77	0.11027
1612.66	0.09908
1608.54	0.08750
1604.42	0.07664
1600.3	0.06944
1596.18	0.06496
1592.06	0.06149
1587.94	0.05992
1583.82	0.06034
1579.7	0.06284
1575.58	0.06803
1571.46	0.07350
1567.34	0.08021
1563.23	0.08651
1559.11	0.09461
1554.99	0.10344
1550.87	0.10940
1546.75	0.11529
1542.63	0.12049
1538.51	0.12573
1534.39	0.12789
1530.27	0.12928
1526.15	0.12985
1522.03	0.13071
1517.91	0.13297
1513.8	0.13422
1509.68	0.13147
1505.56	0.12263
1501.44	0.11495
1497.32	0.10492
1493.2	0.09446
1489.08	0.08365
1484.96	0.07415
1480.84	0.06779
1476.72	0.06321
1472.6	0.06081
1468.48	0.06036
1464.37	0.06174
1460.25	0.06398
1456.13	0.06750
1452.01	0.06919
1447.89	0.06769
1443.77	0.06376
1439.65	0.05936
1435.53	0.05514
1431.41	0.05278
1427.29	0.05285
1423.17	0.05494
1419.05	0.05829
1414.94	0.06175
1410.82	0.06321
1406.7	0.06263
1402.58	0.06037
1398.46	0.05826
1394.34	0.05808
1390.22	0.05916
1386.1	0.06033
1381.98	0.06077
1377.86	0.06033
1373.74	0.05846
1369.62	0.05526
1365.5	0.05120
1361.39	0.04737
1357.27	0.04500
1353.15	0.04421
1349.03	0.04508
1344.91	0.04747
1340.79	0.05046
1336.67	0.05275
1332.55	0.05304
1328.43	0.05132
1324.31	0.04874
1320.19	0.04666
1316.07	0.04570
1311.96	0.04586
1307.84	0.04657
1303.72	0.04749
1299.6	0.04861
1295.48	0.04980
1291.36	0.05076
1287.24	0.05150
1283.12	0.05242
1279	0.05368
1274.88	0.05581
1270.76	0.05813
1266.64	0.06047
1262.53	0.06274
1258.41	0.06530
1254.29	0.06819
1250.17	0.07126
1246.05	0.07433
1241.93	0.07694
1237.81	0.07870
1233.69	0.07898
1229.57	0.07756
1225.45	0.07415
1221.33	0.06894
1217.21	0.06273
1213.1	0.05634
1208.98	0.05087
1204.86	0.04602
1200.74	0.04206
1196.62	0.03899
1192.5	0.03713
1188.38	0.03625
1184.26	0.03640
1180.14	0.03773
1176.02	0.03997
1171.9	0.04169
1167.78	0.04193
1163.67	0.04131
1159.55	0.04008
1155.43	0.03856
1151.31	0.03650
1147.19	0.03467
1143.07	0.03320
1138.95	0.03217
1134.83	0.03119
1130.71	0.03071
1126.59	0.03073
1122.47	0.03082
1118.35	0.03060
1114.24	0.03048
1110.12	0.03047
1106	0.03065
1101.88	0.03043
1097.76	0.02931
1093.64	0.02876
1089.52	0.02957
1085.4	0.03158
1081.28	0.03409
1077.16	0.03594
1073.04	0.03728
1068.92	0.03767
1064.81	0.03779
1060.69	0.03827
1056.57	0.03878
1052.45	0.03808
1048.33	0.03636
1044.21	0.03400
1040.09	0.03194
1035.97	0.03057
1031.85	0.03022
1027.73	0.02970
1023.61	0.02999
1019.49	0.03186
1015.38	0.03383
1011.26	0.03299
1007.14	0.02942
1003.02	0.02555
998.899	0.02274
994.78	0.02070
990.66	0.01921
986.541	0.01796
982.422	0.01757
978.303	0.01730
974.184	0.01724
970.065	0.01726
965.945	0.01796
961.826	0.01865
957.707	0.01926
953.588	0.01981
949.469	0.02021
945.35	0.02041
941.23	0.02018
937.111	0.01959
932.992	0.01893
928.873	0.01825
924.754	0.01753
920.635	0.01700
916.515	0.01644
912.396	0.01612
908.277	0.01581
904.158	0.01552
900.039	0.01543
895.92	0.01525
891.8	0.01533
887.681	0.01556
883.562	0.01586
879.443	0.01619
875.324	0.01631
871.205	0.01651
867.085	0.01715
862.966	0.01808
858.847	0.01905
854.728	0.02004
850.609	0.02065
846.49	0.02099
842.37	0.02148
838.251	0.02245
834.132	0.02329
830.013	0.02385
825.894	0.02361
821.774	0.02366
817.655	0.02371
813.536	0.02422
809.417	0.02487
805.298	0.02547
801.179	0.02587
797.059	0.02620
792.94	0.02657
788.821	0.02681
784.702	0.02773
780.583	0.02843
776.464	0.02884
772.344	0.02949
768.225	0.03018
764.106	0.03093
759.987	0.03189
755.868	0.03253
751.749	0.03369
747.629	0.03450
743.51	0.03527
739.391	0.03599
735.272	0.03694
731.153	0.03787
727.034	0.03838
722.914	0.03903
718.795	0.03991
714.676	0.04056
710.557	0.04131
706.438	0.04206
702.319	0.04260
698.199	0.04324
694.08	0.04443
689.961	0.04501
685.842	0.04567
681.723	0.04604
677.604	0.04668
673.484	0.04747
669.365	0.04803
665.246	0.04823
661.127	0.04833
657.008	0.04869
652.889	0.04891
648.769	0.04877
644.65	0.04874
640.531	0.04888
636.412	0.04915
632.293	0.04939
628.173	0.04878
624.054	0.04881
619.935	0.04855
615.816	0.04885
611.697	0.04890
607.578	0.04875
603.458	0.04886
599.339	0.04913
595.22	0.04941
591.101	0.04955
586.982	0.04970
582.863	0.05002
578.743	0.05059
574.624	0.05134
570.505	0.05199
566.386	0.05251
562.267	0.05306
558.148	0.05422
554.028	0.05498
549.909	0.05542
545.79	0.05574
541.671	0.05605
537.552	0.05560
533.433	0.05537
529.313	0.05515
525.194	0.05521
521.075	0.05517
516.956	0.05528
512.837	0.05506
508.718	0.05513
504.598	0.05531
500.479	0.05532
496.36	0.05493
492.241	0.05477
488.122	0.05408
484.003	0.05383
479.883	0.05317
475.764	0.05272
471.645	0.05238
467.526	0.05188
463.407	0.05124
459.288	0.05146
455.168	0.05091
451.049	0.04965
446.93	0.04941
442.811	0.04933
438.692	0.04862
434.572	0.04775
430.453	0.04760
426.334	0.04714
422.215	0.04771
418.096	0.04837
413.977	0.04688
409.857	0.04725
405.738	0.04769
401.619	0.04715
399.56	0.04740