File: FTIR/db-LASE IR data/AgNPr-LASE unlasered/Silk AgNPr film unlasered 2 9.22.22.dpt
3997.65	0.00651
3993.54	0.00637
3989.42	0.00754
3985.3	0.00652
3981.18	0.00519
3977.06	0.00530
3972.94	0.00585
3968.82	0.00679
3964.7	0.00643
3960.58	0.00631
3956.46	0.00513
3952.34	0.00519
3948.22	0.00539
3944.11	0.00537
3939.99	0.00481
3935.87	0.00547
3931.75	0.00605
3927.63	0.00521
3923.51	0.00594
3919.39	0.00540
3915.27	0.00530
3911.15	0.00522
3907.03	0.00579
3902.91	0.00648
3898.79	0.00572
3894.68	0.00474
3890.56	0.00592
3886.44	0.00524
3882.32	0.00601
3878.2	0.00422
3874.08	0.00490
3869.96	0.00469
3865.84	0.00465
3861.72	0.00387
3857.6	0.00436
3853.48	0.00625
3849.36	0.00495
3845.25	0.00564
3841.13	0.00641
3837.01	0.00630
3832.89	0.00492
3828.77	0.00417
3824.65	0.00490
3820.53	0.00626
3816.41	0.00537
3812.29	0.00458
3808.17	0.00431
3804.05	0.00609
3799.93	0.00598
3795.82	0.00567
3791.7	0.00586
3787.58	0.00612
3783.46	0.00596
3779.34	0.00595
3775.22	0.00546
3771.1	0.00506
3766.98	0.00490
3762.86	0.00520
3758.74	0.00691
3754.62	0.00716
3750.5	0.00650
3746.39	0.00506
3742.27	0.00502
3738.15	0.00558
3734.03	0.00698
3729.91	0.00642
3725.79	0.00597
3721.67	0.00545
3717.55	0.00582
3713.43	0.00774
3709.31	0.00791
3705.19	0.00614
3701.07	0.00719
3696.96	0.00863
3692.84	0.00785
3688.72	0.00888
3684.6	0.00916
3680.48	0.01090
3676.36	0.01383
3672.24	0.01534
3668.12	0.01492
3664	0.01729
3659.88	0.01947
3655.76	0.02161
3651.64	0.02507
3647.53	0.02880
3643.41	0.03017
3639.29	0.03224
3635.17	0.03574
3631.05	0.03796
3626.93	0.04131
3622.81	0.04576
3618.69	0.04996
3614.57	0.05157
3610.45	0.05554
3606.33	0.06044
3602.21	0.06391
3598.1	0.06744
3593.98	0.07210
3589.86	0.07625
3585.74	0.08169
3581.62	0.08496
3577.5	0.08842
3573.38	0.09288
3569.26	0.09908
3565.14	0.10449
3561.02	0.10824
3556.9	0.11277
3552.78	0.11743
3548.67	0.12295
3544.55	0.12850
3540.43	0.13287
3536.31	0.13673
3532.19	0.14112
3528.07	0.14626
3523.95	0.15053
3519.83	0.15370
3515.71	0.15694
3511.59	0.16078
3507.47	0.16468
3503.35	0.16747
3499.24	0.17122
3495.12	0.17378
3491	0.17614
3486.88	0.17976
3482.76	0.18273
3478.64	0.18339
3474.52	0.18523
3470.4	0.18843
3466.28	0.19041
3462.16	0.19400
3458.04	0.19595
3453.92	0.19831
3449.81	0.19919
3445.69	0.20216
3441.57	0.20523
3437.45	0.20686
3433.33	0.20939
3429.21	0.21187
3425.09	0.21521
3420.97	0.21984
3416.85	0.22316
3412.73	0.22642
3408.61	0.23016
3404.49	0.23438
3400.38	0.23888
3396.26	0.24427
3392.14	0.24828
3388.02	0.25254
3383.9	0.25826
3379.78	0.26310
3375.66	0.26684
3371.54	0.27193
3367.42	0.27857
3363.3	0.28468
3359.18	0.29070
3355.06	0.29676
3350.95	0.30317
3346.83	0.31084
3342.71	0.31865
3338.59	0.32591
3334.47	0.33443
3330.35	0.34191
3326.23	0.35056
3322.11	0.35828
3317.99	0.36501
3313.87	0.37351
3309.75	0.38162
3305.63	0.38954
3301.52	0.39474
3297.4	0.40218
3293.28	0.40760
3289.16	0.41141
3285.04	0.41384
3280.92	0.41533
3276.8	0.41571
3272.68	0.41560
3268.56	0.41281
3264.44	0.40792
3260.32	0.40225
3256.2	0.39622
3252.09	0.38687
3247.97	0.37884
3243.85	0.37137
3239.73	0.36423
3235.61	0.35680
3231.49	0.34915
3227.37	0.34037
3223.25	0.33301
3219.13	0.32658
3215.01	0.31902
3210.89	0.31054
3206.77	0.30244
3202.65	0.29401
3198.54	0.28456
3194.42	0.27518
3190.3	0.26517
3186.18	0.25656
3182.06	0.24778
3177.94	0.23807
3173.82	0.22891
3169.7	0.22067
3165.58	0.21178
3161.46	0.20398
3157.34	0.19655
3153.22	0.19021
3149.11	0.18390
3144.99	0.17764
3140.87	0.17321
3136.75	0.16927
3132.63	0.16533
3128.51	0.16378
3124.39	0.16193
3120.27	0.16127
3116.15	0.16134
3112.03	0.16157
3107.91	0.16249
3103.79	0.16481
3099.68	0.16704
3095.56	0.16964
3091.44	0.17272
3087.32	0.17598
3083.2	0.17862
3079.08	0.18091
3074.96	0.18151
3070.84	0.18139
3066.72	0.18070
3062.6	0.17679
3058.48	0.17309
3054.36	0.16800
3050.25	0.16233
3046.13	0.15623
3042.01	0.14992
3037.89	0.14250
3033.77	0.13560
3029.65	0.12957
3025.53	0.12430
3021.41	0.11931
3017.29	0.11509
3013.17	0.11218
3009.05	0.10871
3004.93	0.10752
3000.82	0.10775
2996.7	0.11005
2992.58	0.11253
2988.46	0.11580
2984.34	0.11902
2980.22	0.11997
2976.1	0.11791
2971.98	0.11596
2967.86	0.11472
2963.74	0.11341
2959.62	0.11281
2955.5	0.11292
2951.39	0.11481
2947.27	0.11962
2943.15	0.12658
2939.03	0.13095
2934.91	0.13099
2930.79	0.12664
2926.67	0.11905
2922.55	0.10904
2918.43	0.09691
2914.31	0.08740
2910.19	0.08489
2906.07	0.08219
2901.96	0.07879
2897.84	0.07590
2893.72	0.07467
2889.6	0.07385
2885.48	0.07402
2881.36	0.07532
2877.24	0.07523
2873.12	0.07306
2869	0.06858
2864.88	0.06494
2860.76	0.06228
2856.64	0.05963
2852.53	0.05583
2848.41	0.04990
2844.29	0.05132
2840.17	0.05367
2836.05	0.05354
2831.93	0.05333
2827.81	0.05358
2823.69	0.05324
2819.57	0.05200
2815.45	0.05129
2811.33	0.05041
2807.21	0.04944
2803.1	0.04818
2798.98	0.04637
2794.86	0.04468
2790.74	0.04368
2786.62	0.04170
2782.5	0.04013
2778.38	0.03911
2774.26	0.03776
2770.14	0.03668
2766.02	0.03502
2761.9	0.03390
2757.78	0.03339
2753.67	0.03284
2749.55	0.03228
2745.43	0.03121
2741.31	0.02984
2737.19	0.02848
2733.07	0.02792
2728.95	0.02749
2724.83	0.02687
2720.71	0.02598
2716.59	0.02581
2712.47	0.02538
2708.35	0.02475
2704.24	0.02456
2700.12	0.02365
2696	0.02352
2691.88	0.02344
2687.76	0.02323
2683.64	0.02285
2679.52	0.02235
2675.4	0.02207
2671.28	0.02190
2667.16	0.02130
2663.04	0.02120
2658.92	0.02128
2654.81	0.02106
2650.69	0.02052
2646.57	0.02019
2642.45	0.01981
2638.33	0.02002
2634.21	0.01934
2630.09	0.01986
2625.97	0.02001
2621.85	0.01966
2617.73	0.01888
2613.61	0.01812
2609.49	0.01825
2605.38	0.01807
2601.26	0.01736
2597.14	0.01680
2593.02	0.01623
2588.9	0.01592
2584.78	0.01549
2580.66	0.01539
2576.54	0.01456
2572.42	0.01387
2568.3	0.01375
2564.18	0.01397
2560.06	0.01353
2555.95	0.01309
2551.83	0.01236
2547.71	0.01206
2543.59	0.01149
2539.47	0.01240
2535.35	0.01164
2531.23	0.01248
2527.11	0.01219
2522.99	0.01229
2518.87	0.01221
2514.75	0.01220
2510.63	0.01222
2506.52	0.01159
2502.4	0.01182
2498.28	0.01168
2494.16	0.01106
2490.04	0.01063
2485.92	0.01050
2481.8	0.01145
2477.68	0.01155
2473.56	0.01113
2469.44	0.01115
2465.32	0.01072
2461.2	0.01069
2457.09	0.01045
2452.97	0.01049
2448.85	0.00953
2444.73	0.00994
2440.61	0.01002
2436.49	0.00976
2432.37	0.00967
2428.25	0.00935
2424.13	0.00989
2420.01	0.00956
2415.89	0.00906
2411.77	0.00951
2407.66	0.00904
2403.54	0.00893
2399.42	0.00865
2395.3	0.00882
2391.18	0.00879
2387.06	0.00915
2382.94	0.00906
2378.82	0.00854
2374.7	0.00784
2370.58	0.00690
2366.46	0.00573
2362.34	0.00432
2358.23	0.00469
2354.11	0.00642
2349.99	0.00754
2345.87	0.00641
2341.75	0.00831
2337.63	0.00116
2333.51	0.01253
2329.39	0.01068
2325.27	0.00461
2321.15	0.00331
2317.03	0.00561
2312.91	0.00716
2308.8	0.00735
2304.68	0.00877
2300.56	0.00944
2296.44	0.01018
2292.32	0.01006
2288.2	0.00982
2284.08	0.00990
2279.96	0.00957
2275.84	0.00955
2271.72	0.01022
2267.6	0.01087
2263.48	0.00960
2259.36	0.00996
2255.25	0.00919
2251.13	0.00965
2247.01	0.00967
2242.89	0.00893
2238.77	0.00848
2234.65	0.00951
2230.53	0.00849
2226.41	0.00815
2222.29	0.00854
2218.17	0.00951
2214.05	0.00791
2209.93	0.00859
2205.82	0.00980
2201.7	0.00951
2197.58	0.00997
2193.46	0.01059
2189.34	0.01151
2185.22	0.01070
2181.1	0.00963
2176.98	0.00873
2172.86	0.00937
2168.74	0.01119
2164.62	0.00968
2160.5	0.00843
2156.39	0.00648
2152.27	0.00860
2148.15	0.00846
2144.03	0.00699
2139.91	0.00882
2135.79	0.00746
2131.67	0.00794
2127.55	0.00978
2123.43	0.01082
2119.31	0.01006
2115.19	0.00994
2111.07	0.01124
2106.96	0.01098
2102.84	0.01126
2098.72	0.01059
2094.6	0.00938
2090.48	0.00958
2086.36	0.00999
2082.24	0.00938
2078.12	0.00969
2074	0.00916
2069.88	0.00964
2065.76	0.01058
2061.64	0.00922
2057.53	0.00868
2053.41	0.00836
2049.29	0.01016
2045.17	0.00836
2041.05	0.00723
2036.93	0.00614
2032.81	0.00501
2028.69	0.00594
2024.57	0.00609
2020.45	0.00663
2016.33	0.00579
2012.21	0.00783
2008.1	0.00898
2003.98	0.00705
1999.86	0.00763
1995.74	0.00721
1991.62	0.00697
1987.5	0.00634
1983.38	0.00622
1979.26	0.00774
1975.14	0.00687
1971.02	0.00568
1966.9	0.00591
1962.78	0.00494
1958.67	0.00515
1954.55	0.00627
1950.43	0.00535
1946.31	0.00486
1942.19	0.00593
1938.07	0.00619
1933.95	0.00665
1929.83	0.00636
1925.71	0.00664
1921.59	0.00738
1917.47	0.00684
1913.35	0.00689
1909.24	0.00750
1905.12	0.00732
1901	0.00746
1896.88	0.00756
1892.76	0.00797
1888.64	0.00739
1884.52	0.00764
1880.4	0.00776
1876.28	0.00735
1872.16	0.00750
1868.04	0.00751
1863.92	0.00730
1859.81	0.00742
1855.69	0.00687
1851.57	0.00739
1847.45	0.00790
1843.33	0.00806
1839.21	0.00797
1835.09	0.00815
1830.97	0.00873
1826.85	0.00920
1822.73	0.00894
1818.61	0.00901
1814.49	0.00932
1810.38	0.00980
1806.26	0.01012
1802.14	0.01012
1798.02	0.01070
1793.9	0.01152
1789.78	0.01181
1785.66	0.01201
1781.54	0.01269
1777.42	0.01326
1773.3	0.01340
1769.18	0.01379
1765.06	0.01447
1760.95	0.01494
1756.83	0.01544
1752.71	0.01635
1748.59	0.01760
1744.47	0.01819
1740.35	0.01907
1736.23	0.02034
1732.11	0.02200
1727.99	0.02361
1723.87	0.02573
1719.75	0.02897
1715.63	0.03571
1711.52	0.04478
1707.4	0.05834
1703.28	0.07853
1699.16	0.10749
1695.04	0.13937
1690.92	0.16585
1686.8	0.19275
1682.68	0.23164
1678.56	0.26149
1674.44	0.29669
1670.32	0.33597
1666.2	0.37784
1662.09	0.41904
1657.97	0.45770
1653.85	0.49653
1649.73	0.54027
1645.61	0.56861
1641.49	0.58630
1637.37	0.59346
1633.25	0.58853
1629.13	0.56684
1625.01	0.52760
1620.89	0.47695
1616.77	0.42479
1612.66	0.37074
1608.54	0.31798
1604.42	0.27094
1600.3	0.24052
1596.18	0.22285
1592.06	0.20901
1587.94	0.20129
1583.82	0.20312
1579.7	0.21220
1575.58	0.23149
1571.46	0.25370
1567.34	0.28390
1563.23	0.31099
1559.11	0.34668
1554.99	0.38903
1550.87	0.41841
1546.75	0.44658
1542.63	0.47177
1538.51	0.50194
1534.39	0.51618
1530.27	0.52850
1526.15	0.53421
1522.03	0.54009
1517.91	0.55545
1513.8	0.56551
1509.68	0.55026
1505.56	0.50348
1501.44	0.46212
1497.32	0.41085
1493.2	0.36009
1489.08	0.31275
1484.96	0.27221
1480.84	0.24573
1476.72	0.22793
1472.6	0.21656
1468.48	0.21266
1464.37	0.21646
1460.25	0.22534
1456.13	0.24117
1452.01	0.24807
1447.89	0.24252
1443.77	0.22678
1439.65	0.20876
1435.53	0.19185
1431.41	0.18294
1427.29	0.18232
1423.17	0.19005
1419.05	0.20349
1414.94	0.21692
1410.82	0.22251
1406.7	0.21943
1402.58	0.20911
1398.46	0.20043
1394.34	0.19964
1390.22	0.20421
1386.1	0.21022
1381.98	0.21371
1377.86	0.21275
1373.74	0.20629
1369.62	0.19341
1365.5	0.17741
1361.39	0.16259
1357.27	0.15399
1353.15	0.15148
1349.03	0.15528
1344.91	0.16423
1340.79	0.17564
1336.67	0.18531
1332.55	0.18693
1328.43	0.18043
1324.31	0.16979
1320.19	0.16093
1316.07	0.15728
1311.96	0.15803
1307.84	0.16075
1303.72	0.16435
1299.6	0.16825
1295.48	0.17231
1291.36	0.17611
1287.24	0.17933
1283.12	0.18318
1279	0.18852
1274.88	0.19667
1270.76	0.20644
1266.64	0.21608
1262.53	0.22531
1258.41	0.23538
1254.29	0.24760
1250.17	0.26096
1246.05	0.27474
1241.93	0.28756
1237.81	0.29633
1233.69	0.29896
1229.57	0.29305
1225.45	0.27815
1221.33	0.25609
1217.21	0.23022
1213.1	0.20500
1208.98	0.18320
1204.86	0.16482
1200.74	0.14896
1196.62	0.13699
1192.5	0.12978
1188.38	0.12620
1184.26	0.12606
1180.14	0.13045
1176.02	0.13888
1171.9	0.14505
1167.78	0.14632
1163.67	0.14437
1159.55	0.14009
1155.43	0.13432
1151.31	0.12748
1147.19	0.12025
1143.07	0.11404
1138.95	0.10935
1134.83	0.10650
1130.71	0.10490
1126.59	0.10422
1122.47	0.10382
1118.35	0.10361
1114.24	0.10318
1110.12	0.10280
1106	0.10343
1101.88	0.10199
1097.76	0.09798
1093.64	0.09607
1089.52	0.09905
1085.4	0.10603
1081.28	0.11479
1077.16	0.12209
1073.04	0.12705
1068.92	0.12866
1064.81	0.12887
1060.69	0.13054
1056.57	0.13283
1052.45	0.13072
1048.33	0.12391
1044.21	0.11570
1040.09	0.10826
1035.97	0.10377
1031.85	0.10204
1027.73	0.10114
1023.61	0.10102
1019.49	0.10806
1015.38	0.11653
1011.26	0.11406
1007.14	0.10152
1003.02	0.08779
998.899	0.07748
994.78	0.06984
990.66	0.06382
986.541	0.05977
982.422	0.05751
978.303	0.05692
974.184	0.05710
970.065	0.05780
965.945	0.05903
961.826	0.06137
957.707	0.06363
953.588	0.06575
949.469	0.06739
945.35	0.06800
941.23	0.06694
937.111	0.06481
932.992	0.06237
928.873	0.06023
924.754	0.05802
920.635	0.05588
916.515	0.05413
912.396	0.05261
908.277	0.05116
904.158	0.05047
900.039	0.04987
895.92	0.04941
891.8	0.04958
887.681	0.04988
883.562	0.05043
879.443	0.05105
875.324	0.05201
871.205	0.05339
867.085	0.05562
862.966	0.05895
858.847	0.06279
854.728	0.06589
850.609	0.06797
846.49	0.06846
842.37	0.06939
838.251	0.07231
834.132	0.07531
830.013	0.07707
825.894	0.07753
821.774	0.07712
817.655	0.07745
813.536	0.07925
809.417	0.08161
805.298	0.08370
801.179	0.08508
797.059	0.08587
792.94	0.08727
788.821	0.08896
784.702	0.09110
780.583	0.09344
776.464	0.09591
772.344	0.09810
768.225	0.10052
764.106	0.10322
759.987	0.10610
755.868	0.10948
751.749	0.11276
747.629	0.11621
743.51	0.11965
739.391	0.12264
735.272	0.12547
731.153	0.12809
727.034	0.13092
722.914	0.13395
718.795	0.13673
714.676	0.13967
710.557	0.14269
706.438	0.14622
702.319	0.14978
698.199	0.15289
694.08	0.15523
689.961	0.15778
685.842	0.16037
681.723	0.16348
677.604	0.16573
673.484	0.16779
669.365	0.17079
665.246	0.17224
661.127	0.17386
657.008	0.17495
652.889	0.17523
648.769	0.17548
644.65	0.17582
640.531	0.17607
636.412	0.17601
632.293	0.17587
628.173	0.17559
624.054	0.17515
619.935	0.17491
615.816	0.17496
611.697	0.17486
607.578	0.17526
603.458	0.17486
599.339	0.17551
595.22	0.17683
591.101	0.17753
586.982	0.17838
582.863	0.18033
578.743	0.18252
574.624	0.18539
570.505	0.18843
566.386	0.19098
562.267	0.19329
558.148	0.19645
554.028	0.19970
549.909	0.20275
545.79	0.20488
541.671	0.20452
537.552	0.20487
533.433	0.20404
529.313	0.20263
525.194	0.20163
521.075	0.20068
516.956	0.19991
512.837	0.20011
508.718	0.19885
504.598	0.19751
500.479	0.19623
496.36	0.19551
492.241	0.19481
488.122	0.19372
484.003	0.19246
479.883	0.18974
475.764	0.18659
471.645	0.18401
467.526	0.18123
463.407	0.17809
459.288	0.17539
455.168	0.17226
451.049	0.17014
446.93	0.16845
442.811	0.16677
438.692	0.16477
434.572	0.16223
430.453	0.15950
426.334	0.15851
422.215	0.15765
418.096	0.15686
413.977	0.15514
409.857	0.15436
405.738	0.15290
401.619	0.14981
399.56	0.14756