File: FTIR/db-LASE IR data/AgNPr-LASE lasered at 55C/Silk AgNPr film 55C 8.26.22.dpt
3997.65	-0.00451
3993.54	-0.00461
3989.42	-0.00348
3985.3	-0.00331
3981.18	-0.00429
3977.06	-0.00388
3972.94	-0.00279
3968.82	-0.00327
3964.7	-0.00355
3960.58	-0.00416
3956.46	-0.00350
3952.34	-0.00356
3948.22	-0.00485
3944.11	-0.00551
3939.99	-0.00414
3935.87	-0.00470
3931.75	-0.00382
3927.63	-0.00291
3923.51	-0.00254
3919.39	-0.00293
3915.27	-0.00366
3911.15	-0.00261
3907.03	-0.00319
3902.91	-0.00391
3898.79	-0.00306
3894.68	-0.00311
3890.56	-0.00273
3886.44	-0.00348
3882.32	-0.00383
3878.2	-0.00357
3874.08	-0.00334
3869.96	-0.00423
3865.84	-0.00342
3861.72	-0.00301
3857.6	-0.00383
3853.48	-0.00240
3849.36	-0.00255
3845.25	-0.00261
3841.13	-0.00336
3837.01	-0.00542
3832.89	-0.00485
3828.77	-0.00290
3824.65	-0.00344
3820.53	-0.00252
3816.41	-0.00242
3812.29	-0.00388
3808.17	-0.00408
3804.05	-0.00370
3799.93	-0.00415
3795.82	-0.00341
3791.7	-0.00343
3787.58	-0.00288
3783.46	-0.00349
3779.34	-0.00366
3775.22	-0.00233
3771.1	-0.00240
3766.98	-0.00282
3762.86	-0.00275
3758.74	-0.00191
3754.62	-0.00104
3750.5	-0.00099
3746.39	-0.00183
3742.27	-0.00168
3738.15	0.00084
3734.03	0.00149
3729.91	-0.00188
3725.79	-0.00152
3721.67	0.00016
3717.55	-0.00215
3713.43	-0.00231
3709.31	-0.00024
3705.19	-0.00059
3701.07	-0.00054
3696.96	-0.00042
3692.84	-0.00149
3688.72	-0.00001
3684.6	0.00058
3680.48	0.00078
3676.36	0.00199
3672.24	0.00341
3668.12	0.00406
3664	0.00509
3659.88	0.00622
3655.76	0.01012
3651.64	0.01140
3647.53	0.01250
3643.41	0.01462
3639.29	0.01543
3635.17	0.01871
3631.05	0.02123
3626.93	0.02488
3622.81	0.02669
3618.69	0.03011
3614.57	0.03188
3610.45	0.03362
3606.33	0.03724
3602.21	0.03897
3598.1	0.04156
3593.98	0.04385
3589.86	0.04707
3585.74	0.05116
3581.62	0.05283
3577.5	0.05527
3573.38	0.05973
3569.26	0.06251
3565.14	0.06582
3561.02	0.06883
3556.9	0.07262
3552.78	0.07480
3548.67	0.07774
3544.55	0.08183
3540.43	0.08411
3536.31	0.08803
3532.19	0.09095
3528.07	0.09289
3523.95	0.09644
3519.83	0.09835
3515.71	0.10096
3511.59	0.10400
3507.47	0.10633
3503.35	0.10858
3499.24	0.11118
3495.12	0.11177
3491	0.11371
3486.88	0.11619
3482.76	0.11763
3478.64	0.11964
3474.52	0.12133
3470.4	0.12316
3466.28	0.12454
3462.16	0.12656
3458.04	0.12689
3453.92	0.12868
3449.81	0.12948
3445.69	0.13098
3441.57	0.13302
3437.45	0.13470
3433.33	0.13649
3429.21	0.13737
3425.09	0.13917
3420.97	0.14192
3416.85	0.14494
3412.73	0.14786
3408.61	0.15079
3404.49	0.15406
3400.38	0.15640
3396.26	0.15890
3392.14	0.16207
3388.02	0.16412
3383.9	0.16785
3379.78	0.17136
3375.66	0.17444
3371.54	0.17728
3367.42	0.18058
3363.3	0.18458
3359.18	0.18951
3355.06	0.19314
3350.95	0.19660
3346.83	0.20125
3342.71	0.20542
3338.59	0.21041
3334.47	0.21428
3330.35	0.21845
3326.23	0.22400
3322.11	0.22874
3317.99	0.23375
3313.87	0.23868
3309.75	0.24348
3305.63	0.24797
3301.52	0.25139
3297.4	0.25480
3293.28	0.25896
3289.16	0.26068
3285.04	0.26269
3280.92	0.26225
3276.8	0.26271
3272.68	0.26269
3268.56	0.26004
3264.44	0.25689
3260.32	0.25330
3256.2	0.24880
3252.09	0.24412
3247.97	0.23989
3243.85	0.23493
3239.73	0.22988
3235.61	0.22605
3231.49	0.22095
3227.37	0.21607
3223.25	0.21211
3219.13	0.20756
3215.01	0.20260
3210.89	0.19751
3206.77	0.19271
3202.65	0.18719
3198.54	0.18165
3194.42	0.17675
3190.3	0.17032
3186.18	0.16491
3182.06	0.15923
3177.94	0.15340
3173.82	0.14706
3169.7	0.14171
3165.58	0.13709
3161.46	0.13117
3157.34	0.12589
3153.22	0.12184
3149.11	0.11842
3144.99	0.11467
3140.87	0.11127
3136.75	0.10904
3132.63	0.10715
3128.51	0.10575
3124.39	0.10387
3120.27	0.10411
3116.15	0.10442
3112.03	0.10465
3107.91	0.10577
3103.79	0.10565
3099.68	0.10714
3095.56	0.10852
3091.44	0.11165
3087.32	0.11478
3083.2	0.11574
3079.08	0.11646
3074.96	0.11613
3070.84	0.11653
3066.72	0.11596
3062.6	0.11366
3058.48	0.11153
3054.36	0.10859
3050.25	0.10506
3046.13	0.09989
3042.01	0.09581
3037.89	0.09139
3033.77	0.08761
3029.65	0.08416
3025.53	0.08054
3021.41	0.07757
3017.29	0.07478
3013.17	0.07235
3009.05	0.07008
3004.93	0.06898
3000.82	0.06935
2996.7	0.07089
2992.58	0.07291
2988.46	0.07480
2984.34	0.07702
2980.22	0.07829
2976.1	0.07623
2971.98	0.07471
2967.86	0.07409
2963.74	0.07293
2959.62	0.07252
2955.5	0.07200
2951.39	0.07382
2947.27	0.07767
2943.15	0.08230
2939.03	0.08513
2934.91	0.08531
2930.79	0.08187
2926.67	0.07562
2922.55	0.06627
2918.43	0.05329
2914.31	0.04473
2910.19	0.04849
2906.07	0.04952
2901.96	0.04805
2897.84	0.04702
2893.72	0.04612
2889.6	0.04558
2885.48	0.04612
2881.36	0.04713
2877.24	0.04688
2873.12	0.04514
2869	0.04288
2864.88	0.04042
2860.76	0.03863
2856.64	0.03693
2852.53	0.03164
2848.41	0.02347
2844.29	0.02698
2840.17	0.03126
2836.05	0.03246
2831.93	0.03235
2827.81	0.03247
2823.69	0.03199
2819.57	0.03170
2815.45	0.03114
2811.33	0.03059
2807.21	0.02987
2803.1	0.02886
2798.98	0.02763
2794.86	0.02702
2790.74	0.02659
2786.62	0.02522
2782.5	0.02361
2778.38	0.02290
2774.26	0.02216
2770.14	0.02172
2766.02	0.02019
2761.9	0.01925
2757.78	0.01905
2753.67	0.01838
2749.55	0.01768
2745.43	0.01749
2741.31	0.01672
2737.19	0.01601
2733.07	0.01537
2728.95	0.01515
2724.83	0.01511
2720.71	0.01446
2716.59	0.01411
2712.47	0.01350
2708.35	0.01362
2704.24	0.01332
2700.12	0.01283
2696	0.01290
2691.88	0.01221
2687.76	0.01222
2683.64	0.01268
2679.52	0.01209
2675.4	0.01206
2671.28	0.01129
2667.16	0.01108
2663.04	0.01148
2658.92	0.01134
2654.81	0.01137
2650.69	0.01120
2646.57	0.01076
2642.45	0.01046
2638.33	0.01051
2634.21	0.00966
2630.09	0.00991
2625.97	0.01043
2621.85	0.00948
2617.73	0.00993
2613.61	0.00965
2609.49	0.01017
2605.38	0.00904
2601.26	0.00868
2597.14	0.00806
2593.02	0.00814
2588.9	0.00879
2584.78	0.00806
2580.66	0.00697
2576.54	0.00702
2572.42	0.00706
2568.3	0.00624
2564.18	0.00615
2560.06	0.00577
2555.95	0.00558
2551.83	0.00544
2547.71	0.00525
2543.59	0.00550
2539.47	0.00547
2535.35	0.00574
2531.23	0.00639
2527.11	0.00568
2522.99	0.00523
2518.87	0.00511
2514.75	0.00549
2510.63	0.00508
2506.52	0.00465
2502.4	0.00404
2498.28	0.00425
2494.16	0.00460
2490.04	0.00497
2485.92	0.00446
2481.8	0.00438
2477.68	0.00411
2473.56	0.00408
2469.44	0.00416
2465.32	0.00376
2461.2	0.00383
2457.09	0.00439
2452.97	0.00400
2448.85	0.00365
2444.73	0.00413
2440.61	0.00448
2436.49	0.00434
2432.37	0.00360
2428.25	0.00407
2424.13	0.00428
2420.01	0.00397
2415.89	0.00304
2411.77	0.00270
2407.66	0.00315
2403.54	0.00267
2399.42	0.00351
2395.3	0.00316
2391.18	0.00311
2387.06	0.00323
2382.94	0.00311
2378.82	0.00407
2374.7	0.00561
2370.58	0.00743
2366.46	0.00853
2362.34	0.00848
2358.23	0.00919
2354.11	0.00849
2349.99	0.00644
2345.87	0.00624
2341.75	0.00644
2337.63	0.00367
2333.51	0.01112
2329.39	0.01056
2325.27	0.00418
2321.15	0.00302
2317.03	0.00343
2312.91	0.00416
2308.8	0.00418
2304.68	0.00472
2300.56	0.00404
2296.44	0.00422
2292.32	0.00469
2288.2	0.00495
2284.08	0.00529
2279.96	0.00528
2275.84	0.00490
2271.72	0.00429
2267.6	0.00526
2263.48	0.00437
2259.36	0.00353
2255.25	0.00319
2251.13	0.00465
2247.01	0.00518
2242.89	0.00414
2238.77	0.00364
2234.65	0.00356
2230.53	0.00461
2226.41	0.00454
2222.29	0.00349
2218.17	0.00367
2214.05	0.00461
2209.93	0.00344
2205.82	0.00401
2201.7	0.00369
2197.58	0.00439
2193.46	0.00424
2189.34	0.00397
2185.22	0.00386
2181.1	0.00371
2176.98	0.00240
2172.86	0.00401
2168.74	0.00430
2164.62	0.00486
2160.5	0.00437
2156.39	0.00280
2152.27	0.00191
2148.15	0.00244
2144.03	0.00392
2139.91	0.00425
2135.79	0.00324
2131.67	0.00379
2127.55	0.00483
2123.43	0.00404
2119.31	0.00453
2115.19	0.00502
2111.07	0.00537
2106.96	0.00588
2102.84	0.00570
2098.72	0.00660
2094.6	0.00529
2090.48	0.00395
2086.36	0.00480
2082.24	0.00477
2078.12	0.00464
2074	0.00468
2069.88	0.00435
2065.76	0.00467
2061.64	0.00435
2057.53	0.00352
2053.41	0.00458
2049.29	0.00574
2045.17	0.00476
2041.05	0.00414
2036.93	0.00474
2032.81	0.00379
2028.69	0.00303
2024.57	0.00405
2020.45	0.00268
2016.33	0.00207
2012.21	0.00319
2008.1	0.00363
2003.98	0.00413
1999.86	0.00262
1995.74	0.00357
1991.62	0.00263
1987.5	0.00278
1983.38	0.00338
1979.26	0.00513
1975.14	0.00216
1971.02	0.00171
1966.9	0.00164
1962.78	0.00125
1958.67	0.00157
1954.55	0.00181
1950.43	0.00264
1946.31	0.00294
1942.19	0.00219
1938.07	0.00246
1933.95	0.00328
1929.83	0.00235
1925.71	0.00169
1921.59	0.00227
1917.47	0.00369
1913.35	0.00274
1909.24	0.00293
1905.12	0.00369
1901	0.00343
1896.88	0.00329
1892.76	0.00365
1888.64	0.00422
1884.52	0.00371
1880.4	0.00306
1876.28	0.00320
1872.16	0.00317
1868.04	0.00367
1863.92	0.00420
1859.81	0.00401
1855.69	0.00368
1851.57	0.00347
1847.45	0.00385
1843.33	0.00467
1839.21	0.00489
1835.09	0.00490
1830.97	0.00493
1826.85	0.00485
1822.73	0.00534
1818.61	0.00488
1814.49	0.00504
1810.38	0.00526
1806.26	0.00594
1802.14	0.00654
1798.02	0.00640
1793.9	0.00665
1789.78	0.00727
1785.66	0.00727
1781.54	0.00778
1777.42	0.00793
1773.3	0.00821
1769.18	0.00876
1765.06	0.00912
1760.95	0.00961
1756.83	0.00989
1752.71	0.01048
1748.59	0.01140
1744.47	0.01207
1740.35	0.01292
1736.23	0.01369
1732.11	0.01520
1727.99	0.01638
1723.87	0.01781
1719.75	0.01978
1715.63	0.02472
1711.52	0.03138
1707.4	0.04072
1703.28	0.05391
1699.16	0.07227
1695.04	0.09333
1690.92	0.11043
1686.8	0.12750
1682.68	0.15112
1678.56	0.16908
1674.44	0.19019
1670.32	0.21268
1666.2	0.23617
1662.09	0.25883
1657.97	0.27955
1653.85	0.29947
1649.73	0.32110
1645.61	0.33484
1641.49	0.34267
1637.37	0.34558
1633.25	0.34266
1629.13	0.33179
1625.01	0.31285
1620.89	0.28694
1616.77	0.25875
1612.66	0.22954
1608.54	0.19981
1604.42	0.17277
1600.3	0.15521
1596.18	0.14460
1592.06	0.13665
1587.94	0.13232
1583.82	0.13306
1579.7	0.13804
1575.58	0.14934
1571.46	0.16232
1567.34	0.18017
1563.23	0.19604
1559.11	0.21578
1554.99	0.23980
1550.87	0.25588
1546.75	0.27050
1542.63	0.28312
1538.51	0.29820
1534.39	0.30552
1530.27	0.31218
1526.15	0.31506
1522.03	0.31770
1517.91	0.32542
1513.8	0.32983
1509.68	0.32230
1505.56	0.29910
1501.44	0.27771
1497.32	0.25096
1493.2	0.22319
1489.08	0.19595
1484.96	0.17165
1480.84	0.15493
1476.72	0.14355
1472.6	0.13700
1468.48	0.13578
1464.37	0.13817
1460.25	0.14352
1456.13	0.15344
1452.01	0.15747
1447.89	0.15430
1443.77	0.14542
1439.65	0.13499
1435.53	0.12493
1431.41	0.11922
1427.29	0.11896
1423.17	0.12378
1419.05	0.13189
1414.94	0.14044
1410.82	0.14409
1406.7	0.14242
1402.58	0.13676
1398.46	0.13175
1394.34	0.13119
1390.22	0.13393
1386.1	0.13726
1381.98	0.13860
1377.86	0.13776
1373.74	0.13341
1369.62	0.12547
1365.5	0.11577
1361.39	0.10699
1357.27	0.10154
1353.15	0.09964
1349.03	0.10175
1344.91	0.10738
1340.79	0.11430
1336.67	0.12005
1332.55	0.12115
1328.43	0.11733
1324.31	0.11092
1320.19	0.10580
1316.07	0.10369
1311.96	0.10406
1307.84	0.10564
1303.72	0.10795
1299.6	0.11034
1295.48	0.11293
1291.36	0.11531
1287.24	0.11723
1283.12	0.11954
1279	0.12292
1274.88	0.12773
1270.76	0.13364
1266.64	0.13930
1262.53	0.14456
1258.41	0.15101
1254.29	0.15833
1250.17	0.16613
1246.05	0.17406
1241.93	0.18115
1237.81	0.18616
1233.69	0.18758
1229.57	0.18425
1225.45	0.17574
1221.33	0.16302
1217.21	0.14791
1213.1	0.13228
1208.98	0.11889
1204.86	0.10763
1200.74	0.09787
1196.62	0.09031
1192.5	0.08534
1188.38	0.08316
1184.26	0.08336
1180.14	0.08617
1176.02	0.09146
1171.9	0.09568
1167.78	0.09654
1163.67	0.09540
1159.55	0.09281
1155.43	0.08920
1151.31	0.08470
1147.19	0.08035
1143.07	0.07651
1138.95	0.07365
1134.83	0.07160
1130.71	0.07058
1126.59	0.07028
1122.47	0.07030
1118.35	0.07013
1114.24	0.06970
1110.12	0.06963
1106	0.07007
1101.88	0.06939
1097.76	0.06718
1093.64	0.06599
1089.52	0.06757
1085.4	0.07197
1081.28	0.07784
1077.16	0.08260
1073.04	0.08565
1068.92	0.08699
1064.81	0.08733
1060.69	0.08802
1056.57	0.08928
1052.45	0.08803
1048.33	0.08375
1044.21	0.07811
1040.09	0.07350
1035.97	0.07061
1031.85	0.06934
1027.73	0.06841
1023.61	0.06865
1019.49	0.07296
1015.38	0.07806
1011.26	0.07646
1007.14	0.06840
1003.02	0.05974
998.899	0.05296
994.78	0.04803
990.66	0.04425
986.541	0.04147
982.422	0.04049
978.303	0.04009
974.184	0.03979
970.065	0.04006
965.945	0.04117
961.826	0.04263
957.707	0.04381
953.588	0.04526
949.469	0.04631
945.35	0.04664
941.23	0.04610
937.111	0.04487
932.992	0.04315
928.873	0.04165
924.754	0.04021
920.635	0.03894
916.515	0.03764
912.396	0.03665
908.277	0.03576
904.158	0.03515
900.039	0.03507
895.92	0.03473
891.8	0.03479
887.681	0.03497
883.562	0.03539
879.443	0.03579
875.324	0.03649
871.205	0.03732
867.085	0.03875
862.966	0.04098
858.847	0.04367
854.728	0.04602
850.609	0.04709
846.49	0.04760
842.37	0.04839
838.251	0.05021
834.132	0.05238
830.013	0.05356
825.894	0.05366
821.774	0.05338
817.655	0.05368
813.536	0.05496
809.417	0.05643
805.298	0.05778
801.179	0.05888
797.059	0.05982
792.94	0.06071
788.821	0.06181
784.702	0.06331
780.583	0.06495
776.464	0.06653
772.344	0.06801
768.225	0.06985
764.106	0.07164
759.987	0.07373
755.868	0.07599
751.749	0.07849
747.629	0.08057
743.51	0.08255
739.391	0.08451
735.272	0.08682
731.153	0.08879
727.034	0.09107
722.914	0.09305
718.795	0.09496
714.676	0.09706
710.557	0.09898
706.438	0.10128
702.319	0.10407
698.199	0.10602
694.08	0.10761
689.961	0.10977
685.842	0.11180
681.723	0.11340
677.604	0.11519
673.484	0.11684
669.365	0.12136
665.246	0.11999
661.127	0.12048
657.008	0.12140
652.889	0.12194
648.769	0.12245
644.65	0.12253
640.531	0.12209
636.412	0.12270
632.293	0.12275
628.173	0.12235
624.054	0.12215
619.935	0.12225
615.816	0.12282
611.697	0.12262
607.578	0.12312
603.458	0.12391
599.339	0.12453
595.22	0.12491
591.101	0.12563
586.982	0.12650
582.863	0.12764
578.743	0.12937
574.624	0.13134
570.505	0.13301
566.386	0.13477
562.267	0.13662
558.148	0.13904
554.028	0.14148
549.909	0.14357
545.79	0.14487
541.671	0.14533
537.552	0.14492
533.433	0.14452
529.313	0.14401
525.194	0.14339
521.075	0.14336
516.956	0.14401
512.837	0.14382
508.718	0.14343
504.598	0.14257
500.479	0.14155
496.36	0.14080
492.241	0.14052
488.122	0.14003
484.003	0.13886
479.883	0.13722
475.764	0.13557
471.645	0.13421
467.526	0.13274
463.407	0.13129
459.288	0.12935
455.168	0.12766
451.049	0.12558
446.93	0.12395
442.811	0.12387
438.692	0.12211
434.572	0.12076
430.453	0.11944
426.334	0.11898
422.215	0.11811
418.096	0.11841
413.977	0.11761
409.857	0.11695
405.738	0.11652
401.619	0.11483
399.56	0.11456