File: FTIR/db-LASE IR data/AgNPr-LASE lasered at 55C/Silk AgNPr film 55C 2 8.26.22.dpt
3997.65	0.00266
3993.54	0.00319
3989.42	0.00353
3985.3	0.00278
3981.18	0.00321
3977.06	0.00395
3972.94	0.00277
3968.82	0.00280
3964.7	0.00309
3960.58	0.00354
3956.46	0.00234
3952.34	0.00160
3948.22	0.00152
3944.11	0.00087
3939.99	0.00140
3935.87	0.00226
3931.75	0.00293
3927.63	0.00261
3923.51	0.00285
3919.39	0.00363
3915.27	0.00218
3911.15	0.00224
3907.03	0.00202
3902.91	0.00278
3898.79	0.00295
3894.68	0.00286
3890.56	0.00302
3886.44	0.00183
3882.32	0.00271
3878.2	0.00280
3874.08	0.00281
3869.96	0.00044
3865.84	0.00192
3861.72	0.00412
3857.6	0.00254
3853.48	0.00381
3849.36	0.00369
3845.25	0.00303
3841.13	0.00253
3837.01	0.00046
3832.89	0.00091
3828.77	0.00178
3824.65	0.00160
3820.53	0.00144
3816.41	0.00076
3812.29	0.00066
3808.17	0.00147
3804.05	0.00065
3799.93	-0.00017
3795.82	0.00164
3791.7	0.00227
3787.58	0.00261
3783.46	0.00141
3779.34	0.00189
3775.22	0.00245
3771.1	0.00304
3766.98	0.00340
3762.86	0.00242
3758.74	0.00309
3754.62	0.00436
3750.5	0.00303
3746.39	0.00407
3742.27	0.00444
3738.15	0.00573
3734.03	0.00590
3729.91	0.00366
3725.79	0.00421
3721.67	0.00520
3717.55	0.00358
3713.43	0.00378
3709.31	0.00481
3705.19	0.00512
3701.07	0.00539
3696.96	0.00651
3692.84	0.00647
3688.72	0.00811
3684.6	0.00914
3680.48	0.01066
3676.36	0.01294
3672.24	0.01395
3668.12	0.01652
3664	0.02028
3659.88	0.02274
3655.76	0.02661
3651.64	0.03021
3647.53	0.03626
3643.41	0.04013
3639.29	0.04325
3635.17	0.04836
3631.05	0.05274
3626.93	0.05886
3622.81	0.06315
3618.69	0.06823
3614.57	0.07437
3610.45	0.07902
3606.33	0.08425
3602.21	0.08921
3598.1	0.09597
3593.98	0.10198
3589.86	0.10804
3585.74	0.11595
3581.62	0.11974
3577.5	0.12732
3573.38	0.13499
3569.26	0.14174
3565.14	0.14936
3561.02	0.15608
3556.9	0.16300
3552.78	0.16927
3548.67	0.17661
3544.55	0.18344
3540.43	0.18964
3536.31	0.19739
3532.19	0.20400
3528.07	0.20861
3523.95	0.21634
3519.83	0.22187
3515.71	0.22689
3511.59	0.23338
3507.47	0.23936
3503.35	0.24378
3499.24	0.24828
3495.12	0.25160
3491	0.25667
3486.88	0.26120
3482.76	0.26419
3478.64	0.26851
3474.52	0.27191
3470.4	0.27485
3466.28	0.27712
3462.16	0.28137
3458.04	0.28425
3453.92	0.28845
3449.81	0.29126
3445.69	0.29348
3441.57	0.29740
3437.45	0.30090
3433.33	0.30421
3429.21	0.30933
3425.09	0.31509
3420.97	0.31995
3416.85	0.32604
3412.73	0.33258
3408.61	0.33846
3404.49	0.34347
3400.38	0.34946
3396.26	0.35715
3392.14	0.36308
3388.02	0.36921
3383.9	0.37667
3379.78	0.38441
3375.66	0.39134
3371.54	0.39950
3367.42	0.40844
3363.3	0.41574
3359.18	0.42533
3355.06	0.43547
3350.95	0.44542
3346.83	0.45522
3342.71	0.46572
3338.59	0.47765
3334.47	0.48915
3330.35	0.50021
3326.23	0.51293
3322.11	0.52385
3317.99	0.53617
3313.87	0.54776
3309.75	0.55981
3305.63	0.57148
3301.52	0.58100
3297.4	0.59049
3293.28	0.59890
3289.16	0.60471
3285.04	0.61038
3280.92	0.61175
3276.8	0.61203
3272.68	0.61209
3268.56	0.60654
3264.44	0.59925
3260.32	0.59113
3256.2	0.57996
3252.09	0.56944
3247.97	0.55911
3243.85	0.54624
3239.73	0.53548
3235.61	0.52473
3231.49	0.51270
3227.37	0.50103
3223.25	0.49109
3219.13	0.47944
3215.01	0.46700
3210.89	0.45419
3206.77	0.44296
3202.65	0.42977
3198.54	0.41652
3194.42	0.40354
3190.3	0.39034
3186.18	0.37602
3182.06	0.36204
3177.94	0.34870
3173.82	0.33480
3169.7	0.32188
3165.58	0.31021
3161.46	0.29737
3157.34	0.28584
3153.22	0.27532
3149.11	0.26708
3144.99	0.25788
3140.87	0.25007
3136.75	0.24485
3132.63	0.23975
3128.51	0.23561
3124.39	0.23236
3120.27	0.23202
3116.15	0.23177
3112.03	0.23218
3107.91	0.23386
3103.79	0.23624
3099.68	0.23915
3095.56	0.24290
3091.44	0.24868
3087.32	0.25335
3083.2	0.25656
3079.08	0.25944
3074.96	0.26022
3070.84	0.25961
3066.72	0.25907
3062.6	0.25496
3058.48	0.24918
3054.36	0.24259
3050.25	0.23499
3046.13	0.22478
3042.01	0.21545
3037.89	0.20449
3033.77	0.19591
3029.65	0.18673
3025.53	0.17891
3021.41	0.17118
3017.29	0.16522
3013.17	0.16013
3009.05	0.15518
3004.93	0.15271
3000.82	0.15309
2996.7	0.15598
2992.58	0.15999
2988.46	0.16432
2984.34	0.16848
2980.22	0.17038
2976.1	0.16740
2971.98	0.16457
2967.86	0.16300
2963.74	0.16193
2959.62	0.16083
2955.5	0.15969
2951.39	0.16268
2947.27	0.17002
2943.15	0.17877
2939.03	0.18549
2934.91	0.18545
2930.79	0.17891
2926.67	0.16750
2922.55	0.15181
2918.43	0.13301
2914.31	0.11829
2910.19	0.11761
2906.07	0.11458
2901.96	0.11070
2897.84	0.10733
2893.72	0.10440
2889.6	0.10317
2885.48	0.10408
2881.36	0.10536
2877.24	0.10512
2873.12	0.10146
2869	0.09562
2864.88	0.09010
2860.76	0.08645
2856.64	0.08332
2852.53	0.07696
2848.41	0.06661
2844.29	0.06895
2840.17	0.07264
2836.05	0.07401
2831.93	0.07385
2827.81	0.07357
2823.69	0.07227
2819.57	0.07189
2815.45	0.07032
2811.33	0.06887
2807.21	0.06697
2803.1	0.06492
2798.98	0.06304
2794.86	0.06120
2790.74	0.05933
2786.62	0.05711
2782.5	0.05433
2778.38	0.05253
2774.26	0.05083
2770.14	0.04936
2766.02	0.04733
2761.9	0.04534
2757.78	0.04433
2753.67	0.04290
2749.55	0.04190
2745.43	0.04068
2741.31	0.03932
2737.19	0.03782
2733.07	0.03638
2728.95	0.03607
2724.83	0.03584
2720.71	0.03425
2716.59	0.03328
2712.47	0.03246
2708.35	0.03216
2704.24	0.03199
2700.12	0.03107
2696	0.03079
2691.88	0.03032
2687.76	0.03027
2683.64	0.02972
2679.52	0.02907
2675.4	0.02854
2671.28	0.02798
2667.16	0.02771
2663.04	0.02747
2658.92	0.02717
2654.81	0.02700
2650.69	0.02670
2646.57	0.02600
2642.45	0.02549
2638.33	0.02576
2634.21	0.02497
2630.09	0.02440
2625.97	0.02446
2621.85	0.02376
2617.73	0.02395
2613.61	0.02340
2609.49	0.02354
2605.38	0.02237
2601.26	0.02147
2597.14	0.02116
2593.02	0.02080
2588.9	0.02070
2584.78	0.01962
2580.66	0.01898
2576.54	0.01827
2572.42	0.01789
2568.3	0.01705
2564.18	0.01664
2560.06	0.01599
2555.95	0.01617
2551.83	0.01613
2547.71	0.01564
2543.59	0.01552
2539.47	0.01484
2535.35	0.01472
2531.23	0.01561
2527.11	0.01485
2522.99	0.01454
2518.87	0.01448
2514.75	0.01481
2510.63	0.01457
2506.52	0.01411
2502.4	0.01328
2498.28	0.01350
2494.16	0.01429
2490.04	0.01390
2485.92	0.01324
2481.8	0.01330
2477.68	0.01252
2473.56	0.01200
2469.44	0.01262
2465.32	0.01268
2461.2	0.01273
2457.09	0.01252
2452.97	0.01189
2448.85	0.01150
2444.73	0.01197
2440.61	0.01197
2436.49	0.01186
2432.37	0.01153
2428.25	0.01169
2424.13	0.01154
2420.01	0.01112
2415.89	0.01052
2411.77	0.01048
2407.66	0.01068
2403.54	0.01029
2399.42	0.01040
2395.3	0.01027
2391.18	0.01021
2387.06	0.01035
2382.94	0.01094
2378.82	0.01108
2374.7	0.01106
2370.58	0.01206
2366.46	0.01204
2362.34	0.01113
2358.23	0.01194
2354.11	0.01185
2349.99	0.01417
2345.87	0.01184
2341.75	0.01030
2337.63	0.01125
2333.51	0.01312
2329.39	0.01422
2325.27	0.01209
2321.15	0.01133
2317.03	0.01094
2312.91	0.01158
2308.8	0.01124
2304.68	0.01184
2300.56	0.01172
2296.44	0.01164
2292.32	0.01202
2288.2	0.01256
2284.08	0.01244
2279.96	0.01182
2275.84	0.01112
2271.72	0.01101
2267.6	0.01133
2263.48	0.01098
2259.36	0.01059
2255.25	0.00969
2251.13	0.01090
2247.01	0.01150
2242.89	0.01084
2238.77	0.01171
2234.65	0.01013
2230.53	0.01041
2226.41	0.00980
2222.29	0.00947
2218.17	0.00999
2214.05	0.01101
2209.93	0.01039
2205.82	0.01095
2201.7	0.01088
2197.58	0.01008
2193.46	0.01081
2189.34	0.01150
2185.22	0.01351
2181.1	0.01189
2176.98	0.00931
2172.86	0.00961
2168.74	0.00998
2164.62	0.00991
2160.5	0.01109
2156.39	0.01008
2152.27	0.00798
2148.15	0.00955
2144.03	0.01113
2139.91	0.01161
2135.79	0.00961
2131.67	0.01093
2127.55	0.01201
2123.43	0.01225
2119.31	0.01285
2115.19	0.01372
2111.07	0.01285
2106.96	0.01297
2102.84	0.01362
2098.72	0.01368
2094.6	0.01298
2090.48	0.01220
2086.36	0.01193
2082.24	0.01254
2078.12	0.01234
2074	0.01162
2069.88	0.01162
2065.76	0.01220
2061.64	0.01125
2057.53	0.01058
2053.41	0.01014
2049.29	0.01010
2045.17	0.00930
2041.05	0.01111
2036.93	0.00861
2032.81	0.00840
2028.69	0.00859
2024.57	0.00867
2020.45	0.00843
2016.33	0.00764
2012.21	0.00818
2008.1	0.00907
2003.98	0.00784
1999.86	0.00720
1995.74	0.00774
1991.62	0.00679
1987.5	0.00765
1983.38	0.00835
1979.26	0.00943
1975.14	0.00690
1971.02	0.00578
1966.9	0.00654
1962.78	0.00548
1958.67	0.00677
1954.55	0.00738
1950.43	0.00752
1946.31	0.00741
1942.19	0.00666
1938.07	0.00775
1933.95	0.00776
1929.83	0.00773
1925.71	0.00744
1921.59	0.00741
1917.47	0.00856
1913.35	0.00798
1909.24	0.00877
1905.12	0.00910
1901	0.00879
1896.88	0.00889
1892.76	0.00959
1888.64	0.00928
1884.52	0.00912
1880.4	0.00904
1876.28	0.00854
1872.16	0.00871
1868.04	0.00853
1863.92	0.00932
1859.81	0.00957
1855.69	0.00919
1851.57	0.00941
1847.45	0.00948
1843.33	0.00977
1839.21	0.01051
1835.09	0.01042
1830.97	0.01029
1826.85	0.01087
1822.73	0.01161
1818.61	0.01168
1814.49	0.01205
1810.38	0.01237
1806.26	0.01283
1802.14	0.01365
1798.02	0.01406
1793.9	0.01431
1789.78	0.01507
1785.66	0.01553
1781.54	0.01609
1777.42	0.01648
1773.3	0.01690
1769.18	0.01784
1765.06	0.01874
1760.95	0.01918
1756.83	0.02003
1752.71	0.02108
1748.59	0.02220
1744.47	0.02331
1740.35	0.02459
1736.23	0.02606
1732.11	0.02850
1727.99	0.03078
1723.87	0.03381
1719.75	0.03761
1715.63	0.04681
1711.52	0.05889
1707.4	0.07592
1703.28	0.10129
1699.16	0.13686
1695.04	0.17770
1690.92	0.21108
1686.8	0.24510
1682.68	0.29445
1678.56	0.33290
1674.44	0.37801
1670.32	0.42913
1666.2	0.48444
1662.09	0.53945
1657.97	0.59238
1653.85	0.64813
1649.73	0.71442
1645.61	0.75904
1641.49	0.78823
1637.37	0.79871
1633.25	0.79449
1629.13	0.76257
1625.01	0.70480
1620.89	0.63052
1616.77	0.55665
1612.66	0.48361
1608.54	0.41319
1604.42	0.35209
1600.3	0.31356
1596.18	0.29070
1592.06	0.27329
1587.94	0.26386
1583.82	0.26579
1579.7	0.27688
1575.58	0.30106
1571.46	0.32931
1567.34	0.36815
1563.23	0.40288
1559.11	0.44922
1554.99	0.50737
1550.87	0.54703
1546.75	0.58598
1542.63	0.62058
1538.51	0.66552
1534.39	0.68516
1530.27	0.70195
1526.15	0.70941
1522.03	0.71743
1517.91	0.73733
1513.8	0.74782
1509.68	0.72060
1505.56	0.65146
1501.44	0.59105
1497.32	0.51928
1493.2	0.45133
1489.08	0.38933
1484.96	0.33742
1480.84	0.30361
1476.72	0.28091
1472.6	0.26870
1468.48	0.26626
1464.37	0.27222
1460.25	0.28399
1456.13	0.30484
1452.01	0.31312
1447.89	0.30501
1443.77	0.28511
1439.65	0.26223
1435.53	0.24096
1431.41	0.22994
1427.29	0.22952
1423.17	0.23950
1419.05	0.25688
1414.94	0.27488
1410.82	0.28222
1406.7	0.27885
1402.58	0.26670
1398.46	0.25638
1394.34	0.25565
1390.22	0.26109
1386.1	0.26754
1381.98	0.27065
1377.86	0.26841
1373.74	0.25904
1369.62	0.24235
1365.5	0.22223
1361.39	0.20393
1357.27	0.19289
1353.15	0.18968
1349.03	0.19432
1344.91	0.20531
1340.79	0.21865
1336.67	0.23006
1332.55	0.23189
1328.43	0.22401
1324.31	0.21098
1320.19	0.20067
1316.07	0.19659
1311.96	0.19765
1307.84	0.20110
1303.72	0.20554
1299.6	0.21039
1295.48	0.21555
1291.36	0.22004
1287.24	0.22365
1283.12	0.22793
1279	0.23485
1274.88	0.24464
1270.76	0.25642
1266.64	0.26842
1262.53	0.28002
1258.41	0.29338
1254.29	0.30867
1250.17	0.32538
1246.05	0.34221
1241.93	0.35695
1237.81	0.36703
1233.69	0.36906
1229.57	0.36014
1225.45	0.33946
1221.33	0.31012
1217.21	0.27692
1213.1	0.24504
1208.98	0.21842
1204.86	0.19654
1200.74	0.17785
1196.62	0.16406
1192.5	0.15540
1188.38	0.15146
1184.26	0.15199
1180.14	0.15751
1176.02	0.16747
1171.9	0.17542
1167.78	0.17694
1163.67	0.17451
1159.55	0.16926
1155.43	0.16180
1151.31	0.15324
1147.19	0.14497
1143.07	0.13778
1138.95	0.13260
1134.83	0.12925
1130.71	0.12747
1126.59	0.12671
1122.47	0.12675
1118.35	0.12653
1114.24	0.12569
1110.12	0.12550
1106	0.12633
1101.88	0.12497
1097.76	0.12026
1093.64	0.11813
1089.52	0.12148
1085.4	0.12966
1081.28	0.14016
1077.16	0.14933
1073.04	0.15482
1068.92	0.15660
1064.81	0.15682
1060.69	0.15849
1056.57	0.16047
1052.45	0.15768
1048.33	0.14923
1044.21	0.13869
1040.09	0.13022
1035.97	0.12471
1031.85	0.12263
1027.73	0.12130
1023.61	0.12137
1019.49	0.12925
1015.38	0.13855
1011.26	0.13487
1007.14	0.12004
1003.02	0.10392
998.899	0.09159
994.78	0.08300
990.66	0.07644
986.541	0.07174
982.422	0.06974
978.303	0.06886
974.184	0.06839
970.065	0.06887
965.945	0.07054
961.826	0.07294
957.707	0.07534
953.588	0.07790
949.469	0.07997
945.35	0.08066
941.23	0.07943
937.111	0.07707
932.992	0.07420
928.873	0.07166
924.754	0.06904
920.635	0.06671
916.515	0.06447
912.396	0.06259
908.277	0.06120
904.158	0.05994
900.039	0.05924
895.92	0.05868
891.8	0.05852
887.681	0.05875
883.562	0.05978
879.443	0.06055
875.324	0.06142
871.205	0.06289
867.085	0.06550
862.966	0.06915
858.847	0.07344
854.728	0.07741
850.609	0.07959
846.49	0.07987
842.37	0.08123
838.251	0.08450
834.132	0.08807
830.013	0.09001
825.894	0.09032
821.774	0.08973
817.655	0.09008
813.536	0.09221
809.417	0.09481
805.298	0.09666
801.179	0.09817
797.059	0.09913
792.94	0.10073
788.821	0.10282
784.702	0.10552
780.583	0.10799
776.464	0.11051
772.344	0.11303
768.225	0.11576
764.106	0.11855
759.987	0.12201
755.868	0.12571
751.749	0.12959
747.629	0.13352
743.51	0.13694
739.391	0.14015
735.272	0.14327
731.153	0.14657
727.034	0.14944
722.914	0.15285
718.795	0.15598
714.676	0.15893
710.557	0.16253
706.438	0.16622
702.319	0.17045
698.199	0.17368
694.08	0.17649
689.961	0.17928
685.842	0.18246
681.723	0.18542
677.604	0.18838
673.484	0.19114
669.365	0.19652
665.246	0.19646
661.127	0.19674
657.008	0.19771
652.889	0.19814
648.769	0.19830
644.65	0.19847
640.531	0.19818
636.412	0.19828
632.293	0.19798
628.173	0.19755
624.054	0.19770
619.935	0.19708
615.816	0.19685
611.697	0.19676
607.578	0.19714
603.458	0.19747
599.339	0.19765
595.22	0.19819
591.101	0.19892
586.982	0.20048
582.863	0.20215
578.743	0.20443
574.624	0.20694
570.505	0.20965
566.386	0.21238
562.267	0.21518
558.148	0.21924
554.028	0.22269
549.909	0.22500
545.79	0.22728
541.671	0.22765
537.552	0.22692
533.433	0.22628
529.313	0.22601
525.194	0.22485
521.075	0.22318
516.956	0.22214
512.837	0.22133
508.718	0.22133
504.598	0.22044
500.479	0.21853
496.36	0.21606
492.241	0.21454
488.122	0.21355
484.003	0.21135
479.883	0.20831
475.764	0.20511
471.645	0.20240
467.526	0.19847
463.407	0.19596
459.288	0.19388
455.168	0.19175
451.049	0.18770
446.93	0.18480
442.811	0.18234
438.692	0.17983
434.572	0.17679
430.453	0.17383
426.334	0.17241
422.215	0.17130
418.096	0.16955
413.977	0.16719
409.857	0.16673
405.738	0.16538
401.619	0.16340
399.56	0.16222