File: FTIR/db-LASE IR data/AgNPr-LASE lasered at 55C/Silk AgNPr film 55C 2 9.22.22.dpt
3997.65	-0.00268
3993.54	-0.00223
3989.42	-0.00225
3985.3	-0.00250
3981.18	-0.00291
3977.06	-0.00366
3972.94	-0.00258
3968.82	-0.00106
3964.7	-0.00164
3960.58	-0.00170
3956.46	-0.00285
3952.34	-0.00381
3948.22	-0.00380
3944.11	-0.00247
3939.99	-0.00254
3935.87	-0.00317
3931.75	-0.00158
3927.63	-0.00159
3923.51	-0.00239
3919.39	-0.00242
3915.27	-0.00172
3911.15	-0.00208
3907.03	-0.00236
3902.91	-0.00127
3898.79	-0.00234
3894.68	-0.00271
3890.56	-0.00144
3886.44	-0.00228
3882.32	-0.00154
3878.2	-0.00285
3874.08	-0.00257
3869.96	-0.00295
3865.84	-0.00348
3861.72	-0.00313
3857.6	-0.00206
3853.48	-0.00125
3849.36	-0.00334
3845.25	-0.00234
3841.13	-0.00185
3837.01	-0.00168
3832.89	-0.00161
3828.77	-0.00202
3824.65	-0.00189
3820.53	0.00004
3816.41	-0.00151
3812.29	-0.00246
3808.17	-0.00246
3804.05	-0.00087
3799.93	-0.00116
3795.82	-0.00204
3791.7	-0.00182
3787.58	-0.00115
3783.46	-0.00124
3779.34	-0.00101
3775.22	-0.00132
3771.1	-0.00144
3766.98	-0.00285
3762.86	-0.00205
3758.74	-0.00149
3754.62	-0.00056
3750.5	-0.00010
3746.39	-0.00061
3742.27	-0.00058
3738.15	-0.00111
3734.03	-0.00062
3729.91	-0.00164
3725.79	-0.00131
3721.67	-0.00218
3717.55	-0.00181
3713.43	-0.00047
3709.31	0.00043
3705.19	-0.00099
3701.07	-0.00175
3696.96	-0.00095
3692.84	0.00012
3688.72	-0.00012
3684.6	-0.00161
3680.48	-0.00033
3676.36	0.00205
3672.24	0.00280
3668.12	0.00191
3664	0.00329
3659.88	0.00322
3655.76	0.00358
3651.64	0.00665
3647.53	0.00866
3643.41	0.00727
3639.29	0.00746
3635.17	0.00902
3631.05	0.01009
3626.93	0.01073
3622.81	0.01251
3618.69	0.01419
3614.57	0.01342
3610.45	0.01548
3606.33	0.01705
3602.21	0.01769
3598.1	0.01851
3593.98	0.02041
3589.86	0.02203
3585.74	0.02385
3581.62	0.02465
3577.5	0.02640
3573.38	0.02796
3569.26	0.02927
3565.14	0.03163
3561.02	0.03279
3556.9	0.03322
3552.78	0.03436
3548.67	0.03702
3544.55	0.03882
3540.43	0.04013
3536.31	0.04088
3532.19	0.04270
3528.07	0.04477
3523.95	0.04578
3519.83	0.04556
3515.71	0.04745
3511.59	0.04865
3507.47	0.05057
3503.35	0.05138
3499.24	0.05257
3495.12	0.05231
3491	0.05414
3486.88	0.05614
3482.76	0.05710
3478.64	0.05641
3474.52	0.05695
3470.4	0.05860
3466.28	0.05966
3462.16	0.06101
3458.04	0.06130
3453.92	0.06263
3449.81	0.06250
3445.69	0.06348
3441.57	0.06422
3437.45	0.06448
3433.33	0.06499
3429.21	0.06604
3425.09	0.06706
3420.97	0.06824
3416.85	0.06933
3412.73	0.06957
3408.61	0.07079
3404.49	0.07244
3400.38	0.07330
3396.26	0.07527
3392.14	0.07685
3388.02	0.07809
3383.9	0.07967
3379.78	0.08100
3375.66	0.08255
3371.54	0.08375
3367.42	0.08557
3363.3	0.08768
3359.18	0.08924
3355.06	0.09018
3350.95	0.09157
3346.83	0.09383
3342.71	0.09520
3338.59	0.09782
3334.47	0.09971
3330.35	0.10175
3326.23	0.10401
3322.11	0.10658
3317.99	0.10855
3313.87	0.11057
3309.75	0.11207
3305.63	0.11461
3301.52	0.11629
3297.4	0.11800
3293.28	0.11941
3289.16	0.12134
3285.04	0.12138
3280.92	0.12249
3276.8	0.12345
3272.68	0.12354
3268.56	0.12317
3264.44	0.12246
3260.32	0.12126
3256.2	0.11978
3252.09	0.11703
3247.97	0.11487
3243.85	0.11433
3239.73	0.11297
3235.61	0.11133
3231.49	0.11034
3227.37	0.10832
3223.25	0.10601
3219.13	0.10514
3215.01	0.10346
3210.89	0.10102
3206.77	0.09871
3202.65	0.09649
3198.54	0.09415
3194.42	0.09043
3190.3	0.08787
3186.18	0.08648
3182.06	0.08403
3177.94	0.08102
3173.82	0.07788
3169.7	0.07534
3165.58	0.07241
3161.46	0.06982
3157.34	0.06766
3153.22	0.06616
3149.11	0.06379
3144.99	0.06179
3140.87	0.06024
3136.75	0.05870
3132.63	0.05698
3128.51	0.05685
3124.39	0.05587
3120.27	0.05540
3116.15	0.05617
3112.03	0.05636
3107.91	0.05580
3103.79	0.05587
3099.68	0.05617
3095.56	0.05731
3091.44	0.05845
3087.32	0.05917
3083.2	0.05987
3079.08	0.06071
3074.96	0.06153
3070.84	0.06134
3066.72	0.06170
3062.6	0.06029
3058.48	0.05918
3054.36	0.05831
3050.25	0.05655
3046.13	0.05498
3042.01	0.05328
3037.89	0.05065
3033.77	0.04814
3029.65	0.04635
3025.53	0.04444
3021.41	0.04255
3017.29	0.04163
3013.17	0.04031
3009.05	0.03851
3004.93	0.03861
3000.82	0.03831
2996.7	0.03916
2992.58	0.03888
2988.46	0.04021
2984.34	0.04097
2980.22	0.04037
2976.1	0.03937
2971.98	0.03855
2967.86	0.03723
2963.74	0.03462
2959.62	0.03278
2955.5	0.03122
2951.39	0.03339
2947.27	0.03645
2943.15	0.03834
2939.03	0.03818
2934.91	0.03519
2930.79	0.02977
2926.67	0.02007
2922.55	0.00330
2918.43	-0.01929
2914.31	-0.02286
2910.19	-0.00142
2906.07	0.00947
2901.96	0.01236
2897.84	0.01352
2893.72	0.01480
2889.6	0.01603
2885.48	0.01775
2881.36	0.01917
2877.24	0.01968
2873.12	0.01884
2869	0.01789
2864.88	0.01633
2860.76	0.01350
2856.64	0.00790
2852.53	-0.00606
2848.41	-0.02129
2844.29	-0.00419
2840.17	0.00918
2836.05	0.01367
2831.93	0.01477
2827.81	0.01496
2823.69	0.01593
2819.57	0.01590
2815.45	0.01621
2811.33	0.01606
2807.21	0.01580
2803.1	0.01537
2798.98	0.01474
2794.86	0.01492
2790.74	0.01451
2786.62	0.01354
2782.5	0.01298
2778.38	0.01286
2774.26	0.01261
2770.14	0.01227
2766.02	0.01149
2761.9	0.01097
2757.78	0.01087
2753.67	0.01111
2749.55	0.01097
2745.43	0.01045
2741.31	0.00987
2737.19	0.00890
2733.07	0.00885
2728.95	0.00905
2724.83	0.00899
2720.71	0.00847
2716.59	0.00827
2712.47	0.00846
2708.35	0.00805
2704.24	0.00812
2700.12	0.00746
2696	0.00740
2691.88	0.00755
2687.76	0.00770
2683.64	0.00702
2679.52	0.00729
2675.4	0.00712
2671.28	0.00727
2667.16	0.00672
2663.04	0.00675
2658.92	0.00701
2654.81	0.00711
2650.69	0.00725
2646.57	0.00715
2642.45	0.00706
2638.33	0.00685
2634.21	0.00664
2630.09	0.00700
2625.97	0.00704
2621.85	0.00695
2617.73	0.00644
2613.61	0.00581
2609.49	0.00600
2605.38	0.00611
2601.26	0.00593
2597.14	0.00555
2593.02	0.00520
2588.9	0.00503
2584.78	0.00501
2580.66	0.00488
2576.54	0.00411
2572.42	0.00404
2568.3	0.00445
2564.18	0.00485
2560.06	0.00412
2555.95	0.00480
2551.83	0.00398
2547.71	0.00418
2543.59	0.00371
2539.47	0.00396
2535.35	0.00341
2531.23	0.00368
2527.11	0.00399
2522.99	0.00363
2518.87	0.00335
2514.75	0.00358
2510.63	0.00350
2506.52	0.00360
2502.4	0.00382
2498.28	0.00337
2494.16	0.00306
2490.04	0.00330
2485.92	0.00304
2481.8	0.00336
2477.68	0.00386
2473.56	0.00322
2469.44	0.00431
2465.32	0.00421
2461.2	0.00377
2457.09	0.00347
2452.97	0.00374
2448.85	0.00340
2444.73	0.00336
2440.61	0.00327
2436.49	0.00285
2432.37	0.00298
2428.25	0.00344
2424.13	0.00340
2420.01	0.00294
2415.89	0.00247
2411.77	0.00292
2407.66	0.00293
2403.54	0.00288
2399.42	0.00270
2395.3	0.00272
2391.18	0.00307
2387.06	0.00235
2382.94	0.00191
2378.82	0.00208
2374.7	0.00269
2370.58	0.00147
2366.46	0.00066
2362.34	0.00256
2358.23	0.00285
2354.11	0.00345
2349.99	-0.00032
2345.87	0.00348
2341.75	0.00499
2337.63	0.00234
2333.51	0.00152
2329.39	0.00023
2325.27	0.00596
2321.15	0.00761
2317.03	0.00610
2312.91	0.00593
2308.8	0.00581
2304.68	0.00573
2300.56	0.00553
2296.44	0.00476
2292.32	0.00361
2288.2	0.00396
2284.08	0.00373
2279.96	0.00383
2275.84	0.00384
2271.72	0.00375
2267.6	0.00426
2263.48	0.00360
2259.36	0.00488
2255.25	0.00441
2251.13	0.00314
2247.01	0.00332
2242.89	0.00274
2238.77	0.00379
2234.65	0.00427
2230.53	0.00370
2226.41	0.00322
2222.29	0.00283
2218.17	0.00326
2214.05	0.00285
2209.93	0.00301
2205.82	0.00418
2201.7	0.00314
2197.58	0.00368
2193.46	0.00555
2189.34	0.00552
2185.22	0.00379
2181.1	0.00273
2176.98	0.00106
2172.86	0.00122
2168.74	0.00125
2164.62	0.00389
2160.5	0.00318
2156.39	0.00038
2152.27	0.00238
2148.15	0.00202
2144.03	0.00014
2139.91	0.00183
2135.79	0.00162
2131.67	0.00055
2127.55	0.00142
2123.43	0.00257
2119.31	0.00329
2115.19	0.00298
2111.07	0.00367
2106.96	0.00332
2102.84	0.00356
2098.72	0.00383
2094.6	0.00323
2090.48	0.00327
2086.36	0.00349
2082.24	0.00463
2078.12	0.00421
2074	0.00351
2069.88	0.00352
2065.76	0.00382
2061.64	0.00439
2057.53	0.00334
2053.41	0.00292
2049.29	0.00404
2045.17	0.00028
2041.05	0.00129
2036.93	0.00154
2032.81	0.00081
2028.69	0.00178
2024.57	0.00246
2020.45	0.00140
2016.33	0.00102
2012.21	0.00399
2008.1	0.00351
2003.98	0.00282
1999.86	0.00298
1995.74	0.00123
1991.62	0.00070
1987.5	0.00219
1983.38	0.00305
1979.26	0.00441
1975.14	0.00229
1971.02	0.00074
1966.9	0.00080
1962.78	0.00190
1958.67	0.00174
1954.55	0.00235
1950.43	0.00181
1946.31	0.00258
1942.19	0.00315
1938.07	0.00227
1933.95	0.00159
1929.83	0.00198
1925.71	0.00189
1921.59	0.00231
1917.47	0.00219
1913.35	0.00306
1909.24	0.00280
1905.12	0.00238
1901	0.00290
1896.88	0.00258
1892.76	0.00317
1888.64	0.00312
1884.52	0.00272
1880.4	0.00299
1876.28	0.00260
1872.16	0.00313
1868.04	0.00323
1863.92	0.00277
1859.81	0.00280
1855.69	0.00277
1851.57	0.00313
1847.45	0.00316
1843.33	0.00295
1839.21	0.00292
1835.09	0.00334
1830.97	0.00347
1826.85	0.00366
1822.73	0.00352
1818.61	0.00355
1814.49	0.00375
1810.38	0.00392
1806.26	0.00406
1802.14	0.00425
1798.02	0.00435
1793.9	0.00503
1789.78	0.00488
1785.66	0.00460
1781.54	0.00480
1777.42	0.00508
1773.3	0.00539
1769.18	0.00543
1765.06	0.00574
1760.95	0.00591
1756.83	0.00604
1752.71	0.00672
1748.59	0.00750
1744.47	0.00786
1740.35	0.00841
1736.23	0.00872
1732.11	0.00934
1727.99	0.00959
1723.87	0.01019
1719.75	0.01188
1715.63	0.01475
1711.52	0.01818
1707.4	0.02360
1703.28	0.03116
1699.16	0.04119
1695.04	0.05184
1690.92	0.06070
1686.8	0.06992
1682.68	0.08285
1678.56	0.09186
1674.44	0.10208
1670.32	0.11300
1666.2	0.12438
1662.09	0.13465
1657.97	0.14421
1653.85	0.15357
1649.73	0.16275
1645.61	0.16836
1641.49	0.17162
1637.37	0.17280
1633.25	0.17028
1629.13	0.16533
1625.01	0.15609
1620.89	0.14346
1616.77	0.13026
1612.66	0.11590
1608.54	0.10153
1604.42	0.08812
1600.3	0.07954
1596.18	0.07445
1592.06	0.07032
1587.94	0.06744
1583.82	0.06676
1579.7	0.06804
1575.58	0.07345
1571.46	0.08112
1567.34	0.09210
1563.23	0.10132
1559.11	0.11234
1554.99	0.12405
1550.87	0.13190
1546.75	0.13825
1542.63	0.14288
1538.51	0.14894
1534.39	0.15430
1530.27	0.15944
1526.15	0.16237
1522.03	0.16421
1517.91	0.16780
1513.8	0.17016
1509.68	0.16706
1505.56	0.15540
1501.44	0.14432
1497.32	0.13073
1493.2	0.11644
1489.08	0.10251
1484.96	0.08978
1480.84	0.08092
1476.72	0.07449
1472.6	0.06965
1468.48	0.06875
1464.37	0.06973
1460.25	0.07349
1456.13	0.08016
1452.01	0.08250
1447.89	0.08093
1443.77	0.07623
1439.65	0.07081
1435.53	0.06533
1431.41	0.06233
1427.29	0.06247
1423.17	0.06504
1419.05	0.06953
1414.94	0.07421
1410.82	0.07660
1406.7	0.07662
1402.58	0.07422
1398.46	0.07218
1394.34	0.07190
1390.22	0.07306
1386.1	0.07501
1381.98	0.07550
1377.86	0.07471
1373.74	0.07247
1369.62	0.06824
1365.5	0.06313
1361.39	0.05825
1357.27	0.05539
1353.15	0.05447
1349.03	0.05569
1344.91	0.05860
1340.79	0.06253
1336.67	0.06572
1332.55	0.06616
1328.43	0.06395
1324.31	0.06063
1320.19	0.05807
1316.07	0.05718
1311.96	0.05762
1307.84	0.05855
1303.72	0.05954
1299.6	0.06082
1295.48	0.06202
1291.36	0.06321
1287.24	0.06436
1283.12	0.06579
1279	0.06746
1274.88	0.07027
1270.76	0.07355
1266.64	0.07679
1262.53	0.07989
1258.41	0.08301
1254.29	0.08718
1250.17	0.09157
1246.05	0.09610
1241.93	0.10033
1237.81	0.10319
1233.69	0.10377
1229.57	0.10187
1225.45	0.09700
1221.33	0.08996
1217.21	0.08159
1213.1	0.07326
1208.98	0.06616
1204.86	0.06004
1200.74	0.05494
1196.62	0.05121
1192.5	0.04903
1188.38	0.04782
1184.26	0.04818
1180.14	0.05030
1176.02	0.05367
1171.9	0.05625
1167.78	0.05725
1163.67	0.05717
1159.55	0.05625
1155.43	0.05475
1151.31	0.05294
1147.19	0.05107
1143.07	0.04964
1138.95	0.04840
1134.83	0.04784
1130.71	0.04766
1126.59	0.04799
1122.47	0.04839
1118.35	0.04874
1114.24	0.04889
1110.12	0.04943
1106	0.05031
1101.88	0.05022
1097.76	0.04911
1093.64	0.04882
1089.52	0.04985
1085.4	0.05210
1081.28	0.05535
1077.16	0.05804
1073.04	0.05982
1068.92	0.06062
1064.81	0.06079
1060.69	0.06130
1056.57	0.06184
1052.45	0.06042
1048.33	0.05731
1044.21	0.05392
1040.09	0.05082
1035.97	0.04897
1031.85	0.04811
1027.73	0.04776
1023.61	0.04753
1019.49	0.04992
1015.38	0.05288
1011.26	0.05184
1007.14	0.04740
1003.02	0.04231
998.899	0.03848
994.78	0.03573
990.66	0.03346
986.541	0.03180
982.422	0.03069
978.303	0.03010
974.184	0.02954
970.065	0.02935
965.945	0.02957
961.826	0.03025
957.707	0.03079
953.588	0.03149
949.469	0.03211
945.35	0.03241
941.23	0.03187
937.111	0.03103
932.992	0.02987
928.873	0.02888
924.754	0.02799
920.635	0.02689
916.515	0.02633
912.396	0.02561
908.277	0.02497
904.158	0.02470
900.039	0.02447
895.92	0.02428
891.8	0.02454
887.681	0.02445
883.562	0.02496
879.443	0.02537
875.324	0.02564
871.205	0.02600
867.085	0.02707
862.966	0.02837
858.847	0.02994
854.728	0.03103
850.609	0.03180
846.49	0.03184
842.37	0.03201
838.251	0.03328
834.132	0.03417
830.013	0.03467
825.894	0.03495
821.774	0.03481
817.655	0.03485
813.536	0.03549
809.417	0.03643
805.298	0.03734
801.179	0.03790
797.059	0.03837
792.94	0.03896
788.821	0.03968
784.702	0.04074
780.583	0.04176
776.464	0.04273
772.344	0.04360
768.225	0.04463
764.106	0.04565
759.987	0.04712
755.868	0.04874
751.749	0.05007
747.629	0.05185
743.51	0.05330
739.391	0.05437
735.272	0.05560
731.153	0.05659
727.034	0.05794
722.914	0.05912
718.795	0.06024
714.676	0.06199
710.557	0.06379
706.438	0.06539
702.319	0.06675
698.199	0.06808
694.08	0.06923
689.961	0.07055
685.842	0.07166
681.723	0.07287
677.604	0.07412
673.484	0.07557
669.365	0.07174
665.246	0.07664
661.127	0.07842
657.008	0.07890
652.889	0.07934
648.769	0.07995
644.65	0.08024
640.531	0.08062
636.412	0.08103
632.293	0.08143
628.173	0.08180
624.054	0.08137
619.935	0.08146
615.816	0.08157
611.697	0.08184
607.578	0.08241
603.458	0.08257
599.339	0.08326
595.22	0.08389
591.101	0.08442
586.982	0.08527
582.863	0.08672
578.743	0.08781
574.624	0.08919
570.505	0.09083
566.386	0.09246
562.267	0.09391
558.148	0.09534
554.028	0.09765
549.909	0.09952
545.79	0.10051
541.671	0.10121
537.552	0.10147
533.433	0.10161
529.313	0.10115
525.194	0.10073
521.075	0.10094
516.956	0.10084
512.837	0.10050
508.718	0.10059
504.598	0.10048
500.479	0.09980
496.36	0.09958
492.241	0.09971
488.122	0.09912
484.003	0.09866
479.883	0.09755
475.764	0.09707
471.645	0.09589
467.526	0.09519
463.407	0.09421
459.288	0.09322
455.168	0.09291
451.049	0.09239
446.93	0.09096
442.811	0.08997
438.692	0.08915
434.572	0.08845
430.453	0.08836
426.334	0.08834
422.215	0.08842
418.096	0.08725
413.977	0.08698
409.857	0.08721
405.738	0.08647
401.619	0.08570
399.56	0.08559