File: FTIR/db-LASE IR data/AgNPr-LASE lasered at 55C/Silk AgNPr film 55C 9.22.22.dpt
3997.65	-0.00211
3993.54	-0.00249
3989.42	-0.00232
3985.3	-0.00326
3981.18	-0.00405
3977.06	-0.00314
3972.94	-0.00211
3968.82	-0.00192
3964.7	-0.00210
3960.58	-0.00217
3956.46	-0.00354
3952.34	-0.00325
3948.22	-0.00386
3944.11	-0.00354
3939.99	-0.00295
3935.87	-0.00314
3931.75	-0.00190
3927.63	-0.00235
3923.51	-0.00259
3919.39	-0.00318
3915.27	-0.00277
3911.15	-0.00269
3907.03	-0.00268
3902.91	-0.00188
3898.79	-0.00322
3894.68	-0.00432
3890.56	-0.00345
3886.44	-0.00366
3882.32	-0.00194
3878.2	-0.00356
3874.08	-0.00441
3869.96	-0.00343
3865.84	-0.00310
3861.72	-0.00389
3857.6	-0.00340
3853.48	-0.00154
3849.36	-0.00249
3845.25	-0.00200
3841.13	-0.00188
3837.01	-0.00160
3832.89	-0.00276
3828.77	-0.00268
3824.65	-0.00201
3820.53	-0.00189
3816.41	-0.00278
3812.29	-0.00294
3808.17	-0.00313
3804.05	-0.00322
3799.93	-0.00204
3795.82	-0.00158
3791.7	-0.00197
3787.58	-0.00248
3783.46	-0.00222
3779.34	-0.00111
3775.22	-0.00146
3771.1	-0.00206
3766.98	-0.00339
3762.86	-0.00269
3758.74	-0.00211
3754.62	-0.00129
3750.5	-0.00035
3746.39	-0.00165
3742.27	-0.00248
3738.15	-0.00240
3734.03	-0.00128
3729.91	-0.00137
3725.79	-0.00195
3721.67	-0.00194
3717.55	-0.00157
3713.43	-0.00138
3709.31	-0.00089
3705.19	-0.00129
3701.07	-0.00155
3696.96	-0.00081
3692.84	-0.00082
3688.72	-0.00004
3684.6	0.00045
3680.48	0.00222
3676.36	0.00390
3672.24	0.00382
3668.12	0.00363
3664	0.00531
3659.88	0.00581
3655.76	0.00699
3651.64	0.01032
3647.53	0.01182
3643.41	0.01341
3639.29	0.01374
3635.17	0.01486
3631.05	0.01608
3626.93	0.01848
3622.81	0.02034
3618.69	0.02254
3614.57	0.02375
3610.45	0.02558
3606.33	0.02852
3602.21	0.03076
3598.1	0.03235
3593.98	0.03415
3589.86	0.03524
3585.74	0.03910
3581.62	0.04112
3577.5	0.04238
3573.38	0.04450
3569.26	0.04703
3565.14	0.05120
3561.02	0.05332
3556.9	0.05523
3552.78	0.05655
3548.67	0.05895
3544.55	0.06250
3540.43	0.06416
3536.31	0.06583
3532.19	0.06745
3528.07	0.07034
3523.95	0.07338
3519.83	0.07420
3515.71	0.07629
3511.59	0.07845
3507.47	0.08045
3503.35	0.08101
3499.24	0.08391
3495.12	0.08450
3491	0.08594
3486.88	0.08803
3482.76	0.09008
3478.64	0.09012
3474.52	0.09133
3470.4	0.09297
3466.28	0.09438
3462.16	0.09603
3458.04	0.09628
3453.92	0.09833
3449.81	0.09788
3445.69	0.09897
3441.57	0.10096
3437.45	0.10177
3433.33	0.10316
3429.21	0.10446
3425.09	0.10535
3420.97	0.10749
3416.85	0.10907
3412.73	0.11013
3408.61	0.11198
3404.49	0.11451
3400.38	0.11615
3396.26	0.11734
3392.14	0.11957
3388.02	0.12078
3383.9	0.12346
3379.78	0.12573
3375.66	0.12725
3371.54	0.13013
3367.42	0.13299
3363.3	0.13563
3359.18	0.13806
3355.06	0.14055
3350.95	0.14362
3346.83	0.14638
3342.71	0.14992
3338.59	0.15449
3334.47	0.15886
3330.35	0.16254
3326.23	0.16639
3322.11	0.17144
3317.99	0.17634
3313.87	0.18147
3309.75	0.18600
3305.63	0.19128
3301.52	0.19711
3297.4	0.20255
3293.28	0.20762
3289.16	0.21213
3285.04	0.21483
3280.92	0.21720
3276.8	0.21789
3272.68	0.21795
3268.56	0.21622
3264.44	0.21274
3260.32	0.20853
3256.2	0.20409
3252.09	0.19784
3247.97	0.19348
3243.85	0.18867
3239.73	0.18426
3235.61	0.18115
3231.49	0.17732
3227.37	0.17296
3223.25	0.16945
3219.13	0.16632
3215.01	0.16201
3210.89	0.15765
3206.77	0.15308
3202.65	0.14952
3198.54	0.14549
3194.42	0.14024
3190.3	0.13545
3186.18	0.13187
3182.06	0.12788
3177.94	0.12322
3173.82	0.11849
3169.7	0.11410
3165.58	0.11009
3161.46	0.10602
3157.34	0.10283
3153.22	0.09967
3149.11	0.09658
3144.99	0.09366
3140.87	0.09077
3136.75	0.08806
3132.63	0.08621
3128.51	0.08566
3124.39	0.08431
3120.27	0.08431
3116.15	0.08488
3112.03	0.08483
3107.91	0.08527
3103.79	0.08638
3099.68	0.08666
3095.56	0.08826
3091.44	0.08988
3087.32	0.09132
3083.2	0.09221
3079.08	0.09302
3074.96	0.09402
3070.84	0.09387
3066.72	0.09290
3062.6	0.09042
3058.48	0.08830
3054.36	0.08629
3050.25	0.08362
3046.13	0.08061
3042.01	0.07745
3037.89	0.07377
3033.77	0.07080
3029.65	0.06791
3025.53	0.06496
3021.41	0.06247
3017.29	0.06049
3013.17	0.05895
3009.05	0.05663
3004.93	0.05678
3000.82	0.05696
2996.7	0.05811
2992.58	0.05960
2988.46	0.06145
2984.34	0.06192
2980.22	0.06204
2976.1	0.06131
2971.98	0.06027
2967.86	0.05892
2963.74	0.05677
2959.62	0.05497
2955.5	0.05369
2951.39	0.05544
2947.27	0.05822
2943.15	0.06188
2939.03	0.06284
2934.91	0.06104
2930.79	0.05622
2926.67	0.04743
2922.55	0.03095
2918.43	0.00884
2914.31	0.00281
2910.19	0.01986
2906.07	0.02843
2901.96	0.02991
2897.84	0.03013
2893.72	0.03100
2889.6	0.03201
2885.48	0.03343
2881.36	0.03486
2877.24	0.03496
2873.12	0.03474
2869	0.03281
2864.88	0.03066
2860.76	0.02782
2856.64	0.02322
2852.53	0.01021
2848.41	-0.00539
2844.29	0.00854
2840.17	0.02042
2836.05	0.02392
2831.93	0.02463
2827.81	0.02517
2823.69	0.02563
2819.57	0.02544
2815.45	0.02536
2811.33	0.02474
2807.21	0.02428
2803.1	0.02391
2798.98	0.02320
2794.86	0.02283
2790.74	0.02213
2786.62	0.02109
2782.5	0.02044
2778.38	0.02005
2774.26	0.01938
2770.14	0.01882
2766.02	0.01796
2761.9	0.01765
2757.78	0.01725
2753.67	0.01719
2749.55	0.01645
2745.43	0.01546
2741.31	0.01468
2737.19	0.01440
2733.07	0.01387
2728.95	0.01382
2724.83	0.01374
2720.71	0.01312
2716.59	0.01281
2712.47	0.01248
2708.35	0.01240
2704.24	0.01206
2700.12	0.01155
2696	0.01138
2691.88	0.01139
2687.76	0.01131
2683.64	0.01110
2679.52	0.01128
2675.4	0.01096
2671.28	0.01076
2667.16	0.01039
2663.04	0.01018
2658.92	0.01053
2654.81	0.01061
2650.69	0.01046
2646.57	0.01082
2642.45	0.01044
2638.33	0.01039
2634.21	0.01003
2630.09	0.01017
2625.97	0.01014
2621.85	0.01008
2617.73	0.00956
2613.61	0.00927
2609.49	0.00948
2605.38	0.00900
2601.26	0.00833
2597.14	0.00770
2593.02	0.00754
2588.9	0.00804
2584.78	0.00793
2580.66	0.00797
2576.54	0.00723
2572.42	0.00626
2568.3	0.00569
2564.18	0.00666
2560.06	0.00638
2555.95	0.00673
2551.83	0.00609
2547.71	0.00662
2543.59	0.00606
2539.47	0.00639
2535.35	0.00598
2531.23	0.00622
2527.11	0.00582
2522.99	0.00612
2518.87	0.00583
2514.75	0.00592
2510.63	0.00554
2506.52	0.00583
2502.4	0.00587
2498.28	0.00561
2494.16	0.00540
2490.04	0.00509
2485.92	0.00471
2481.8	0.00521
2477.68	0.00571
2473.56	0.00536
2469.44	0.00558
2465.32	0.00520
2461.2	0.00518
2457.09	0.00473
2452.97	0.00419
2448.85	0.00496
2444.73	0.00445
2440.61	0.00441
2436.49	0.00462
2432.37	0.00463
2428.25	0.00432
2424.13	0.00432
2420.01	0.00377
2415.89	0.00479
2411.77	0.00503
2407.66	0.00388
2403.54	0.00406
2399.42	0.00424
2395.3	0.00356
2391.18	0.00358
2387.06	0.00370
2382.94	0.00378
2378.82	0.00453
2374.7	0.00503
2370.58	0.00548
2366.46	0.00617
2362.34	0.00606
2358.23	0.00681
2354.11	0.00530
2349.99	0.00634
2345.87	0.00534
2341.75	0.00581
2337.63	0.00706
2333.51	0.00726
2329.39	0.00678
2325.27	0.00715
2321.15	0.00678
2317.03	0.00630
2312.91	0.00556
2308.8	0.00530
2304.68	0.00532
2300.56	0.00535
2296.44	0.00549
2292.32	0.00536
2288.2	0.00601
2284.08	0.00615
2279.96	0.00510
2275.84	0.00493
2271.72	0.00530
2267.6	0.00595
2263.48	0.00489
2259.36	0.00558
2255.25	0.00493
2251.13	0.00562
2247.01	0.00580
2242.89	0.00452
2238.77	0.00463
2234.65	0.00512
2230.53	0.00417
2226.41	0.00445
2222.29	0.00459
2218.17	0.00436
2214.05	0.00447
2209.93	0.00440
2205.82	0.00645
2201.7	0.00444
2197.58	0.00515
2193.46	0.00718
2189.34	0.00725
2185.22	0.00691
2181.1	0.00523
2176.98	0.00419
2172.86	0.00490
2168.74	0.00668
2164.62	0.00617
2160.5	0.00457
2156.39	0.00181
2152.27	0.00410
2148.15	0.00333
2144.03	0.00184
2139.91	0.00404
2135.79	0.00252
2131.67	0.00340
2127.55	0.00338
2123.43	0.00453
2119.31	0.00597
2115.19	0.00590
2111.07	0.00529
2106.96	0.00508
2102.84	0.00590
2098.72	0.00566
2094.6	0.00520
2090.48	0.00585
2086.36	0.00541
2082.24	0.00540
2078.12	0.00543
2074	0.00459
2069.88	0.00561
2065.76	0.00556
2061.64	0.00539
2057.53	0.00424
2053.41	0.00404
2049.29	0.00428
2045.17	0.00297
2041.05	0.00438
2036.93	0.00302
2032.81	0.00339
2028.69	0.00171
2024.57	0.00087
2020.45	0.00181
2016.33	0.00302
2012.21	0.00518
2008.1	0.00520
2003.98	0.00261
1999.86	0.00231
1995.74	0.00296
1991.62	0.00306
1987.5	0.00321
1983.38	0.00439
1979.26	0.00478
1975.14	0.00281
1971.02	0.00218
1966.9	0.00207
1962.78	0.00216
1958.67	0.00270
1954.55	0.00345
1950.43	0.00312
1946.31	0.00290
1942.19	0.00338
1938.07	0.00291
1933.95	0.00303
1929.83	0.00330
1925.71	0.00312
1921.59	0.00316
1917.47	0.00270
1913.35	0.00325
1909.24	0.00347
1905.12	0.00384
1901	0.00334
1896.88	0.00331
1892.76	0.00372
1888.64	0.00400
1884.52	0.00389
1880.4	0.00369
1876.28	0.00352
1872.16	0.00390
1868.04	0.00450
1863.92	0.00395
1859.81	0.00407
1855.69	0.00387
1851.57	0.00411
1847.45	0.00381
1843.33	0.00432
1839.21	0.00416
1835.09	0.00381
1830.97	0.00450
1826.85	0.00496
1822.73	0.00478
1818.61	0.00439
1814.49	0.00465
1810.38	0.00499
1806.26	0.00503
1802.14	0.00551
1798.02	0.00596
1793.9	0.00639
1789.78	0.00639
1785.66	0.00631
1781.54	0.00662
1777.42	0.00675
1773.3	0.00715
1769.18	0.00726
1765.06	0.00739
1760.95	0.00793
1756.83	0.00837
1752.71	0.00899
1748.59	0.00994
1744.47	0.01033
1740.35	0.01085
1736.23	0.01166
1732.11	0.01232
1727.99	0.01292
1723.87	0.01389
1719.75	0.01582
1715.63	0.01949
1711.52	0.02443
1707.4	0.03306
1703.28	0.04630
1699.16	0.06126
1695.04	0.07345
1690.92	0.08311
1686.8	0.09327
1682.68	0.10892
1678.56	0.12100
1674.44	0.13456
1670.32	0.14890
1666.2	0.16401
1662.09	0.17835
1657.97	0.19145
1653.85	0.20420
1649.73	0.21823
1645.61	0.22594
1641.49	0.23026
1637.37	0.23298
1633.25	0.23695
1629.13	0.23769
1625.01	0.23859
1620.89	0.23583
1616.77	0.22236
1612.66	0.20105
1608.54	0.17549
1604.42	0.14969
1600.3	0.13056
1596.18	0.11818
1592.06	0.10861
1587.94	0.10220
1583.82	0.09987
1579.7	0.10063
1575.58	0.10734
1571.46	0.11694
1567.34	0.13097
1563.23	0.14259
1559.11	0.15709
1554.99	0.17354
1550.87	0.18359
1546.75	0.19237
1542.63	0.19986
1538.51	0.21185
1534.39	0.21978
1530.27	0.22785
1526.15	0.23255
1522.03	0.23731
1517.91	0.24374
1513.8	0.24681
1509.68	0.24184
1505.56	0.22762
1501.44	0.21205
1497.32	0.19234
1493.2	0.17237
1489.08	0.15288
1484.96	0.13515
1480.84	0.12241
1476.72	0.11269
1472.6	0.10614
1468.48	0.10460
1464.37	0.10544
1460.25	0.10959
1456.13	0.11908
1452.01	0.12460
1447.89	0.12496
1443.77	0.12087
1439.65	0.11436
1435.53	0.10609
1431.41	0.09939
1427.29	0.09678
1423.17	0.09846
1419.05	0.10307
1414.94	0.10875
1410.82	0.11160
1406.7	0.11121
1402.58	0.10799
1398.46	0.10478
1394.34	0.10399
1390.22	0.10507
1386.1	0.10677
1381.98	0.10699
1377.86	0.10580
1373.74	0.10332
1369.62	0.09857
1365.5	0.09217
1361.39	0.08539
1357.27	0.08105
1353.15	0.07936
1349.03	0.08054
1344.91	0.08371
1340.79	0.08819
1336.67	0.09225
1332.55	0.09261
1328.43	0.08933
1324.31	0.08460
1320.19	0.08118
1316.07	0.08003
1311.96	0.08031
1307.84	0.08093
1303.72	0.08185
1299.6	0.08293
1295.48	0.08401
1291.36	0.08547
1287.24	0.08705
1283.12	0.08902
1279	0.09170
1274.88	0.09591
1270.76	0.10120
1266.64	0.10636
1262.53	0.11050
1258.41	0.11394
1254.29	0.11815
1250.17	0.12315
1246.05	0.12876
1241.93	0.13420
1237.81	0.13824
1233.69	0.14021
1229.57	0.13866
1225.45	0.13298
1221.33	0.12444
1217.21	0.11412
1213.1	0.10326
1208.98	0.09317
1204.86	0.08437
1200.74	0.07672
1196.62	0.07083
1192.5	0.06727
1188.38	0.06537
1184.26	0.06520
1180.14	0.06748
1176.02	0.07193
1171.9	0.07589
1167.78	0.07743
1163.67	0.07719
1159.55	0.07528
1155.43	0.07257
1151.31	0.06907
1147.19	0.06536
1143.07	0.06236
1138.95	0.05980
1134.83	0.05808
1130.71	0.05727
1126.59	0.05706
1122.47	0.05692
1118.35	0.05668
1114.24	0.05657
1110.12	0.05685
1106	0.05765
1101.88	0.05753
1097.76	0.05610
1093.64	0.05542
1089.52	0.05701
1085.4	0.06066
1081.28	0.06499
1077.16	0.06914
1073.04	0.07197
1068.92	0.07324
1064.81	0.07366
1060.69	0.07419
1056.57	0.07437
1052.45	0.07234
1048.33	0.06884
1044.21	0.06529
1040.09	0.06183
1035.97	0.05939
1031.85	0.05785
1027.73	0.05668
1023.61	0.05612
1019.49	0.05897
1015.38	0.06220
1011.26	0.06095
1007.14	0.05644
1003.02	0.05182
998.899	0.04824
994.78	0.04491
990.66	0.04144
986.541	0.03902
982.422	0.03809
978.303	0.03815
974.184	0.03808
970.065	0.03716
965.945	0.03674
961.826	0.03708
957.707	0.03739
953.588	0.03788
949.469	0.03837
945.35	0.03838
941.23	0.03786
937.111	0.03712
932.992	0.03607
928.873	0.03522
924.754	0.03427
920.635	0.03282
916.515	0.03166
912.396	0.03067
908.277	0.02993
904.158	0.02945
900.039	0.02906
895.92	0.02900
891.8	0.02901
887.681	0.02928
883.562	0.02954
879.443	0.03001
875.324	0.03025
871.205	0.03057
867.085	0.03153
862.966	0.03334
858.847	0.03518
854.728	0.03698
850.609	0.03812
846.49	0.03787
842.37	0.03850
838.251	0.04014
834.132	0.04151
830.013	0.04235
825.894	0.04272
821.774	0.04259
817.655	0.04275
813.536	0.04363
809.417	0.04458
805.298	0.04571
801.179	0.04625
797.059	0.04657
792.94	0.04756
788.821	0.04858
784.702	0.04981
780.583	0.05106
776.464	0.05226
772.344	0.05359
768.225	0.05517
764.106	0.05678
759.987	0.05825
755.868	0.06004
751.749	0.06169
747.629	0.06397
743.51	0.06578
739.391	0.06777
735.272	0.06968
731.153	0.07104
727.034	0.07315
722.914	0.07523
718.795	0.07712
714.676	0.07911
710.557	0.08104
706.438	0.08311
702.319	0.08516
698.199	0.08691
694.08	0.08835
689.961	0.08990
685.842	0.09109
681.723	0.09230
677.604	0.09336
673.484	0.09420
669.365	0.09712
665.246	0.09677
661.127	0.09691
657.008	0.09798
652.889	0.09854
648.769	0.09902
644.65	0.09936
640.531	0.09941
636.412	0.09976
632.293	0.10008
628.173	0.10000
624.054	0.10010
619.935	0.10013
615.816	0.10004
611.697	0.10063
607.578	0.10070
603.458	0.10050
599.339	0.10050
595.22	0.10030
591.101	0.10061
586.982	0.10110
582.863	0.10224
578.743	0.10333
574.624	0.10434
570.505	0.10541
566.386	0.10668
562.267	0.10883
558.148	0.11120
554.028	0.11358
549.909	0.11562
545.79	0.11681
541.671	0.11674
537.552	0.11677
533.433	0.11631
529.313	0.11536
525.194	0.11478
521.075	0.11468
516.956	0.11376
512.837	0.11363
508.718	0.11344
504.598	0.11276
500.479	0.11225
496.36	0.11227
492.241	0.11231
488.122	0.11177
484.003	0.11104
479.883	0.11021
475.764	0.10852
471.645	0.10726
467.526	0.10631
463.407	0.10558
459.288	0.10386
455.168	0.10221
451.049	0.10190
446.93	0.10057
442.811	0.09968
438.692	0.09971
434.572	0.09847
430.453	0.09831
426.334	0.09927
422.215	0.09923
418.096	0.09750
413.977	0.09672
409.857	0.09691
405.738	0.09524
401.619	0.09354
399.56	0.09335