File: FTIR/db-LASE IR data/Silk only film/Silk only 6_28_2022 2.dpt
3997.7	0.00589
3993.58	0.00668
3989.46	0.00678
3985.34	0.00652
3981.22	0.00758
3977.1	0.00754
3972.98	0.00787
3968.87	0.00696
3964.75	0.00581
3960.63	0.00663
3956.51	0.00625
3952.39	0.00650
3948.27	0.00696
3944.15	0.00729
3940.03	0.00590
3935.91	0.00691
3931.79	0.00511
3927.67	0.00672
3923.55	0.00686
3919.44	0.00598
3915.32	0.00536
3911.2	0.00636
3907.08	0.00596
3902.96	0.00432
3898.84	0.00514
3894.72	0.00740
3890.6	0.00443
3886.48	0.00564
3882.36	0.00646
3878.24	0.00822
3874.12	0.00629
3870	0.00472
3865.89	0.00776
3861.77	0.00680
3857.65	0.00900
3853.53	-0.00175
3849.41	0.01105
3845.29	0.00643
3841.17	0.00585
3837.05	0.00565
3832.93	0.00719
3828.81	0.00631
3824.69	0.00839
3820.57	0.00422
3816.45	0.00304
3812.34	0.00738
3808.22	0.00405
3804.1	0.00729
3799.98	0.00400
3795.86	0.00439
3791.74	0.00544
3787.62	0.00587
3783.5	0.00685
3779.38	0.00404
3775.26	0.00721
3771.14	0.00522
3767.02	0.00585
3762.9	0.00699
3758.79	0.00587
3754.67	0.01055
3750.55	0.00508
3746.43	0.00916
3742.31	0.00778
3738.19	0.00935
3734.07	0.00444
3729.95	0.00961
3725.83	0.00613
3721.71	0.00713
3717.59	0.00872
3713.47	0.00467
3709.35	0.00556
3705.24	0.01004
3701.12	0.00590
3697	0.00873
3692.88	0.00958
3688.76	0.00591
3684.64	0.01172
3680.52	0.01385
3676.4	0.01030
3672.28	0.01811
3668.16	0.01635
3664.04	0.01905
3659.92	0.01925
3655.81	0.02088
3651.69	0.02247
3647.57	0.02263
3643.45	0.03125
3639.33	0.03132
3635.21	0.03427
3631.09	0.03722
3626.97	0.04213
3622.85	0.04678
3618.73	0.04551
3614.61	0.05030
3610.49	0.05361
3606.37	0.05811
3602.26	0.06067
3598.14	0.06391
3594.02	0.06733
3589.9	0.07181
3585.78	0.07566
3581.66	0.08031
3577.54	0.08337
3573.42	0.08886
3569.3	0.09202
3565.18	0.09738
3561.06	0.10260
3556.94	0.10501
3552.82	0.10762
3548.71	0.11319
3544.59	0.11686
3540.47	0.12188
3536.35	0.12589
3532.23	0.13122
3528.11	0.13449
3523.99	0.13797
3519.87	0.14132
3515.75	0.14377
3511.63	0.14649
3507.51	0.15066
3503.39	0.15147
3499.27	0.15627
3495.16	0.15851
3491.04	0.16132
3486.92	0.16237
3482.8	0.16436
3478.68	0.16742
3474.56	0.16919
3470.44	0.17113
3466.32	0.17320
3462.2	0.17426
3458.08	0.17599
3453.96	0.17835
3449.84	0.18006
3445.73	0.18234
3441.61	0.18457
3437.49	0.18745
3433.37	0.18918
3429.25	0.19176
3425.13	0.19454
3421.01	0.19681
3416.89	0.20141
3412.77	0.20408
3408.65	0.20761
3404.53	0.21162
3400.41	0.21473
3396.29	0.21891
3392.18	0.22295
3388.06	0.22626
3383.94	0.22971
3379.82	0.23395
3375.7	0.23910
3371.58	0.24312
3367.46	0.24828
3363.34	0.25274
3359.22	0.25827
3355.1	0.26351
3350.98	0.26924
3346.86	0.27624
3342.74	0.28159
3338.63	0.28667
3334.51	0.29294
3330.39	0.29898
3326.27	0.30624
3322.15	0.31254
3318.03	0.31933
3313.91	0.32489
3309.79	0.33131
3305.67	0.33805
3301.55	0.34267
3297.43	0.34682
3293.31	0.35150
3289.19	0.35508
3285.08	0.35680
3280.96	0.35825
3276.84	0.35864
3272.72	0.35781
3268.6	0.35619
3264.48	0.35191
3260.36	0.34619
3256.24	0.34017
3252.12	0.33387
3248	0.32817
3243.88	0.32156
3239.76	0.31575
3235.64	0.30860
3231.53	0.30262
3227.41	0.29583
3223.29	0.28920
3219.17	0.28248
3215.05	0.27666
3210.93	0.27112
3206.81	0.26338
3202.69	0.25621
3198.57	0.24831
3194.45	0.24075
3190.33	0.23186
3186.21	0.22367
3182.1	0.21683
3177.98	0.20866
3173.86	0.20095
3169.74	0.19385
3165.62	0.18641
3161.5	0.17937
3157.38	0.17364
3153.26	0.16766
3149.14	0.16194
3145.02	0.15682
3140.9	0.15243
3136.78	0.14926
3132.66	0.14629
3128.55	0.14405
3124.43	0.14270
3120.31	0.14250
3116.19	0.14322
3112.07	0.14330
3107.95	0.14412
3103.83	0.14543
3099.71	0.14755
3095.59	0.14955
3091.47	0.15232
3087.35	0.15570
3083.23	0.15782
3079.11	0.15957
3075	0.15936
3070.88	0.15947
3066.76	0.15858
3062.64	0.15606
3058.52	0.15265
3054.4	0.14895
3050.28	0.14431
3046.16	0.13857
3042.04	0.13321
3037.92	0.12708
3033.8	0.12143
3029.68	0.11558
3025.56	0.11080
3021.45	0.10684
3017.33	0.10267
3013.21	0.09963
3009.09	0.09703
3004.97	0.09549
3000.85	0.09643
2996.73	0.09811
2992.61	0.10077
2988.49	0.10302
2984.37	0.10504
2980.25	0.10510
2976.13	0.10431
2972.02	0.10183
2967.9	0.10028
2963.78	0.09948
2959.66	0.09939
2955.54	0.09916
2951.42	0.10096
2947.3	0.10511
2943.18	0.11006
2939.06	0.11357
2934.94	0.11379
2930.82	0.10946
2926.7	0.10371
2922.58	0.09650
2918.47	0.09073
2914.35	0.08514
2910.23	0.07997
2906.11	0.07504
2901.99	0.07232
2897.87	0.06954
2893.75	0.06767
2889.63	0.06703
2885.51	0.06743
2881.39	0.06735
2877.27	0.06617
2873.15	0.06370
2869.03	0.06048
2864.92	0.05713
2860.8	0.05539
2856.68	0.05385
2852.56	0.05335
2848.44	0.05152
2844.32	0.04996
2840.2	0.04900
2836.08	0.04858
2831.96	0.04793
2827.84	0.04789
2823.72	0.04714
2819.6	0.04649
2815.48	0.04601
2811.37	0.04530
2807.25	0.04345
2803.13	0.04201
2799.01	0.04122
2794.89	0.04019
2790.77	0.03868
2786.65	0.03721
2782.53	0.03576
2778.41	0.03528
2774.29	0.03407
2770.17	0.03250
2766.05	0.03173
2761.94	0.03068
2757.82	0.02965
2753.7	0.02922
2749.58	0.02827
2745.46	0.02741
2741.34	0.02663
2737.22	0.02599
2733.1	0.02528
2728.98	0.02468
2724.86	0.02404
2720.74	0.02334
2716.62	0.02284
2712.5	0.02218
2708.39	0.02192
2704.27	0.02177
2700.15	0.02152
2696.03	0.02167
2691.91	0.02123
2687.79	0.02102
2683.67	0.02047
2679.55	0.02004
2675.43	0.01963
2671.31	0.01977
2667.19	0.01915
2663.07	0.01876
2658.95	0.01855
2654.84	0.01873
2650.72	0.01882
2646.6	0.01808
2642.48	0.01776
2638.36	0.01809
2634.24	0.01806
2630.12	0.01764
2626	0.01751
2621.88	0.01725
2617.76	0.01720
2613.64	0.01696
2609.52	0.01642
2605.4	0.01595
2601.29	0.01607
2597.17	0.01547
2593.05	0.01451
2588.93	0.01414
2584.81	0.01443
2580.69	0.01434
2576.57	0.01293
2572.45	0.01337
2568.33	0.01284
2564.21	0.01216
2560.09	0.01203
2555.97	0.01192
2551.85	0.01162
2547.74	0.01168
2543.62	0.01137
2539.5	0.01115
2535.38	0.01125
2531.26	0.01142
2527.14	0.01106
2523.02	0.01132
2518.9	0.01155
2514.78	0.01118
2510.66	0.01018
2506.54	0.01009
2502.42	0.01088
2498.31	0.01079
2494.19	0.01054
2490.07	0.01083
2485.95	0.01112
2481.83	0.01068
2477.71	0.00977
2473.59	0.01010
2469.47	0.01035
2465.35	0.00928
2461.23	0.00917
2457.11	0.00971
2452.99	0.00951
2448.87	0.00965
2444.76	0.00925
2440.64	0.00890
2436.52	0.00852
2432.4	0.00849
2428.28	0.00878
2424.16	0.00803
2420.04	0.00816
2415.92	0.00834
2411.8	0.00838
2407.68	0.00817
2403.56	0.00748
2399.44	0.00771
2395.32	0.00763
2391.21	0.00767
2387.09	0.00814
2382.97	0.00779
2378.85	0.00774
2374.73	0.00685
2370.61	0.00744
2366.49	0.00736
2362.37	0.00671
2358.25	0.00678
2354.13	0.00767
2350.01	0.00917
2345.89	0.00747
2341.77	0.00706
2337.66	0.00798
2333.54	0.00814
2329.42	0.00931
2325.3	0.00921
2321.18	0.00985
2317.06	0.00925
2312.94	0.00869
2308.82	0.00869
2304.7	0.00865
2300.58	0.00875
2296.46	0.00860
2292.34	0.00950
2288.23	0.00931
2284.11	0.00914
2279.99	0.00885
2275.87	0.00851
2271.75	0.00800
2267.63	0.00848
2263.51	0.00859
2259.39	0.00864
2255.27	0.00786
2251.15	0.00749
2247.03	0.00989
2242.91	0.01014
2238.79	0.00876
2234.68	0.00788
2230.56	0.00776
2226.44	0.00729
2222.32	0.00645
2218.2	0.00804
2214.08	0.00852
2209.96	0.00819
2205.84	0.00868
2201.72	0.00817
2197.6	0.00889
2193.48	0.00949
2189.36	0.00911
2185.24	0.00951
2181.13	0.00782
2177.01	0.00849
2172.89	0.00919
2168.77	0.01039
2164.65	0.00989
2160.53	0.00619
2156.41	0.00500
2152.29	0.00699
2148.17	0.00771
2144.05	0.00635
2139.93	0.00728
2135.81	0.00654
2131.69	0.00732
2127.58	0.00917
2123.46	0.00934
2119.34	0.00872
2115.22	0.00976
2111.1	0.00946
2106.98	0.00953
2102.86	0.00860
2098.74	0.00804
2094.62	0.00846
2090.5	0.00905
2086.38	0.00829
2082.26	0.00790
2078.14	0.00840
2074.03	0.00904
2069.91	0.01005
2065.79	0.00951
2061.67	0.00889
2057.55	0.00898
2053.43	0.00880
2049.31	0.00896
2045.19	0.00792
2041.07	0.00636
2036.95	0.00668
2032.83	0.00646
2028.71	0.00590
2024.6	0.00743
2020.48	0.00589
2016.36	0.00634
2012.24	0.00658
2008.12	0.00640
2004	0.00556
1999.88	0.00547
1995.76	0.00714
1991.64	0.00682
1987.52	0.00748
1983.4	0.00750
1979.28	0.00705
1975.16	0.00413
1971.05	0.00445
1966.93	0.00513
1962.81	0.00590
1958.69	0.00395
1954.57	0.00430
1950.45	0.00443
1946.33	0.00474
1942.21	0.00505
1938.09	0.00521
1933.97	0.00449
1929.85	0.00524
1925.73	0.00553
1921.61	0.00539
1917.5	0.00510
1913.38	0.00656
1909.26	0.00554
1905.14	0.00584
1901.02	0.00569
1896.9	0.00666
1892.78	0.00720
1888.66	0.00616
1884.54	0.00690
1880.42	0.00643
1876.3	0.00667
1872.18	0.00727
1868.06	0.00577
1863.95	0.00694
1859.83	0.00626
1855.71	0.00624
1851.59	0.00668
1847.47	0.00747
1843.35	0.00603
1839.23	0.00722
1835.11	0.00728
1830.99	0.00672
1826.87	0.00764
1822.75	0.00801
1818.63	0.00803
1814.52	0.00847
1810.4	0.00790
1806.28	0.00912
1802.16	0.00863
1798.04	0.00997
1793.92	0.00990
1789.8	0.01036
1785.68	0.01042
1781.56	0.01060
1777.44	0.01214
1773.32	0.01122
1769.2	0.01208
1765.08	0.01306
1760.97	0.01244
1756.85	0.01362
1752.73	0.01475
1748.61	0.01451
1744.49	0.01635
1740.37	0.01621
1736.25	0.01821
1732.13	0.01841
1728.01	0.02085
1723.89	0.02225
1719.77	0.02516
1715.65	0.02982
1711.53	0.03937
1707.42	0.04968
1703.3	0.06756
1699.18	0.08867
1695.06	0.11427
1690.94	0.13564
1686.82	0.15476
1682.7	0.18150
1678.58	0.20619
1674.46	0.22916
1670.34	0.25541
1666.22	0.28574
1662.1	0.31108
1657.98	0.33955
1653.87	0.35830
1649.75	0.39183
1645.63	0.40539
1641.51	0.41941
1637.39	0.42074
1633.27	0.42000
1629.15	0.40696
1625.03	0.38357
1620.91	0.35382
1616.79	0.31789
1612.67	0.28455
1608.55	0.24614
1604.44	0.21250
1600.32	0.19007
1596.2	0.17671
1592.08	0.16659
1587.96	0.16082
1583.84	0.16203
1579.72	0.16980
1575.6	0.18194
1571.48	0.19969
1567.36	0.22034
1563.24	0.24080
1559.12	0.25880
1555	0.29286
1550.89	0.31082
1546.77	0.32997
1542.65	0.34491
1538.53	0.36335
1534.41	0.37241
1530.29	0.38072
1526.17	0.38348
1522.05	0.38655
1517.93	0.39666
1513.81	0.40224
1509.69	0.39144
1505.57	0.36112
1501.45	0.33843
1497.34	0.30184
1493.22	0.27015
1489.1	0.23446
1484.98	0.20687
1480.86	0.18601
1476.74	0.17229
1472.62	0.16344
1468.5	0.16430
1464.38	0.16580
1460.26	0.17403
1456.14	0.18331
1452.02	0.19129
1447.9	0.18492
1443.79	0.17418
1439.67	0.16111
1435.55	0.14761
1431.43	0.14197
1427.31	0.14189
1423.19	0.14782
1419.07	0.15598
1414.95	0.16769
1410.83	0.17088
1406.71	0.16839
1402.59	0.16117
1398.47	0.15464
1394.35	0.15412
1390.24	0.15818
1386.12	0.16159
1382	0.16446
1377.88	0.16325
1373.76	0.15779
1369.64	0.14916
1365.52	0.13758
1361.4	0.12615
1357.28	0.12038
1353.16	0.11834
1349.04	0.12109
1344.92	0.12814
1340.81	0.13583
1336.69	0.14293
1332.57	0.14392
1328.45	0.13908
1324.33	0.13145
1320.21	0.12479
1316.09	0.12239
1311.97	0.12294
1307.85	0.12519
1303.73	0.12796
1299.61	0.13056
1295.49	0.13340
1291.37	0.13616
1287.26	0.13847
1283.14	0.14123
1279.02	0.14520
1274.9	0.15114
1270.78	0.15802
1266.66	0.16517
1262.54	0.17240
1258.42	0.17962
1254.3	0.18755
1250.18	0.19688
1246.06	0.20595
1241.94	0.21407
1237.82	0.21960
1233.71	0.22095
1229.59	0.21653
1225.47	0.20622
1221.35	0.19054
1217.23	0.17237
1213.11	0.15423
1208.99	0.13851
1204.87	0.12511
1200.75	0.11373
1196.63	0.10502
1192.51	0.09989
1188.39	0.09753
1184.27	0.09750
1180.16	0.10103
1176.04	0.10721
1171.92	0.11198
1167.8	0.11276
1163.68	0.11158
1159.56	0.10837
1155.44	0.10399
1151.32	0.09875
1147.2	0.09370
1143.08	0.08919
1138.96	0.08572
1134.84	0.08355
1130.73	0.08226
1126.61	0.08175
1122.49	0.08150
1118.37	0.08133
1114.25	0.08100
1110.13	0.08116
1106.01	0.08185
1101.89	0.08088
1097.77	0.07832
1093.65	0.07698
1089.53	0.07923
1085.41	0.08459
1081.29	0.09081
1077.18	0.09676
1073.06	0.10038
1068.94	0.10133
1064.82	0.10155
1060.7	0.10264
1056.58	0.10406
1052.46	0.10238
1048.34	0.09715
1044.22	0.09091
1040.1	0.08552
1035.98	0.08213
1031.86	0.08081
1027.74	0.08020
1023.63	0.08027
1019.51	0.08541
1015.39	0.09125
1011.27	0.08902
1007.15	0.07978
1003.03	0.06951
998.91	0.06161
994.791	0.05578
990.672	0.05134
986.552	0.04833
982.433	0.04665
978.314	0.04593
974.195	0.04588
970.076	0.04659
965.956	0.04778
961.837	0.04941
957.718	0.05092
953.599	0.05260
949.48	0.05385
945.36	0.05426
941.241	0.05353
937.122	0.05218
933.003	0.05049
928.883	0.04894
924.764	0.04712
920.645	0.04563
916.526	0.04446
912.407	0.04302
908.287	0.04185
904.168	0.04095
900.049	0.04064
895.93	0.04020
891.81	0.03988
887.691	0.03997
883.572	0.04049
879.453	0.04106
875.334	0.04192
871.214	0.04301
867.095	0.04477
862.976	0.04708
858.857	0.04990
854.738	0.05264
850.618	0.05403
846.499	0.05407
842.38	0.05502
838.261	0.05688
834.141	0.05919
830.022	0.06068
825.903	0.06085
821.784	0.06098
817.665	0.06119
813.545	0.06227
809.426	0.06413
805.307	0.06579
801.188	0.06678
797.068	0.06747
792.949	0.06824
788.83	0.06970
784.711	0.07099
780.592	0.07237
776.472	0.07421
772.353	0.07559
768.234	0.07713
764.115	0.07941
759.996	0.08147
755.876	0.08357
751.757	0.08598
747.638	0.08815
743.519	0.09067
739.399	0.09284
735.28	0.09452
731.161	0.09673
727.042	0.09879
722.923	0.10089
718.803	0.10285
714.684	0.10494
710.565	0.10719
706.446	0.10928
702.327	0.11173
698.207	0.11384
694.088	0.11540
689.969	0.11739
685.85	0.11905
681.73	0.12066
677.611	0.12222
673.492	0.12336
669.373	0.12538
665.254	0.12648
661.134	0.12724
657.015	0.12795
652.896	0.12816
648.777	0.12835
644.657	0.12859
640.538	0.12861
636.419	0.12871
632.3	0.12877
628.181	0.12829
624.061	0.12833
619.942	0.12827
615.823	0.12812
611.704	0.12832
607.585	0.12840
603.465	0.12853
599.346	0.12858
595.227	0.12923
591.108	0.12996
586.988	0.13060
582.869	0.13198
578.75	0.13361
574.631	0.13472
570.512	0.13598
566.392	0.13869
562.273	0.14059
558.154	0.14243
554.035	0.14415
549.915	0.14556
545.796	0.14642
541.677	0.14751
537.558	0.14751
533.439	0.14691
529.319	0.14571
525.2	0.14451
521.081	0.14486
516.962	0.14470
512.843	0.14428
508.723	0.14397
504.604	0.14363
500.485	0.14269
496.366	0.14212
492.246	0.14154
488.127	0.14054
484.008	0.13891
479.889	0.13781
475.77	0.13681
471.65	0.13462
467.531	0.13313
463.412	0.13131
459.293	0.12982
455.173	0.12837
451.054	0.12639
446.935	0.12503
442.816	0.12336
438.697	0.12263
434.577	0.12137
430.458	0.11939
426.339	0.11879
422.22	0.11858
418.101	0.11652
413.981	0.11749
409.862	0.11640
405.743	0.11554
401.624	0.11478
399.564	0.11409