File: FTIR/db-LASE IR data/Silk only film/Silk only 6.21.22 1.dpt
3997.7	0.00264
3993.58	0.00322
3989.46	0.00232
3985.34	0.00327
3981.22	0.00288
3977.1	0.00173
3972.98	0.00287
3968.87	0.00317
3964.75	0.00312
3960.63	0.00283
3956.51	0.00261
3952.39	0.00207
3948.27	0.00256
3944.15	0.00233
3940.03	0.00281
3935.91	0.00280
3931.79	0.00263
3927.67	0.00314
3923.55	0.00402
3919.44	0.00331
3915.32	0.00256
3911.2	0.00197
3907.08	0.00180
3902.96	0.00254
3898.84	0.00221
3894.72	0.00095
3890.6	0.00148
3886.48	0.00244
3882.36	0.00198
3878.24	0.00144
3874.12	0.00119
3870	0.00164
3865.89	0.00201
3861.77	0.00339
3857.65	0.00209
3853.53	0.00277
3849.41	0.00210
3845.29	0.00207
3841.17	0.00252
3837.05	0.00243
3832.93	0.00221
3828.81	0.00222
3824.69	0.00053
3820.57	0.00242
3816.45	0.00239
3812.34	0.00275
3808.22	0.00234
3804.1	0.00350
3799.98	0.00282
3795.86	0.00165
3791.74	0.00314
3787.62	0.00303
3783.5	0.00306
3779.38	0.00278
3775.26	0.00202
3771.14	0.00318
3767.02	0.00298
3762.9	0.00304
3758.79	0.00168
3754.67	0.00188
3750.55	0.00374
3746.43	0.00408
3742.31	0.00303
3738.19	0.00275
3734.07	0.00545
3729.95	0.00312
3725.83	0.00143
3721.71	0.00205
3717.59	0.00173
3713.47	0.00339
3709.35	0.00315
3705.24	0.00220
3701.12	0.00378
3697	0.00378
3692.88	0.00433
3688.76	0.00503
3684.64	0.00411
3680.52	0.00445
3676.4	0.00368
3672.28	0.00475
3668.16	0.00561
3664.04	0.00646
3659.92	0.00730
3655.81	0.00843
3651.69	0.00926
3647.57	0.01105
3643.45	0.01106
3639.33	0.01232
3635.21	0.01261
3631.09	0.01386
3626.97	0.01571
3622.85	0.01725
3618.73	0.01908
3614.61	0.01931
3610.49	0.01898
3606.37	0.02067
3602.26	0.02241
3598.14	0.02423
3594.02	0.02584
3589.9	0.02831
3585.78	0.03084
3581.66	0.02938
3577.54	0.03005
3573.42	0.03297
3569.3	0.03487
3565.18	0.03660
3561.06	0.03848
3556.94	0.03904
3552.82	0.04025
3548.71	0.04196
3544.59	0.04462
3540.47	0.04626
3536.35	0.04760
3532.23	0.04808
3528.11	0.05041
3523.99	0.05210
3519.87	0.05392
3515.75	0.05398
3511.63	0.05520
3507.51	0.05567
3503.39	0.05650
3499.27	0.05830
3495.16	0.05862
3491.04	0.05994
3486.92	0.06088
3482.8	0.06185
3478.68	0.06204
3474.56	0.06360
3470.44	0.06339
3466.32	0.06367
3462.2	0.06510
3458.08	0.06673
3453.96	0.06718
3449.84	0.06703
3445.73	0.06828
3441.61	0.06954
3437.49	0.07070
3433.37	0.07133
3429.25	0.07322
3425.13	0.07409
3421.01	0.07332
3416.89	0.07408
3412.77	0.07703
3408.65	0.07894
3404.53	0.08096
3400.41	0.08096
3396.29	0.08246
3392.18	0.08342
3388.06	0.08460
3383.94	0.08696
3379.82	0.08802
3375.7	0.08941
3371.58	0.09088
3367.46	0.09293
3363.34	0.09483
3359.22	0.09671
3355.1	0.09838
3350.98	0.10068
3346.86	0.10265
3342.74	0.10435
3338.63	0.10615
3334.51	0.10832
3330.39	0.11080
3326.27	0.11335
3322.15	0.11590
3318.03	0.11850
3313.91	0.12031
3309.79	0.12217
3305.67	0.12526
3301.55	0.12722
3297.43	0.12913
3293.31	0.13095
3289.19	0.13146
3285.08	0.13317
3280.96	0.13372
3276.84	0.13421
3272.72	0.13502
3268.6	0.13287
3264.48	0.13107
3260.36	0.12894
3256.24	0.12663
3252.12	0.12476
3248	0.12258
3243.88	0.12004
3239.76	0.11842
3235.64	0.11622
3231.53	0.11303
3227.41	0.10998
3223.29	0.10798
3219.17	0.10583
3215.05	0.10360
3210.93	0.10134
3206.81	0.09835
3202.69	0.09654
3198.57	0.09464
3194.45	0.09040
3190.33	0.08713
3186.21	0.08445
3182.1	0.08233
3177.98	0.07974
3173.86	0.07669
3169.74	0.07401
3165.62	0.07181
3161.5	0.06953
3157.38	0.06661
3153.26	0.06491
3149.14	0.06142
3145.02	0.06066
3140.9	0.05967
3136.78	0.05818
3132.66	0.05689
3128.55	0.05548
3124.43	0.05544
3120.31	0.05569
3116.19	0.05540
3112.07	0.05522
3107.95	0.05576
3103.83	0.05667
3099.71	0.05701
3095.59	0.05777
3091.47	0.05891
3087.35	0.06049
3083.23	0.06122
3079.11	0.06193
3075	0.06192
3070.88	0.06179
3066.76	0.06104
3062.64	0.06081
3058.52	0.05933
3054.4	0.05743
3050.28	0.05559
3046.16	0.05258
3042.04	0.05108
3037.92	0.04891
3033.8	0.04730
3029.68	0.04517
3025.56	0.04308
3021.45	0.04151
3017.33	0.04045
3013.21	0.03959
3009.09	0.03779
3004.97	0.03738
3000.85	0.03800
2996.73	0.03877
2992.61	0.03980
2988.49	0.04068
2984.37	0.04205
2980.25	0.04235
2976.13	0.04166
2972.02	0.04146
2967.9	0.04040
2963.78	0.04019
2959.66	0.04101
2955.54	0.04047
2951.42	0.04010
2947.3	0.04194
2943.18	0.04423
2939.06	0.04556
2934.94	0.04571
2930.82	0.04411
2926.7	0.04319
2922.58	0.03976
2918.47	0.03737
2914.35	0.03532
2910.23	0.03301
2906.11	0.03114
2901.99	0.02975
2897.87	0.02898
2893.75	0.02780
2889.63	0.02795
2885.51	0.02846
2881.39	0.02812
2877.27	0.02752
2873.15	0.02618
2869.03	0.02515
2864.92	0.02432
2860.8	0.02315
2856.68	0.02254
2852.56	0.02204
2848.44	0.02179
2844.32	0.02075
2840.2	0.02022
2836.08	0.02034
2831.96	0.02054
2827.84	0.01970
2823.72	0.01902
2819.6	0.01942
2815.48	0.01889
2811.37	0.01848
2807.25	0.01848
2803.13	0.01779
2799.01	0.01740
2794.89	0.01686
2790.77	0.01607
2786.65	0.01586
2782.53	0.01542
2778.41	0.01499
2774.29	0.01434
2770.17	0.01379
2766.05	0.01329
2761.94	0.01311
2757.82	0.01280
2753.7	0.01235
2749.58	0.01254
2745.46	0.01230
2741.34	0.01122
2737.22	0.01081
2733.1	0.01073
2728.98	0.01019
2724.86	0.01020
2720.74	0.01014
2716.62	0.01001
2712.5	0.01011
2708.39	0.00968
2704.27	0.00954
2700.15	0.00935
2696.03	0.00979
2691.91	0.00973
2687.79	0.00890
2683.67	0.00878
2679.55	0.00864
2675.43	0.00843
2671.31	0.00843
2667.19	0.00841
2663.07	0.00868
2658.95	0.00871
2654.84	0.00861
2650.72	0.00885
2646.6	0.00887
2642.48	0.00860
2638.36	0.00802
2634.24	0.00770
2630.12	0.00750
2626	0.00793
2621.88	0.00798
2617.76	0.00719
2613.64	0.00741
2609.52	0.00718
2605.4	0.00707
2601.29	0.00705
2597.17	0.00703
2593.05	0.00672
2588.93	0.00629
2584.81	0.00615
2580.69	0.00559
2576.57	0.00504
2572.45	0.00540
2568.33	0.00600
2564.21	0.00542
2560.09	0.00522
2555.97	0.00528
2551.85	0.00430
2547.74	0.00498
2543.62	0.00509
2539.5	0.00483
2535.38	0.00413
2531.26	0.00475
2527.14	0.00516
2523.02	0.00479
2518.9	0.00443
2514.78	0.00379
2510.66	0.00426
2506.54	0.00484
2502.42	0.00467
2498.31	0.00415
2494.19	0.00359
2490.07	0.00341
2485.95	0.00375
2481.83	0.00440
2477.71	0.00380
2473.59	0.00447
2469.47	0.00444
2465.35	0.00386
2461.23	0.00332
2457.11	0.00355
2452.99	0.00367
2448.87	0.00318
2444.76	0.00362
2440.64	0.00315
2436.52	0.00274
2432.4	0.00308
2428.28	0.00322
2424.16	0.00282
2420.04	0.00348
2415.92	0.00300
2411.8	0.00387
2407.68	0.00295
2403.56	0.00263
2399.44	0.00198
2395.32	0.00244
2391.21	0.00260
2387.09	0.00331
2382.97	0.00286
2378.85	0.00292
2374.73	0.00273
2370.61	0.00316
2366.49	0.00299
2362.37	0.00368
2358.25	0.00346
2354.13	0.00355
2350.01	0.00340
2345.89	0.00327
2341.77	0.00316
2337.66	0.00368
2333.54	0.00354
2329.42	0.00340
2325.3	0.00464
2321.18	0.00385
2317.06	0.00368
2312.94	0.00376
2308.82	0.00460
2304.7	0.00443
2300.58	0.00398
2296.46	0.00341
2292.34	0.00466
2288.23	0.00455
2284.11	0.00422
2279.99	0.00442
2275.87	0.00407
2271.75	0.00321
2267.63	0.00252
2263.51	0.00246
2259.39	0.00281
2255.27	0.00245
2251.15	0.00433
2247.03	0.00487
2242.91	0.00362
2238.79	0.00372
2234.68	0.00310
2230.56	0.00223
2226.44	0.00283
2222.32	0.00283
2218.2	0.00241
2214.08	0.00252
2209.96	0.00154
2205.84	0.00318
2201.72	0.00330
2197.6	0.00479
2193.48	0.00332
2189.36	0.00364
2185.24	0.00211
2181.13	0.00074
2177.01	0.00222
2172.89	0.00426
2168.77	0.00323
2164.65	0.00534
2160.53	0.00549
2156.41	0.00124
2152.29	0.00189
2148.17	0.00291
2144.05	0.00158
2139.93	0.00213
2135.81	0.00310
2131.69	0.00226
2127.58	0.00306
2123.46	0.00318
2119.34	0.00361
2115.22	0.00382
2111.1	0.00329
2106.98	0.00336
2102.86	0.00272
2098.74	0.00289
2094.62	0.00234
2090.5	0.00330
2086.38	0.00354
2082.26	0.00378
2078.14	0.00387
2074.03	0.00371
2069.91	0.00279
2065.79	0.00337
2061.67	0.00325
2057.55	0.00329
2053.43	0.00248
2049.31	0.00344
2045.19	0.00237
2041.07	0.00050
2036.95	0.00218
2032.83	0.00135
2028.71	0.00108
2024.6	0.00282
2020.48	0.00080
2016.36	0.00234
2012.24	0.00262
2008.12	0.00117
2004	0.00128
1999.88	0.00254
1995.76	0.00384
1991.64	0.00323
1987.52	0.00170
1983.4	0.00260
1979.28	0.00511
1975.16	0.00253
1971.05	0.00227
1966.93	0.00118
1962.81	-0.00117
1958.69	-0.00019
1954.57	0.00066
1950.45	0.00118
1946.33	0.00122
1942.21	0.00136
1938.09	0.00173
1933.97	0.00231
1929.85	0.00276
1925.73	0.00186
1921.61	0.00140
1917.5	0.00224
1913.38	0.00390
1909.26	0.00275
1905.14	0.00230
1901.02	0.00259
1896.9	0.00262
1892.78	0.00261
1888.66	0.00263
1884.54	0.00259
1880.42	0.00233
1876.3	0.00276
1872.18	0.00271
1868.06	0.00256
1863.95	0.00268
1859.83	0.00247
1855.71	0.00269
1851.59	0.00288
1847.47	0.00275
1843.35	0.00309
1839.23	0.00322
1835.11	0.00318
1830.99	0.00285
1826.87	0.00303
1822.75	0.00305
1818.63	0.00315
1814.52	0.00341
1810.4	0.00357
1806.28	0.00371
1802.16	0.00400
1798.04	0.00427
1793.92	0.00415
1789.8	0.00411
1785.68	0.00448
1781.56	0.00482
1777.44	0.00509
1773.32	0.00511
1769.2	0.00516
1765.08	0.00538
1760.97	0.00584
1756.85	0.00608
1752.73	0.00639
1748.61	0.00674
1744.49	0.00685
1740.37	0.00744
1736.25	0.00780
1732.13	0.00818
1728.01	0.00864
1723.89	0.00971
1719.77	0.01099
1715.65	0.01370
1711.53	0.01684
1707.42	0.02167
1703.3	0.02818
1699.18	0.03826
1695.06	0.04786
1690.94	0.05604
1686.82	0.06434
1682.7	0.07550
1678.58	0.08380
1674.46	0.09352
1670.34	0.10361
1666.22	0.11440
1662.1	0.12418
1657.98	0.13329
1653.87	0.14221
1649.75	0.15064
1645.63	0.15616
1641.51	0.15947
1637.39	0.16139
1633.27	0.15982
1629.15	0.15689
1625.03	0.15059
1620.91	0.14112
1616.79	0.13043
1612.67	0.11745
1608.55	0.10324
1604.44	0.08975
1600.32	0.08041
1596.2	0.07481
1592.08	0.07034
1587.96	0.06783
1583.84	0.06825
1579.72	0.07103
1575.6	0.07624
1571.48	0.08197
1567.36	0.09000
1563.24	0.09766
1559.12	0.10644
1555	0.11661
1550.89	0.12397
1546.77	0.13064
1542.65	0.13710
1538.53	0.14294
1534.41	0.14615
1530.29	0.14894
1526.17	0.15037
1522.05	0.15184
1517.93	0.15481
1513.81	0.15702
1509.69	0.15495
1505.57	0.14631
1501.45	0.13813
1497.34	0.12642
1493.22	0.11394
1489.1	0.10127
1484.98	0.08949
1480.86	0.08103
1476.74	0.07526
1472.62	0.07168
1468.5	0.07060
1464.38	0.07152
1460.26	0.07435
1456.14	0.07924
1452.02	0.08089
1447.9	0.07972
1443.79	0.07550
1439.67	0.07023
1435.55	0.06495
1431.43	0.06228
1427.31	0.06156
1423.19	0.06386
1419.07	0.06795
1414.95	0.07222
1410.83	0.07435
1406.71	0.07366
1402.59	0.07065
1398.47	0.06846
1394.35	0.06805
1390.24	0.06933
1386.12	0.07125
1382	0.07191
1377.88	0.07121
1373.76	0.06961
1369.64	0.06594
1365.52	0.06086
1361.4	0.05609
1357.28	0.05317
1353.16	0.05234
1349.04	0.05354
1344.92	0.05642
1340.81	0.06013
1336.69	0.06315
1332.57	0.06381
1328.45	0.06191
1324.33	0.05854
1320.21	0.05603
1316.09	0.05475
1311.97	0.05493
1307.85	0.05574
1303.73	0.05649
1299.61	0.05720
1295.49	0.05843
1291.37	0.05936
1287.26	0.06048
1283.14	0.06163
1279.02	0.06318
1274.9	0.06582
1270.78	0.06883
1266.66	0.07150
1262.54	0.07409
1258.42	0.07715
1254.3	0.08036
1250.18	0.08415
1246.06	0.08804
1241.94	0.09167
1237.82	0.09436
1233.71	0.09520
1229.59	0.09400
1225.47	0.09033
1221.35	0.08476
1217.23	0.07773
1213.11	0.07036
1208.99	0.06370
1204.87	0.05780
1200.75	0.05266
1196.63	0.04888
1192.51	0.04615
1188.39	0.04493
1184.27	0.04491
1180.16	0.04626
1176.04	0.04889
1171.92	0.05112
1167.8	0.05140
1163.68	0.05116
1159.56	0.04988
1155.44	0.04813
1151.32	0.04602
1147.2	0.04356
1143.08	0.04158
1138.96	0.04000
1134.84	0.03897
1130.73	0.03854
1126.61	0.03827
1122.49	0.03823
1118.37	0.03833
1114.25	0.03819
1110.13	0.03838
1106.01	0.03896
1101.89	0.03865
1097.77	0.03768
1093.65	0.03706
1089.53	0.03796
1085.41	0.04021
1081.29	0.04319
1077.18	0.04592
1073.06	0.04772
1068.94	0.04846
1064.82	0.04862
1060.7	0.04929
1056.58	0.04999
1052.46	0.04944
1048.34	0.04705
1044.22	0.04402
1040.1	0.04181
1035.98	0.04024
1031.86	0.03962
1027.74	0.03902
1023.63	0.03894
1019.51	0.04106
1015.39	0.04366
1011.27	0.04249
1007.15	0.03817
1003.03	0.03345
998.91	0.02984
994.791	0.02736
990.672	0.02510
986.552	0.02323
982.433	0.02257
978.314	0.02231
974.195	0.02226
970.076	0.02241
965.956	0.02318
961.837	0.02391
957.718	0.02455
953.599	0.02515
949.48	0.02584
945.36	0.02590
941.241	0.02533
937.122	0.02486
933.003	0.02396
928.883	0.02330
924.764	0.02247
920.645	0.02167
916.526	0.02114
912.407	0.02037
908.287	0.01994
904.168	0.01995
900.049	0.01972
895.93	0.01963
891.81	0.01960
887.691	0.01948
883.572	0.01967
879.453	0.02002
875.334	0.02030
871.214	0.02053
867.095	0.02156
862.976	0.02285
858.857	0.02436
854.738	0.02565
850.618	0.02634
846.499	0.02635
842.38	0.02702
838.261	0.02789
834.141	0.02915
830.022	0.02953
825.903	0.02999
821.784	0.03002
817.665	0.03002
813.545	0.03076
809.426	0.03159
805.307	0.03242
801.188	0.03282
797.068	0.03346
792.949	0.03393
788.83	0.03456
784.711	0.03543
780.592	0.03604
776.472	0.03712
772.353	0.03796
768.234	0.03887
764.115	0.03980
759.996	0.04083
755.876	0.04203
751.757	0.04339
747.638	0.04474
743.519	0.04595
739.399	0.04692
735.28	0.04823
731.161	0.04945
727.042	0.05067
722.923	0.05161
718.803	0.05288
714.684	0.05379
710.565	0.05503
706.446	0.05656
702.327	0.05763
698.207	0.05873
694.088	0.05980
689.969	0.06097
685.85	0.06179
681.73	0.06276
677.611	0.06408
673.492	0.06468
669.373	0.06540
665.254	0.06615
661.134	0.06629
657.015	0.06688
652.896	0.06763
648.777	0.06758
644.657	0.06767
640.538	0.06792
636.419	0.06801
632.3	0.06836
628.181	0.06861
624.061	0.06870
619.942	0.06869
615.823	0.06901
611.704	0.06910
607.585	0.06915
603.465	0.06915
599.346	0.06940
595.227	0.06983
591.108	0.07071
586.988	0.07118
582.869	0.07151
578.75	0.07246
574.631	0.07381
570.512	0.07467
566.392	0.07590
562.273	0.07744
558.154	0.07857
554.035	0.07979
549.915	0.08080
545.796	0.08142
541.677	0.08177
537.558	0.08186
533.439	0.08188
529.319	0.08179
525.2	0.08146
521.081	0.08171
516.962	0.08135
512.843	0.08155
508.723	0.08154
504.604	0.08161
500.485	0.08136
496.366	0.08137
492.246	0.08116
488.127	0.08100
484.008	0.08069
479.889	0.07984
475.77	0.07864
471.65	0.07828
467.531	0.07776
463.412	0.07710
459.293	0.07607
455.173	0.07602
451.054	0.07506
446.935	0.07422
442.816	0.07316
438.697	0.07261
434.577	0.07225
430.458	0.07240
426.339	0.07191
422.22	0.07080
418.101	0.07166
413.981	0.07235
409.862	0.07156
405.743	0.07033
401.624	0.06991
399.564	0.06953