File: FTIR/db-LASE IR data/Silk only film/Silk only 6_28_2022 1.dpt
3997.7	0.00594
3993.58	0.00599
3989.46	0.00584
3985.34	0.00518
3981.22	0.00601
3977.1	0.00625
3972.98	0.00629
3968.87	0.00566
3964.75	0.00445
3960.63	0.00612
3956.51	0.00486
3952.39	0.00486
3948.27	0.00582
3944.15	0.00523
3940.03	0.00489
3935.91	0.00528
3931.79	0.00539
3927.67	0.00498
3923.55	0.00545
3919.44	0.00523
3915.32	0.00394
3911.2	0.00433
3907.08	0.00379
3902.96	0.00324
3898.84	0.00377
3894.72	0.00399
3890.6	0.00447
3886.48	0.00488
3882.36	0.00433
3878.24	0.00423
3874.12	0.00379
3870	0.00431
3865.89	0.00463
3861.77	0.00423
3857.65	0.00332
3853.53	0.00405
3849.41	0.00606
3845.29	0.00510
3841.17	0.00387
3837.05	0.00432
3832.93	0.00409
3828.81	0.00455
3824.69	0.00474
3820.57	0.00301
3816.45	0.00240
3812.34	0.00401
3808.22	0.00416
3804.1	0.00403
3799.98	0.00402
3795.86	0.00338
3791.74	0.00313
3787.62	0.00405
3783.5	0.00432
3779.38	0.00458
3775.26	0.00461
3771.14	0.00492
3767.02	0.00599
3762.9	0.00539
3758.79	0.00450
3754.67	0.00554
3750.55	0.00420
3746.43	0.00533
3742.31	0.00694
3738.19	0.00586
3734.07	0.00433
3729.95	0.00564
3725.83	0.00562
3721.71	0.00644
3717.59	0.00526
3713.47	0.00464
3709.35	0.00540
3705.24	0.00609
3701.12	0.00568
3697	0.00684
3692.88	0.00685
3688.76	0.00720
3684.64	0.00863
3680.52	0.01067
3676.4	0.01073
3672.28	0.01219
3668.16	0.01536
3664.04	0.01638
3659.92	0.01719
3655.81	0.02005
3651.69	0.02111
3647.57	0.02297
3643.45	0.02637
3639.33	0.02893
3635.21	0.03157
3631.09	0.03408
3626.97	0.03879
3622.85	0.04148
3618.73	0.04413
3614.61	0.04514
3610.49	0.04922
3606.37	0.05380
3602.26	0.05632
3598.14	0.05943
3594.02	0.06257
3589.9	0.06610
3585.78	0.07066
3581.66	0.07463
3577.54	0.07807
3573.42	0.08206
3569.3	0.08481
3565.18	0.08973
3561.06	0.09563
3556.94	0.09829
3552.82	0.10167
3548.71	0.10632
3544.59	0.11163
3540.47	0.11495
3536.35	0.11887
3532.23	0.12266
3528.11	0.12600
3523.99	0.12901
3519.87	0.13229
3515.75	0.13491
3511.63	0.13780
3507.51	0.14188
3503.39	0.14446
3499.27	0.14731
3495.16	0.15009
3491.04	0.15137
3486.92	0.15290
3482.8	0.15543
3478.68	0.15778
3474.56	0.15979
3470.44	0.16174
3466.32	0.16412
3462.2	0.16492
3458.08	0.16609
3453.96	0.16822
3449.84	0.17045
3445.73	0.17268
3441.61	0.17462
3437.49	0.17739
3433.37	0.17885
3429.25	0.18101
3425.13	0.18359
3421.01	0.18633
3416.89	0.18977
3412.77	0.19276
3408.65	0.19599
3404.53	0.20014
3400.41	0.20339
3396.29	0.20688
3392.18	0.21080
3388.06	0.21392
3383.94	0.21708
3379.82	0.22195
3375.7	0.22664
3371.58	0.23057
3367.46	0.23471
3363.34	0.23941
3359.22	0.24531
3355.1	0.25043
3350.98	0.25580
3346.86	0.26181
3342.74	0.26803
3338.63	0.27420
3334.51	0.27967
3330.39	0.28575
3326.27	0.29191
3322.15	0.29810
3318.03	0.30402
3313.91	0.31060
3309.79	0.31811
3305.67	0.32426
3301.55	0.33003
3297.43	0.33391
3293.31	0.33853
3289.19	0.34172
3285.08	0.34346
3280.96	0.34514
3276.84	0.34560
3272.72	0.34498
3268.6	0.34268
3264.48	0.33760
3260.36	0.33298
3256.24	0.32723
3252.12	0.32073
3248	0.31476
3243.88	0.30860
3239.76	0.30292
3235.64	0.29638
3231.53	0.29037
3227.41	0.28405
3223.29	0.27738
3219.17	0.26979
3215.05	0.26399
3210.93	0.25805
3206.81	0.25033
3202.69	0.24402
3198.57	0.23709
3194.45	0.22922
3190.33	0.22034
3186.21	0.21282
3182.1	0.20543
3177.98	0.19784
3173.86	0.19015
3169.74	0.18304
3165.62	0.17603
3161.5	0.16900
3157.38	0.16292
3153.26	0.15827
3149.14	0.15344
3145.02	0.14844
3140.9	0.14430
3136.78	0.14034
3132.66	0.13680
3128.55	0.13493
3124.43	0.13408
3120.31	0.13412
3116.19	0.13444
3112.07	0.13437
3107.95	0.13568
3103.83	0.13653
3099.71	0.13924
3095.59	0.14055
3091.47	0.14377
3087.35	0.14651
3083.23	0.14880
3079.11	0.15059
3075	0.15090
3070.88	0.15082
3066.76	0.15019
3062.64	0.14717
3058.52	0.14388
3054.4	0.13967
3050.28	0.13535
3046.16	0.12988
3042.04	0.12466
3037.92	0.11875
3033.8	0.11355
3029.68	0.10769
3025.56	0.10293
3021.45	0.09957
3017.33	0.09576
3013.21	0.09246
3009.09	0.08981
3004.97	0.08880
3000.85	0.08956
2996.73	0.09104
2992.61	0.09342
2988.49	0.09616
2984.37	0.09883
2980.25	0.09846
2976.13	0.09733
2972.02	0.09515
2967.9	0.09317
2963.78	0.09321
2959.66	0.09323
2955.54	0.09305
2951.42	0.09495
2947.3	0.09905
2943.18	0.10389
2939.06	0.10734
2934.94	0.10774
2930.82	0.10381
2926.7	0.09817
2922.58	0.09157
2918.47	0.08627
2914.35	0.08073
2910.23	0.07529
2906.11	0.07013
2901.99	0.06737
2897.87	0.06508
2893.75	0.06294
2889.63	0.06256
2885.51	0.06265
2881.39	0.06270
2877.27	0.06214
2873.15	0.05944
2869.03	0.05605
2864.92	0.05302
2860.8	0.05155
2856.68	0.05033
2852.56	0.04903
2848.44	0.04801
2844.32	0.04667
2840.2	0.04562
2836.08	0.04511
2831.96	0.04450
2827.84	0.04410
2823.72	0.04386
2819.6	0.04318
2815.48	0.04217
2811.37	0.04138
2807.25	0.04005
2803.13	0.03883
2799.01	0.03806
2794.89	0.03673
2790.77	0.03562
2786.65	0.03447
2782.53	0.03286
2778.41	0.03181
2774.29	0.03091
2770.17	0.02979
2766.05	0.02873
2761.94	0.02772
2757.82	0.02667
2753.7	0.02618
2749.58	0.02534
2745.46	0.02476
2741.34	0.02444
2737.22	0.02349
2733.1	0.02281
2728.98	0.02195
2724.86	0.02183
2720.74	0.02141
2716.62	0.02072
2712.5	0.01989
2708.39	0.02006
2704.27	0.01982
2700.15	0.01925
2696.03	0.01956
2691.91	0.01886
2687.79	0.01886
2683.67	0.01831
2679.55	0.01795
2675.43	0.01783
2671.31	0.01783
2667.19	0.01710
2663.07	0.01707
2658.95	0.01698
2654.84	0.01676
2650.72	0.01680
2646.6	0.01616
2642.48	0.01570
2638.36	0.01560
2634.24	0.01548
2630.12	0.01540
2626	0.01484
2621.88	0.01514
2617.76	0.01562
2613.64	0.01518
2609.52	0.01439
2605.4	0.01405
2601.29	0.01420
2597.17	0.01349
2593.05	0.01292
2588.93	0.01254
2584.81	0.01221
2580.69	0.01231
2576.57	0.01193
2572.45	0.01138
2568.33	0.01079
2564.21	0.00982
2560.09	0.00995
2555.97	0.01004
2551.85	0.01000
2547.74	0.01041
2543.62	0.01025
2539.5	0.00998
2535.38	0.00947
2531.26	0.00942
2527.14	0.00903
2523.02	0.00951
2518.9	0.00968
2514.78	0.00969
2510.66	0.00912
2506.54	0.00871
2502.42	0.00828
2498.31	0.00845
2494.19	0.00870
2490.07	0.00915
2485.95	0.00887
2481.83	0.00900
2477.71	0.00842
2473.59	0.00812
2469.47	0.00796
2465.35	0.00754
2461.23	0.00773
2457.11	0.00767
2452.99	0.00795
2448.87	0.00786
2444.76	0.00738
2440.64	0.00698
2436.52	0.00660
2432.4	0.00709
2428.28	0.00752
2424.16	0.00711
2420.04	0.00709
2415.92	0.00688
2411.8	0.00666
2407.68	0.00658
2403.56	0.00675
2399.44	0.00649
2395.32	0.00663
2391.21	0.00626
2387.09	0.00656
2382.97	0.00674
2378.85	0.00657
2374.73	0.00595
2370.61	0.00640
2366.49	0.00622
2362.37	0.00623
2358.25	0.00584
2354.13	0.00614
2350.01	0.00826
2345.89	0.00664
2341.77	0.00688
2337.66	0.00697
2333.54	0.00678
2329.42	0.00734
2325.3	0.00750
2321.18	0.00881
2317.06	0.00901
2312.94	0.00809
2308.82	0.00745
2304.7	0.00750
2300.58	0.00758
2296.46	0.00744
2292.34	0.00808
2288.23	0.00775
2284.11	0.00792
2279.99	0.00741
2275.87	0.00644
2271.75	0.00646
2267.63	0.00623
2263.51	0.00614
2259.39	0.00744
2255.27	0.00686
2251.15	0.00685
2247.03	0.00710
2242.91	0.00734
2238.79	0.00746
2234.68	0.00606
2230.56	0.00668
2226.44	0.00653
2222.32	0.00575
2218.2	0.00570
2214.08	0.00775
2209.96	0.00727
2205.84	0.00790
2201.72	0.00683
2197.6	0.00715
2193.48	0.00721
2189.36	0.00763
2185.24	0.00771
2181.13	0.00704
2177.01	0.00637
2172.89	0.00684
2168.77	0.00772
2164.65	0.00683
2160.53	0.00574
2156.41	0.00396
2152.29	0.00753
2148.17	0.00815
2144.05	0.00635
2139.93	0.00630
2135.81	0.00476
2131.69	0.00569
2127.58	0.00858
2123.46	0.00813
2119.34	0.00805
2115.22	0.00794
2111.1	0.00812
2106.98	0.00843
2102.86	0.00854
2098.74	0.00704
2094.62	0.00664
2090.5	0.00758
2086.38	0.00828
2082.26	0.00672
2078.14	0.00674
2074.03	0.00746
2069.91	0.00869
2065.79	0.00793
2061.67	0.00729
2057.55	0.00754
2053.43	0.00688
2049.31	0.00646
2045.19	0.00750
2041.07	0.00818
2036.95	0.00463
2032.83	0.00365
2028.71	0.00419
2024.6	0.00514
2020.48	0.00414
2016.36	0.00455
2012.24	0.00506
2008.12	0.00434
2004	0.00348
1999.88	0.00358
1995.76	0.00492
1991.64	0.00375
1987.52	0.00512
1983.4	0.00538
1979.28	0.00445
1975.16	0.00254
1971.05	0.00482
1966.93	0.00442
1962.81	0.00457
1958.69	0.00420
1954.57	0.00494
1950.45	0.00454
1946.33	0.00376
1942.21	0.00459
1938.09	0.00467
1933.97	0.00447
1929.85	0.00466
1925.73	0.00478
1921.61	0.00516
1917.5	0.00525
1913.38	0.00621
1909.26	0.00597
1905.14	0.00593
1901.02	0.00541
1896.9	0.00559
1892.78	0.00608
1888.66	0.00601
1884.54	0.00593
1880.42	0.00598
1876.3	0.00605
1872.18	0.00620
1868.06	0.00618
1863.95	0.00596
1859.83	0.00569
1855.71	0.00579
1851.59	0.00586
1847.47	0.00624
1843.35	0.00634
1839.23	0.00673
1835.11	0.00689
1830.99	0.00685
1826.87	0.00700
1822.75	0.00762
1818.63	0.00786
1814.52	0.00785
1810.4	0.00799
1806.28	0.00852
1802.16	0.00865
1798.04	0.00881
1793.92	0.00928
1789.8	0.00976
1785.68	0.01013
1781.56	0.01036
1777.44	0.01063
1773.32	0.01143
1769.2	0.01182
1765.08	0.01225
1760.97	0.01279
1756.85	0.01351
1752.73	0.01436
1748.61	0.01505
1744.49	0.01553
1740.37	0.01650
1736.25	0.01801
1732.13	0.01934
1728.01	0.02064
1723.89	0.02288
1719.77	0.02568
1715.65	0.03168
1711.53	0.03996
1707.42	0.05204
1703.3	0.07023
1699.18	0.09531
1695.06	0.12396
1690.94	0.14717
1686.82	0.17022
1682.7	0.20370
1678.58	0.23065
1674.46	0.26040
1670.34	0.29352
1666.22	0.32910
1662.1	0.36290
1657.98	0.39411
1653.87	0.42434
1649.75	0.45802
1645.63	0.47911
1641.51	0.49196
1637.39	0.49550
1633.27	0.48967
1629.15	0.47174
1625.03	0.44112
1620.91	0.40108
1616.79	0.35912
1612.67	0.31445
1608.55	0.26977
1604.44	0.22994
1600.32	0.20416
1596.2	0.18922
1592.08	0.17786
1587.96	0.17187
1583.84	0.17383
1579.72	0.18197
1575.6	0.19865
1571.48	0.21806
1567.36	0.24380
1563.24	0.26644
1559.12	0.29537
1555	0.33197
1550.89	0.35686
1546.77	0.38042
1542.65	0.40086
1538.53	0.42464
1534.41	0.43621
1530.29	0.44575
1526.17	0.44983
1522.05	0.45432
1517.93	0.46648
1513.81	0.47389
1509.69	0.46001
1505.57	0.42135
1501.45	0.38667
1497.34	0.34366
1493.22	0.30158
1489.1	0.26150
1484.98	0.22704
1480.86	0.20351
1476.74	0.18671
1472.62	0.17775
1468.5	0.17618
1464.38	0.18003
1460.26	0.18799
1456.14	0.20199
1452.02	0.20818
1447.9	0.20330
1443.79	0.19019
1439.67	0.17475
1435.55	0.15989
1431.43	0.15261
1427.31	0.15264
1423.19	0.15902
1419.07	0.17049
1414.95	0.18240
1410.83	0.18719
1406.71	0.18449
1402.59	0.17535
1398.47	0.16802
1394.35	0.16772
1390.24	0.17199
1386.12	0.17717
1382	0.18020
1377.88	0.17911
1373.76	0.17329
1369.64	0.16248
1365.52	0.14913
1361.4	0.13686
1357.28	0.12970
1353.16	0.12777
1349.04	0.13126
1344.92	0.13913
1340.81	0.14843
1336.69	0.15652
1332.57	0.15813
1328.45	0.15263
1324.33	0.14359
1320.21	0.13611
1316.09	0.13305
1311.97	0.13404
1307.85	0.13675
1303.73	0.14006
1299.61	0.14336
1295.49	0.14685
1291.37	0.15011
1287.26	0.15301
1283.14	0.15624
1279.02	0.16112
1274.9	0.16807
1270.78	0.17663
1266.66	0.18534
1262.54	0.19390
1258.42	0.20285
1254.3	0.21286
1250.18	0.22431
1246.06	0.23586
1241.94	0.24609
1237.82	0.25318
1233.71	0.25527
1229.59	0.24967
1225.47	0.23654
1221.35	0.21715
1217.23	0.19481
1213.11	0.17310
1208.99	0.15435
1204.87	0.13879
1200.75	0.12548
1196.63	0.11561
1192.51	0.10942
1188.39	0.10672
1184.27	0.10712
1180.16	0.11113
1176.04	0.11826
1171.92	0.12382
1167.8	0.12515
1163.68	0.12370
1159.56	0.11974
1155.44	0.11486
1151.32	0.10870
1147.2	0.10284
1143.08	0.09766
1138.96	0.09363
1134.84	0.09113
1130.73	0.08962
1126.61	0.08898
1122.49	0.08896
1118.37	0.08915
1114.25	0.08876
1110.13	0.08896
1106.01	0.08975
1101.89	0.08859
1097.77	0.08537
1093.65	0.08378
1089.53	0.08653
1085.41	0.09285
1081.29	0.10063
1077.18	0.10752
1073.06	0.11178
1068.94	0.11338
1064.82	0.11326
1060.7	0.11448
1056.58	0.11618
1052.46	0.11440
1048.34	0.10822
1044.22	0.10067
1040.1	0.09451
1035.98	0.09071
1031.86	0.08936
1027.74	0.08859
1023.63	0.08889
1019.51	0.09510
1015.39	0.10199
1011.27	0.09916
1007.15	0.08827
1003.03	0.07620
998.91	0.06711
994.791	0.06057
990.672	0.05556
986.552	0.05201
982.433	0.05031
978.314	0.04960
974.195	0.04980
970.076	0.05043
965.956	0.05169
961.837	0.05342
957.718	0.05546
953.599	0.05734
949.48	0.05888
945.36	0.05946
941.241	0.05872
937.122	0.05705
933.003	0.05501
928.883	0.05331
924.764	0.05147
920.645	0.04977
916.526	0.04818
912.407	0.04656
908.287	0.04536
904.168	0.04455
900.049	0.04429
895.93	0.04376
891.81	0.04348
887.691	0.04383
883.572	0.04435
879.453	0.04508
875.334	0.04608
871.214	0.04741
867.095	0.04942
862.976	0.05243
858.857	0.05569
854.738	0.05898
850.618	0.06066
846.499	0.06076
842.38	0.06172
838.261	0.06439
834.141	0.06710
830.022	0.06884
825.903	0.06902
821.784	0.06925
817.665	0.06964
813.545	0.07101
809.426	0.07312
805.307	0.07510
801.188	0.07638
797.068	0.07711
792.949	0.07827
788.83	0.08006
784.711	0.08182
780.592	0.08339
776.472	0.08562
772.353	0.08777
768.234	0.09001
764.115	0.09254
759.996	0.09518
755.876	0.09797
751.757	0.10123
747.638	0.10441
743.519	0.10742
739.399	0.11018
735.28	0.11260
731.161	0.11549
727.042	0.11800
722.923	0.12043
718.803	0.12308
714.684	0.12576
710.565	0.12879
706.446	0.13193
702.327	0.13512
698.207	0.13764
694.088	0.13993
689.969	0.14237
685.85	0.14495
681.73	0.14706
677.611	0.14930
673.492	0.15141
669.373	0.15376
665.254	0.15603
661.134	0.15624
657.015	0.15725
652.896	0.15782
648.777	0.15772
644.657	0.15821
640.538	0.15841
636.419	0.15878
632.3	0.15899
628.181	0.15849
624.061	0.15871
619.942	0.15900
615.823	0.15844
611.704	0.15852
607.585	0.15889
603.465	0.15901
599.346	0.15941
595.227	0.16056
591.108	0.16160
586.988	0.16275
582.869	0.16414
578.75	0.16598
574.631	0.16789
570.512	0.17050
566.392	0.17354
562.273	0.17655
558.154	0.17924
554.035	0.18278
549.915	0.18514
545.796	0.18681
541.677	0.18675
537.558	0.18635
533.439	0.18626
529.319	0.18520
525.2	0.18394
521.081	0.18357
516.962	0.18270
512.843	0.18324
508.723	0.18378
504.604	0.18204
500.485	0.18081
496.366	0.17945
492.246	0.17823
488.127	0.17844
484.008	0.17687
479.889	0.17439
475.77	0.17194
471.65	0.17008
467.531	0.16818
463.412	0.16469
459.293	0.16224
455.173	0.15997
451.054	0.15789
446.935	0.15644
442.816	0.15414
438.697	0.15221
434.577	0.15109
430.458	0.14934
426.339	0.14782
422.22	0.14552
418.101	0.14351
413.981	0.14369
409.862	0.14440
405.743	0.14281
401.624	0.14029
399.564	0.13917