File: FTIR/db-LASE IR data/Silk only film/Silk only 6.21.22 2.dpt
3997.7	0.00336
3993.58	0.00413
3989.46	0.00398
3985.34	0.00425
3981.22	0.00505
3977.1	0.00358
3972.98	0.00357
3968.87	0.00372
3964.75	0.00386
3960.63	0.00326
3956.51	0.00315
3952.39	0.00313
3948.27	0.00327
3944.15	0.00376
3940.03	0.00331
3935.91	0.00349
3931.79	0.00377
3927.67	0.00382
3923.55	0.00456
3919.44	0.00343
3915.32	0.00284
3911.2	0.00287
3907.08	0.00330
3902.96	0.00457
3898.84	0.00423
3894.72	0.00227
3890.6	0.00399
3886.48	0.00449
3882.36	0.00325
3878.24	0.00279
3874.12	0.00353
3870	0.00343
3865.89	0.00449
3861.77	0.00513
3857.65	0.00434
3853.53	0.00603
3849.41	0.00397
3845.29	0.00341
3841.17	0.00411
3837.05	0.00443
3832.93	0.00383
3828.81	0.00360
3824.69	0.00315
3820.57	0.00586
3816.45	0.00438
3812.34	0.00358
3808.22	0.00364
3804.1	0.00444
3799.98	0.00416
3795.86	0.00268
3791.74	0.00280
3787.62	0.00247
3783.5	0.00303
3779.38	0.00309
3775.26	0.00354
3771.14	0.00403
3767.02	0.00371
3762.9	0.00392
3758.79	0.00348
3754.67	0.00294
3750.55	0.00441
3746.43	0.00490
3742.31	0.00438
3738.19	0.00488
3734.07	0.00631
3729.95	0.00403
3725.83	0.00308
3721.71	0.00380
3717.59	0.00270
3713.47	0.00467
3709.35	0.00313
3705.24	0.00299
3701.12	0.00395
3697	0.00393
3692.88	0.00473
3688.76	0.00611
3684.64	0.00384
3680.52	0.00381
3676.4	0.00514
3672.28	0.00397
3668.16	0.00492
3664.04	0.00470
3659.92	0.00578
3655.81	0.00638
3651.69	0.00783
3647.57	0.00819
3643.45	0.00751
3639.33	0.00834
3635.21	0.00794
3631.09	0.00947
3626.97	0.01137
3622.85	0.01052
3618.73	0.01090
3614.61	0.01268
3610.49	0.01269
3606.37	0.01318
3602.26	0.01362
3598.14	0.01487
3594.02	0.01510
3589.9	0.01649
3585.78	0.01798
3581.66	0.01647
3577.54	0.01707
3573.42	0.01858
3569.3	0.02018
3565.18	0.02158
3561.06	0.02174
3556.94	0.02151
3552.82	0.02207
3548.71	0.02361
3544.59	0.02462
3540.47	0.02516
3536.35	0.02600
3532.23	0.02645
3528.11	0.02775
3523.99	0.02847
3519.87	0.02933
3515.75	0.02849
3511.63	0.02923
3507.51	0.02914
3503.39	0.03011
3499.27	0.03142
3495.16	0.03107
3491.04	0.03105
3486.92	0.03250
3482.8	0.03303
3478.68	0.03253
3474.56	0.03314
3470.44	0.03364
3466.32	0.03447
3462.2	0.03473
3458.08	0.03440
3453.96	0.03456
3449.84	0.03427
3445.73	0.03550
3441.61	0.03675
3437.49	0.03704
3433.37	0.03710
3429.25	0.03898
3425.13	0.03890
3421.01	0.03857
3416.89	0.03895
3412.77	0.04102
3408.65	0.04217
3404.53	0.04277
3400.41	0.04222
3396.29	0.04321
3392.18	0.04446
3388.06	0.04462
3383.94	0.04591
3379.82	0.04655
3375.7	0.04728
3371.58	0.04788
3367.46	0.04926
3363.34	0.04966
3359.22	0.05133
3355.1	0.05231
3350.98	0.05323
3346.86	0.05396
3342.74	0.05425
3338.63	0.05544
3334.51	0.05706
3330.39	0.05870
3326.27	0.06026
3322.15	0.06195
3318.03	0.06226
3313.91	0.06356
3309.79	0.06402
3305.67	0.06575
3301.55	0.06700
3297.43	0.06779
3293.31	0.06913
3289.19	0.06872
3285.08	0.06913
3280.96	0.06999
3276.84	0.07034
3272.72	0.06986
3268.6	0.06899
3264.48	0.06861
3260.36	0.06722
3256.24	0.06648
3252.12	0.06576
3248	0.06445
3243.88	0.06321
3239.76	0.06143
3235.64	0.06077
3231.53	0.05940
3227.41	0.05766
3223.29	0.05695
3219.17	0.05619
3215.05	0.05452
3210.93	0.05408
3206.81	0.05277
3202.69	0.05113
3198.57	0.05052
3194.45	0.04809
3190.33	0.04604
3186.21	0.04466
3182.1	0.04379
3177.98	0.04210
3173.86	0.04044
3169.74	0.03957
3165.62	0.03813
3161.5	0.03661
3157.38	0.03503
3153.26	0.03525
3149.14	0.03307
3145.02	0.03261
3140.9	0.03242
3136.78	0.03159
3132.66	0.03075
3128.55	0.02954
3124.43	0.02942
3120.31	0.03011
3116.19	0.02995
3112.07	0.02947
3107.95	0.02954
3103.83	0.03076
3099.71	0.03105
3095.59	0.03178
3091.47	0.03157
3087.35	0.03184
3083.23	0.03253
3079.11	0.03301
3075	0.03320
3070.88	0.03337
3066.76	0.03262
3062.64	0.03246
3058.52	0.03165
3054.4	0.03079
3050.28	0.03081
3046.16	0.02867
3042.04	0.02793
3037.92	0.02662
3033.8	0.02593
3029.68	0.02524
3025.56	0.02402
3021.45	0.02281
3017.33	0.02247
3013.21	0.02229
3009.09	0.02141
3004.97	0.02064
3000.85	0.02103
2996.73	0.02158
2992.61	0.02233
2988.49	0.02239
2984.37	0.02295
2980.25	0.02345
2976.13	0.02278
2972.02	0.02237
2967.9	0.02193
2963.78	0.02174
2959.66	0.02241
2955.54	0.02198
2951.42	0.02207
2947.3	0.02266
2943.18	0.02396
2939.06	0.02478
2934.94	0.02497
2930.82	0.02426
2926.7	0.02289
2922.58	0.02145
2918.47	0.02083
2914.35	0.01952
2910.23	0.01840
2906.11	0.01717
2901.99	0.01690
2897.87	0.01606
2893.75	0.01514
2889.63	0.01531
2885.51	0.01567
2881.39	0.01567
2877.27	0.01578
2873.15	0.01470
2869.03	0.01403
2864.92	0.01371
2860.8	0.01320
2856.68	0.01295
2852.56	0.01280
2848.44	0.01276
2844.32	0.01245
2840.2	0.01215
2836.08	0.01214
2831.96	0.01184
2827.84	0.01184
2823.72	0.01142
2819.6	0.01181
2815.48	0.01127
2811.37	0.01107
2807.25	0.01134
2803.13	0.01100
2799.01	0.01053
2794.89	0.01027
2790.77	0.01006
2786.65	0.00973
2782.53	0.00936
2778.41	0.00914
2774.29	0.00892
2770.17	0.00863
2766.05	0.00854
2761.94	0.00861
2757.82	0.00807
2753.7	0.00800
2749.58	0.00812
2745.46	0.00817
2741.34	0.00734
2737.22	0.00679
2733.1	0.00688
2728.98	0.00696
2724.86	0.00688
2720.74	0.00658
2716.62	0.00651
2712.5	0.00644
2708.39	0.00636
2704.27	0.00640
2700.15	0.00630
2696.03	0.00687
2691.91	0.00677
2687.79	0.00622
2683.67	0.00592
2679.55	0.00573
2675.43	0.00559
2671.31	0.00592
2667.19	0.00595
2663.07	0.00565
2658.95	0.00587
2654.84	0.00603
2650.72	0.00642
2646.6	0.00669
2642.48	0.00618
2638.36	0.00549
2634.24	0.00538
2630.12	0.00514
2626	0.00561
2621.88	0.00532
2617.76	0.00478
2613.64	0.00485
2609.52	0.00531
2605.4	0.00522
2601.29	0.00457
2597.17	0.00538
2593.05	0.00482
2588.93	0.00420
2584.81	0.00416
2580.69	0.00417
2576.57	0.00388
2572.45	0.00409
2568.33	0.00393
2564.21	0.00418
2560.09	0.00419
2555.97	0.00437
2551.85	0.00401
2547.74	0.00371
2543.62	0.00371
2539.5	0.00387
2535.38	0.00346
2531.26	0.00421
2527.14	0.00445
2523.02	0.00372
2518.9	0.00345
2514.78	0.00307
2510.66	0.00304
2506.54	0.00390
2502.42	0.00384
2498.31	0.00293
2494.19	0.00259
2490.07	0.00293
2485.95	0.00325
2481.83	0.00350
2477.71	0.00312
2473.59	0.00306
2469.47	0.00350
2465.35	0.00327
2461.23	0.00311
2457.11	0.00278
2452.99	0.00285
2448.87	0.00343
2444.76	0.00302
2440.64	0.00296
2436.52	0.00252
2432.4	0.00318
2428.28	0.00289
2424.16	0.00239
2420.04	0.00303
2415.92	0.00278
2411.8	0.00292
2407.68	0.00238
2403.56	0.00217
2399.44	0.00184
2395.32	0.00239
2391.21	0.00245
2387.09	0.00278
2382.97	0.00254
2378.85	0.00295
2374.73	0.00316
2370.61	0.00292
2366.49	0.00269
2362.37	0.00347
2358.25	0.00262
2354.13	0.00326
2350.01	0.00356
2345.89	0.00298
2341.77	0.00273
2337.66	0.00365
2333.54	0.00348
2329.42	0.00329
2325.3	0.00403
2321.18	0.00360
2317.06	0.00298
2312.94	0.00346
2308.82	0.00381
2304.7	0.00353
2300.58	0.00325
2296.46	0.00322
2292.34	0.00346
2288.23	0.00396
2284.11	0.00421
2279.99	0.00418
2275.87	0.00370
2271.75	0.00363
2267.63	0.00231
2263.51	0.00189
2259.39	0.00348
2255.27	0.00293
2251.15	0.00316
2247.03	0.00356
2242.91	0.00290
2238.79	0.00278
2234.68	0.00288
2230.56	0.00217
2226.44	0.00273
2222.32	0.00236
2218.2	0.00184
2214.08	0.00293
2209.96	0.00261
2205.84	0.00186
2201.72	0.00162
2197.6	0.00337
2193.48	0.00300
2189.36	0.00286
2185.24	0.00228
2181.13	0.00088
2177.01	0.00044
2172.89	0.00257
2168.77	0.00461
2164.65	0.00349
2160.53	0.00484
2156.41	0.00016
2152.29	0.00000
2148.17	0.00138
2144.05	0.00127
2139.93	0.00171
2135.81	0.00229
2131.69	0.00166
2127.58	0.00294
2123.46	0.00305
2119.34	0.00277
2115.22	0.00314
2111.1	0.00293
2106.98	0.00306
2102.86	0.00159
2098.74	0.00252
2094.62	0.00237
2090.5	0.00248
2086.38	0.00315
2082.26	0.00285
2078.14	0.00371
2074.03	0.00357
2069.91	0.00210
2065.79	0.00205
2061.67	0.00253
2057.55	0.00138
2053.43	0.00262
2049.31	0.00321
2045.19	0.00161
2041.07	0.00048
2036.95	0.00307
2032.83	0.00148
2028.71	0.00173
2024.6	0.00116
2020.48	0.00034
2016.36	0.00072
2012.24	0.00132
2008.12	0.00151
2004	0.00025
1999.88	0.00055
1995.76	0.00254
1991.64	0.00167
1987.52	0.00176
1983.4	0.00170
1979.28	0.00253
1975.16	0.00162
1971.05	0.00277
1966.93	0.00211
1962.81	0.00093
1958.69	0.00016
1954.57	0.00073
1950.45	0.00182
1946.33	0.00073
1942.21	0.00144
1938.09	0.00223
1933.97	0.00150
1929.85	0.00161
1925.73	0.00079
1921.61	0.00121
1917.5	0.00199
1913.38	0.00294
1909.26	0.00206
1905.14	0.00260
1901.02	0.00246
1896.9	0.00190
1892.78	0.00212
1888.66	0.00234
1884.54	0.00197
1880.42	0.00136
1876.3	0.00198
1872.18	0.00201
1868.06	0.00207
1863.95	0.00197
1859.83	0.00198
1855.71	0.00208
1851.59	0.00202
1847.47	0.00204
1843.35	0.00226
1839.23	0.00225
1835.11	0.00213
1830.99	0.00250
1826.87	0.00235
1822.75	0.00244
1818.63	0.00257
1814.52	0.00199
1810.4	0.00248
1806.28	0.00243
1802.16	0.00259
1798.04	0.00313
1793.92	0.00314
1789.8	0.00325
1785.68	0.00304
1781.56	0.00327
1777.44	0.00346
1773.32	0.00372
1769.2	0.00385
1765.08	0.00346
1760.97	0.00363
1756.85	0.00386
1752.73	0.00374
1748.61	0.00409
1744.49	0.00434
1740.37	0.00463
1736.25	0.00507
1732.13	0.00493
1728.01	0.00487
1723.89	0.00546
1719.77	0.00655
1715.65	0.00811
1711.53	0.00986
1707.42	0.01277
1703.3	0.01657
1699.18	0.02202
1695.06	0.02705
1690.94	0.03153
1686.82	0.03676
1682.7	0.04296
1678.58	0.04760
1674.46	0.05297
1670.34	0.05842
1666.22	0.06387
1662.1	0.06914
1657.98	0.07385
1653.87	0.07862
1649.75	0.08270
1645.63	0.08560
1641.51	0.08712
1637.39	0.08865
1633.27	0.08688
1629.15	0.08489
1625.03	0.08082
1620.91	0.07466
1616.79	0.06885
1612.67	0.06169
1608.55	0.05443
1604.44	0.04749
1600.32	0.04271
1596.2	0.03988
1592.08	0.03755
1587.96	0.03643
1583.84	0.03645
1579.72	0.03799
1575.6	0.04106
1571.48	0.04425
1567.36	0.04877
1563.24	0.05292
1559.12	0.05834
1555	0.06268
1550.89	0.06687
1546.77	0.07084
1542.65	0.07490
1538.53	0.07701
1534.41	0.07899
1530.29	0.08061
1526.17	0.08203
1522.05	0.08307
1517.93	0.08468
1513.81	0.08592
1509.69	0.08558
1505.57	0.08070
1501.45	0.07650
1497.34	0.07071
1493.22	0.06394
1489.1	0.05725
1484.98	0.05061
1480.86	0.04589
1476.74	0.04267
1472.62	0.04053
1468.5	0.03950
1464.38	0.03988
1460.26	0.04143
1456.14	0.04408
1452.02	0.04466
1447.9	0.04415
1443.79	0.04181
1439.67	0.03919
1435.55	0.03609
1431.43	0.03467
1427.31	0.03419
1423.19	0.03571
1419.07	0.03773
1414.95	0.03949
1410.83	0.04045
1406.71	0.04014
1402.59	0.03856
1398.47	0.03764
1394.35	0.03711
1390.24	0.03770
1386.12	0.03873
1382	0.03917
1377.88	0.03899
1373.76	0.03833
1369.64	0.03629
1365.52	0.03384
1361.4	0.03157
1357.28	0.02975
1353.16	0.02937
1349.04	0.03000
1344.92	0.03128
1340.81	0.03314
1336.69	0.03457
1332.57	0.03473
1328.45	0.03391
1324.33	0.03231
1320.21	0.03094
1316.09	0.03027
1311.97	0.03039
1307.85	0.03087
1303.73	0.03122
1299.61	0.03169
1295.49	0.03242
1291.37	0.03296
1287.26	0.03354
1283.14	0.03410
1279.02	0.03514
1274.9	0.03659
1270.78	0.03829
1266.66	0.03960
1262.54	0.04097
1258.42	0.04269
1254.3	0.04440
1250.18	0.04638
1246.06	0.04836
1241.94	0.05038
1237.82	0.05193
1233.71	0.05247
1229.59	0.05199
1225.47	0.05043
1221.35	0.04753
1217.23	0.04391
1213.11	0.04008
1208.99	0.03659
1204.87	0.03335
1200.75	0.03040
1196.63	0.02813
1192.51	0.02667
1188.39	0.02583
1184.27	0.02564
1180.16	0.02635
1176.04	0.02766
1171.92	0.02880
1167.8	0.02905
1163.68	0.02886
1159.56	0.02836
1155.44	0.02729
1151.32	0.02625
1147.2	0.02482
1143.08	0.02375
1138.96	0.02300
1134.84	0.02220
1130.73	0.02188
1126.61	0.02177
1122.49	0.02174
1118.37	0.02161
1114.25	0.02147
1110.13	0.02148
1106.01	0.02174
1101.89	0.02137
1097.77	0.02079
1093.65	0.02034
1089.53	0.02069
1085.41	0.02198
1081.29	0.02358
1077.18	0.02505
1073.06	0.02598
1068.94	0.02654
1064.82	0.02647
1060.7	0.02679
1056.58	0.02722
1052.46	0.02700
1048.34	0.02584
1044.22	0.02428
1040.1	0.02312
1035.98	0.02225
1031.86	0.02192
1027.74	0.02148
1023.63	0.02170
1019.51	0.02286
1015.39	0.02435
1011.27	0.02403
1007.15	0.02197
1003.03	0.01942
998.91	0.01741
994.791	0.01591
990.672	0.01466
986.552	0.01380
982.433	0.01347
978.314	0.01314
974.195	0.01314
970.076	0.01336
965.956	0.01369
961.837	0.01393
957.718	0.01449
953.599	0.01487
949.48	0.01517
945.36	0.01530
941.241	0.01511
937.122	0.01472
933.003	0.01441
928.883	0.01388
924.764	0.01349
920.645	0.01301
916.526	0.01277
912.407	0.01230
908.287	0.01194
904.168	0.01186
900.049	0.01165
895.93	0.01159
891.81	0.01174
887.691	0.01148
883.572	0.01157
879.453	0.01199
875.334	0.01203
871.214	0.01218
867.095	0.01289
862.976	0.01338
858.857	0.01410
854.738	0.01498
850.618	0.01522
846.499	0.01535
842.38	0.01566
838.261	0.01612
834.141	0.01681
830.022	0.01722
825.903	0.01740
821.784	0.01715
817.665	0.01703
813.545	0.01754
809.426	0.01808
805.307	0.01844
801.188	0.01871
797.068	0.01919
792.949	0.01944
788.83	0.01966
784.711	0.02017
780.592	0.02045
776.472	0.02106
772.353	0.02146
768.234	0.02184
764.115	0.02224
759.996	0.02309
755.876	0.02386
751.757	0.02461
747.638	0.02558
743.519	0.02609
739.399	0.02650
735.28	0.02717
731.161	0.02766
727.042	0.02837
722.923	0.02893
718.803	0.02947
714.684	0.03022
710.565	0.03099
706.446	0.03192
702.327	0.03253
698.207	0.03299
694.088	0.03360
689.969	0.03406
685.85	0.03455
681.73	0.03539
677.611	0.03591
673.492	0.03647
669.373	0.03697
665.254	0.03705
661.134	0.03721
657.015	0.03775
652.896	0.03787
648.777	0.03802
644.657	0.03830
640.538	0.03853
636.419	0.03838
632.3	0.03856
628.181	0.03900
624.061	0.03885
619.942	0.03867
615.823	0.03904
611.704	0.03926
607.585	0.03926
603.465	0.03920
599.346	0.03942
595.227	0.03951
591.108	0.04022
586.988	0.04103
582.869	0.04124
578.75	0.04119
574.631	0.04234
570.512	0.04274
566.392	0.04344
562.273	0.04393
558.154	0.04480
554.035	0.04542
549.915	0.04644
545.796	0.04675
541.677	0.04668
537.558	0.04715
533.439	0.04695
529.319	0.04688
525.2	0.04682
521.081	0.04708
516.962	0.04698
512.843	0.04683
508.723	0.04690
504.604	0.04695
500.485	0.04686
496.366	0.04682
492.246	0.04649
488.127	0.04661
484.008	0.04666
479.889	0.04630
475.77	0.04590
471.65	0.04638
467.531	0.04609
463.412	0.04546
459.293	0.04430
455.173	0.04371
451.054	0.04380
446.935	0.04331
442.816	0.04345
438.697	0.04320
434.577	0.04350
430.458	0.04378
426.339	0.04341
422.22	0.04219
418.101	0.04232
413.981	0.04357
409.862	0.04333
405.743	0.04265
401.624	0.04206
399.564	0.04239